Data from test_V78500241_982.txt Node
Date: Fri Mar 25 16:22:00 CST 2022
User: usil
Spectrometer: V785-0024
Trigger mode: 0
Integration Time (sec): 4.000000E-1
Scans to average: 1
Nonlinearity correction enabled: false
Boxcar width: 0
Storing dark spectrum: false
XAxis mode: Wavelengths
Number of Pixels in Spectrum: 1024
>>>>>Begin Spectral Data<<<<<
801.071	2899
801.214	2960
801.356	2857
801.499	2899
801.641	2857
801.783	2933
801.926	3032
802.068	2971
802.211	2937
802.353	3005
802.496	2944
802.638	2967
802.78	3043
802.923	3100
803.065	3009
803.208	2883
803.35	2922
803.492	2956
803.635	2914
803.777	2754
803.919	2868
804.061	3176
804.204	2941
804.346	2906
804.488	2830
804.63	2994
804.773	2849
804.915	2899
805.057	3051
805.199	2922
805.341	2944
805.483	3005
805.626	3017
805.768	2944
805.91	3066
806.052	3112
806.194	3039
806.336	3211
806.478	3005
806.62	2948
806.762	2956
806.904	3036
807.046	3184
807.188	2956
807.33	2906
807.472	2979
807.614	2876
807.756	2979
807.898	2941
808.04	2868
808.182	2952
808.324	2933
808.465	2876
808.607	2864
808.749	2823
808.891	2845
809.033	2982
809.174	2975
809.316	2876
809.458	2876
809.6	2758
809.741	2773
809.883	2769
810.025	2876
810.166	2834
810.308	2811
810.45	2868
810.591	2758
810.733	2750
810.875	2811
811.016	2754
811.158	2781
811.299	2811
811.441	2899
811.582	2880
811.724	2830
811.865	2842
812.007	2895
812.148	2895
812.29	2880
812.431	2868
812.573	2952
812.714	2982
812.855	3036
812.997	3039
813.138	3108
813.279	3005
813.421	3013
813.562	2952
813.703	2857
813.845	2899
813.986	2800
814.127	2750
814.268	2800
814.41	2857
814.551	2853
814.692	2883
814.833	2807
814.974	2906
815.115	2914
815.256	2800
815.397	2823
815.539	2861
815.68	2800
815.821	2792
815.962	2979
816.103	2944
816.244	2899
816.385	2899
816.526	2975
816.666	2906
816.807	2739
816.948	2864
817.089	2914
817.23	2826
817.371	2788
817.512	2796
817.653	2857
817.793	2842
817.934	2861
818.075	2979
818.216	2975
818.356	3013
818.497	2902
818.638	2781
818.778	2826
818.919	2800
819.06	2746
819.2	2853
819.341	2792
819.481	2792
819.622	2937
819.762	3104
819.903	3020
820.043	2929
820.184	2899
820.324	2887
820.465	2979
820.605	3017
820.746	3013
820.886	2925
821.026	3116
821.167	3131
821.307	3214
821.447	3291
821.588	3245
821.728	3241
821.868	3203
822.008	3108
822.149	3199
822.289	3199
822.429	3089
822.569	3089
822.709	3184
822.849	3066
822.99	3032
823.13	3195
823.27	3173
823.41	3123
823.55	3123
823.69	3154
823.83	3165
823.97	3062
824.11	3005
824.25	3001
824.389	3074
824.529	3093
824.669	3058
824.809	3199
824.949	3230
825.089	3199
825.228	3138
825.368	3032
825.508	2925
825.648	2941
825.787	3005
825.927	2998
826.067	2967
826.206	2990
826.346	3058
826.485	3036
826.625	3131
826.765	3245
826.904	3195
827.044	2975
827.183	2933
827.323	2887
827.462	2952
827.601	2933
827.741	2960
827.88	2922
828.02	2849
828.159	2960
828.298	3020
828.437	3123
828.577	3051
828.716	3241
828.855	3074
828.994	2906
829.134	2861
829.273	2948
829.412	2868
829.551	2872
829.69	2906
829.829	2975
829.968	3127
830.107	2990
830.246	3039
830.385	2899
830.524	2872
830.663	2826
830.802	2739
830.941	2659
831.08	2629
831.219	2773
831.357	2766
831.496	2941
831.635	2701
831.774	2655
831.913	2636
832.051	2552
832.19	2564
832.329	2667
832.467	2533
832.606	2469
832.744	2560
832.883	2552
833.022	2590
833.16	2625
833.299	2716
833.437	2689
833.576	2670
833.714	2762
833.852	2705
833.991	2781
834.129	2811
834.267	2819
834.406	2758
834.544	2861
834.682	2876
834.821	2868
834.959	3024
835.097	2883
835.235	3081
835.373	3009
835.511	2986
835.65	2952
835.788	2918
835.926	2849
836.064	2754
836.202	2823
836.34	3058
836.478	3135
836.615	3047
836.753	3135
836.891	3184
837.029	3108
837.167	3131
837.305	3070
837.443	3036
837.58	2986
837.718	3116
837.856	3093
837.993	3017
838.131	3104
838.269	3142
838.406	3104
838.544	3055
838.681	2933
838.819	2899
838.956	2815
839.094	2864
839.231	2914
839.369	2986
839.506	3378
839.643	3214
839.781	3017
839.918	2902
840.055	3047
840.193	3036
840.33	3036
840.467	3089
840.604	3119
840.742	3386
840.879	3074
841.016	3058
841.153	3093
841.29	3287
841.427	3294
841.564	3275
841.701	3317
841.838	3176
841.975	3188
842.112	3226
842.249	3085
842.385	3055
842.522	3226
842.659	3131
842.796	3062
842.933	3066
843.069	3055
843.206	3028
843.343	3157
843.479	3089
843.616	3154
843.752	2902
843.889	2910
844.025	3017
844.162	2906
844.298	3116
844.435	2933
844.571	2906
844.708	3077
844.844	3150
844.98	3233
845.117	3211
845.253	3051
845.389	2990
845.525	3119
845.661	3093
845.798	3020
845.934	3131
846.07	3066
846.206	3192
846.342	3302
846.478	3207
846.614	3089
846.75	3062
846.886	3013
847.022	3241
847.158	3165
847.294	3218
847.429	3256
847.565	3195
847.701	3450
847.837	3036
847.972	2994
848.108	3169
848.244	3142
848.379	2956
848.515	2929
848.65	2899
848.786	2994
848.921	3001
849.057	3093
849.192	3150
849.328	3028
849.463	3108
849.598	3055
849.734	3062
849.869	2963
850.004	2902
850.14	2986
850.275	2899
850.41	2845
850.545	2861
850.68	2933
850.815	2944
850.95	2994
851.085	3188
851.22	3119
851.355	3020
851.49	2944
851.625	2986
851.76	3005
851.895	2944
852.03	2929
852.165	3055
852.299	3112
852.434	3165
852.569	3138
852.703	3161
852.838	3226
852.973	3348
853.107	3302
853.242	3176
853.376	3100
853.511	3017
853.645	3013
853.78	3233
853.914	3112
854.048	3100
854.183	3093
854.317	3119
854.451	3241
854.585	3077
854.72	3039
854.854	3199
854.988	3077
855.122	3039
855.256	2944
855.39	3108
855.524	3249
855.658	3157
855.792	3150
855.926	3173
856.06	3192
856.194	3291
856.327	3146
856.461	3074
856.595	3017
856.729	3104
856.862	3195
856.996	3138
857.13	3192
857.263	3264
857.397	3245
857.53	3089
857.664	3161
857.797	3176
857.931	3256
858.064	3154
858.197	3195
858.331	3104
858.464	3112
858.597	2967
858.731	3116
858.864	3100
858.997	3112
859.13	3112
859.263	3165
859.396	3203
859.529	3081
859.662	3066
859.795	3066
859.928	3119
860.061	3306
860.194	3264
860.327	3131
860.46	3074
860.592	3207
860.725	3207
860.858	3256
860.99	3127
861.123	3047
861.256	3043
861.388	3161
861.521	3823
861.653	3028
861.786	3001
861.918	2990
862.05	3001
862.183	3074
862.315	3146
862.447	3184
862.58	3070
862.712	2952
862.844	2853
862.976	3020
863.108	3005
863.24	3435
863.372	2849
863.504	3017
863.636	2956
863.768	3024
863.9	2986
864.032	2918
864.164	2937
864.296	3013
864.428	3074
864.559	3055
864.691	3062
864.823	3070
864.954	3009
865.086	3028
865.217	3005
865.349	2925
865.48	2979
865.612	3001
865.743	3154
865.875	2986
866.006	2925
866.137	2963
866.269	2944
866.4	2906
866.531	2952
866.662	2887
866.793	2880
866.924	2883
867.055	2975
867.186	2914
867.317	2902
867.448	2823
867.579	2823
867.71	2899
867.841	2815
867.972	2922
868.103	2906
868.233	2861
868.364	2853
868.495	2902
868.625	3013
868.756	3169
868.886	2956
869.017	3024
869.147	3169
869.278	3154
869.408	3024
869.539	3005
869.669	3077
869.799	3047
869.929	3119
870.06	3104
870.19	3321
870.32	3264
870.45	3287
870.58	3344
870.71	3397
870.84	3469
870.97	3294
871.1	3253
871.23	3519
871.36	3435
871.489	3370
871.619	3393
871.749	3393
871.879	3393
872.008	3507
872.138	3382
872.267	3253
872.397	3165
872.526	3108
872.656	2994
872.785	3074
872.915	3226
873.044	3291
873.173	3245
873.303	3233
873.432	3237
873.561	3203
873.69	3169
873.819	3123
873.948	3222
874.077	3100
874.206	3005
874.335	3055
874.464	3207
874.593	3363
874.722	3245
874.851	3420
874.979	3355
875.108	3310
875.237	3176
875.365	3203
875.494	3169
875.623	3237
875.751	3055
875.88	3104
876.008	3173
876.136	3176
876.265	3397
876.393	3515
876.521	3420
876.65	3386
876.778	3355
876.906	3272
877.034	3245
877.162	3279
877.29	3138
877.418	3272
877.546	3241
877.674	3233
877.802	3233
877.93	3188
878.058	3131
878.185	3093
878.313	3199
878.441	3199
878.568	3062
878.696	3127
878.824	3245
878.951	3283
879.079	3443
879.206	3584
879.333	3420
879.461	3340
879.588	3363
879.715	3473
879.842	3580
879.97	3355
880.097	3150
880.224	3154
880.351	3176
880.478	3207
880.605	3169
880.732	3169
880.859	3507
880.986	3294
881.112	3306
881.239	3169
881.366	3097
881.493	3058
881.619	2975
881.746	3055
881.872	3081
881.999	3097
882.125	3184
882.252	3222
882.378	3287
882.505	3439
882.631	3256
882.757	3150
882.883	3184
883.01	3195
883.136	3135
883.262	3097
883.388	3116
883.514	3340
883.64	3370
883.766	3325
883.892	3195
884.018	3203
884.143	3447
884.269	3526
884.395	3192
884.52	3131
884.646	3176
884.772	3093
884.897	3077
885.023	3203
885.148	3306
885.274	3420
885.399	3378
885.524	3264
885.65	3283
885.775	3332
885.9	3230
886.025	3420
886.15	3359
886.275	3272
886.4	3192
886.525	3275
886.65	3279
886.775	3253
886.9	3504
887.025	3637
887.149	3401
887.274	3268
887.399	3199
887.523	3233
887.648	3214
887.773	3222
887.897	3386
888.021	3382
888.146	3275
888.27	3409
888.395	3492
888.519	3447
888.643	3481
888.767	3473
888.891	3329
889.015	3214
889.139	3279
889.263	3222
889.387	3420
889.511	3519
889.635	3443
889.759	3283
889.883	3302
890.006	3409
890.13	3477
890.254	3230
890.377	3351
890.501	3184
890.624	3169
890.748	3317
890.871	3195
890.995	3123
891.118	3077
891.241	3173
891.364	3207
891.488	3283
891.611	3173
891.734	3233
891.857	3287
891.98	3222
892.103	3317
892.226	3294
892.349	3192
892.471	3077
892.594	3260
892.717	3264
892.839	3294
892.962	3287
893.085	3317
893.207	3283
893.33	3184
893.452	3173
893.575	3329
893.697	3253
893.819	3447
893.941	3511
894.064	3428
894.186	3241
894.308	3264
894.43	3424
894.552	3519
894.674	3526
894.796	3275
894.918	3291
895.04	3302
895.161	3428
895.283	3363
895.405	3253
895.526	3367
895.648	3412
895.769	3389
895.891	3458
896.012	3424
896.134	3450
896.255	3416
896.376	3382
896.498	3359
896.619	3454
896.74	3329
896.861	3439
896.982	3717
897.103	3846
897.224	3545
897.345	3496
897.466	3401
897.587	3496
897.708	3618
897.828	3534
897.949	3443
898.07	3382
898.19	3359
898.311	3622
898.431	3462
898.552	3477
898.672	3622
898.792	3549
898.913	3530
899.033	3397
899.153	3313
899.273	3233
899.393	3256
899.513	3279
899.633	3332
899.753	3348
899.873	3313
899.993	3355
900.113	3287
900.232	3374
900.352	3344
900.472	3313
900.591	3157
900.711	3294
900.83	3233
900.95	3378
901.069	3504
901.189	3340
901.308	3161
901.427	3116
901.546	3222
901.665	3291
901.784	3367
901.904	3241
902.023	3161
902.141	3024
902.26	2994
902.379	3138
902.498	3070
902.617	3043
902.735	3203
902.854	3237
902.973	3176
903.091	3032
903.21	3028
903.328	3093
903.446	3093
903.565	3093
903.683	3203
903.801	3100
903.919	3199
904.038	3272
904.156	3188
904.274	3249
904.392	3241
904.51	3233
904.627	3325
904.745	3454
904.863	3526
904.981	3268
905.098	3135
905.216	3230
905.334	3287
905.451	3340
905.569	3268
905.686	3367
905.803	3488
905.921	3348
906.038	3435
906.155	3370
906.272	3291
906.389	3348
906.506	3222
906.623	3218
906.74	3283
906.857	3211
906.974	3214
907.091	3469
907.208	3523
907.324	3424
907.441	3378
907.557	3230
907.674	3245
907.79	3199
907.907	3264
908.023	3393
908.139	3389
908.256	3321
908.372	3389
908.488	3344
908.604	3237
908.72	3211
908.836	3272
908.952	3249
909.068	3344
909.184	3462
909.3	3359
909.415	3511
909.531	3492
909.647	3279
909.762	3302
909.878	3249
909.993	3370
910.108	3344
910.224	3336
910.339	3412
910.454	3351
910.57	3313
910.685	3241
910.8	3584
910.915	3538
911.03	3416
911.145	3279
911.259	3291
911.374	3321
911.489	3256
911.604	3218
911.718	3142
911.833	3154
911.947	3097
912.062	2941
912.176	3199
912.291	3176
912.405	3222
912.519	3447
912.633	3431
912.748	3317
912.862	3287
912.976	3165
913.09	3020
913.204	3138
913.318	3218
913.431	3344
913.545	3310
913.659	3428
913.772	3351
913.886	3203
914	3203
914.113	3355
914.226	3454
914.34	3351
914.453	3211
914.566	3409
914.68	3317
914.793	3310
914.906	3146
915.019	3112
915.132	3043
915.245	3146
915.358	3199
915.47	3218
915.583	3226
915.696	3302
915.809	3454
915.921	3370
916.034	3233
916.146	3275
916.259	3218
916.371	3370
916.483	3348
916.595	3294
916.708	3317
916.82	3351
916.932	3336
917.044	3306
917.156	3321
917.268	3241
917.38	3264
917.491	3298
917.603	3348
917.715	3435
917.826	3469
917.938	3393
918.049	3256
918.161	3405
918.272	3595
918.384	3568
918.495	3473
918.606	3317
918.717	3264
918.828	3389
918.939	3412
919.05	3287
919.161	3405
919.272	3203
919.383	3302
919.494	3515
919.604	3652
919.715	3454
919.826	3412
919.936	3450
920.047	3587
920.157	3545
920.267	3732
920.378	3595
920.488	3526
920.598	3789
920.708	3941
920.818	3854
920.928	3819
921.038	3998
921.148	3979
921.258	3686
921.368	3603
921.477	3572
921.587	3511
921.697	3443
921.806	3622
921.916	3488
922.025	3344
922.134	3321
922.244	3344
922.353	3367
922.462	3272
922.571	3188
922.68	3146
922.789	3077
922.898	3116
923.007	3081
923.116	3203
923.224	3176
923.333	3138
923.442	3093
923.55	3074
923.659	3146
923.767	3214
923.876	3112
923.984	3203
924.092	3108
924.201	3203
924.309	3214
924.417	3207
924.525	3192
924.633	3214
924.741	4150
924.849	3066
924.956	3268
925.064	3077
925.172	3051
925.279	3055
925.387	3195
925.494	3176
925.602	3336
925.709	3321
925.816	3211
925.924	3275
926.031	3393
926.138	3340
926.245	3363
926.352	3233
926.459	3378
926.566	3496
926.673	3306
926.779	3233
926.886	3241
926.993	3131
927.099	3157
927.206	3104
927.312	3135
927.419	3260
927.525	3211
927.631	3249
927.737	3150
927.843	3142
927.95	3024
928.056	3127
928.162	3184
928.267	3233
928.373	3865
928.479	3306
928.585	3039
928.69	3207
928.796	3283
928.901	3176
929.007	3066
929.112	3192
929.218	3165
929.323	3135
929.428	3142
929.533	3279
929.638	3112
929.743	3150
929.848	3249
929.953	3207
930.058	3165
930.163	2952
930.267	3062
930.372	3195
930.477	3032
930.581	3344
930.685	3214
930.79	3047
930.894	3157
930.998	3108
931.103	3253
931.207	2948
931.311	2956
931.415	2937
931.519	2754
931.623	2819
