Data from test_V78500241_376.txt Node
Date: Fri Mar 25 16:17:48 CST 2022
User: usil
Spectrometer: V785-0024
Trigger mode: 0
Integration Time (sec): 4.000000E-1
Scans to average: 1
Nonlinearity correction enabled: false
Boxcar width: 0
Storing dark spectrum: false
XAxis mode: Wavelengths
Number of Pixels in Spectrum: 1024
>>>>>Begin Spectral Data<<<<<
801.071	2922
801.214	2944
801.356	2864
801.499	2883
801.641	2864
801.783	2933
801.926	3062
802.068	2952
802.211	2986
802.353	3009
802.496	2990
802.638	3017
802.78	3028
802.923	3081
803.065	2994
803.208	2849
803.35	2906
803.492	2914
803.635	2933
803.777	2781
803.919	2845
804.061	3188
804.204	2967
804.346	2952
804.488	2811
804.63	2986
804.773	2868
804.915	2902
805.057	3066
805.199	2929
805.341	2990
805.483	3028
805.626	2971
805.768	2960
805.91	3077
806.052	3077
806.194	3020
806.336	3226
806.478	3005
806.62	2929
806.762	3013
806.904	3024
807.046	3154
807.188	2994
807.33	2899
807.472	2941
807.614	2922
807.756	2990
807.898	2948
808.04	2902
808.182	2952
808.324	2937
808.465	2883
808.607	2864
808.749	2819
808.891	2868
809.033	2998
809.174	2986
809.316	2857
809.458	2868
809.6	2777
809.741	2773
809.883	2727
810.025	2838
810.166	2887
810.308	2819
810.45	2834
810.591	2777
810.733	2773
810.875	2861
811.016	2769
811.158	2766
811.299	2769
811.441	2910
811.582	2891
811.724	2819
811.865	2807
812.007	2929
812.148	2925
812.29	2834
812.431	2861
812.573	2952
812.714	2979
812.855	3058
812.997	3043
813.138	3104
813.279	2986
813.421	3017
813.562	2971
813.703	2861
813.845	2883
813.986	2758
814.127	2731
814.268	2807
814.41	2857
814.551	2804
814.692	2891
814.833	2777
814.974	2895
815.115	2941
815.256	2826
815.397	2815
815.539	2857
815.68	2777
815.821	2792
815.962	2925
816.103	2910
816.244	2887
816.385	2861
816.526	2952
816.666	2918
816.807	2724
816.948	2910
817.089	2895
817.23	2834
817.371	2781
817.512	2773
817.653	2853
817.793	2796
817.934	2845
818.075	2952
818.216	2971
818.356	3001
818.497	2872
818.638	2804
818.778	2800
818.919	2773
819.06	2781
819.2	2899
819.341	2785
819.481	2781
819.622	2906
819.762	3058
819.903	3028
820.043	2902
820.184	2906
820.324	2883
820.465	2994
820.605	3005
820.746	3005
820.886	2933
821.026	3081
821.167	3165
821.307	3245
821.447	3260
821.588	3245
821.728	3173
821.868	3184
822.008	3039
822.149	3188
822.289	3192
822.429	3074
822.569	3070
822.709	3188
822.849	3024
822.99	3058
823.13	3157
823.27	3203
823.41	3108
823.55	3146
823.69	3135
823.83	3195
823.97	3123
824.11	2979
824.25	3017
824.389	3081
824.529	3119
824.669	3077
824.809	3203
824.949	3226
825.089	3233
825.228	3165
825.368	3013
825.508	2956
825.648	2956
825.787	3001
825.927	3043
826.067	2975
826.206	2948
826.346	3077
826.485	3127
826.625	3131
826.765	3222
826.904	3176
827.044	2986
827.183	2941
827.323	2826
827.462	3028
827.601	2902
827.741	2925
827.88	2967
828.02	2842
828.159	2929
828.298	3009
828.437	3116
828.577	3020
828.716	3275
828.855	3074
828.994	2918
829.134	2857
829.273	2891
829.412	2861
829.551	2861
829.69	2872
829.829	2952
829.968	3123
830.107	3001
830.246	2990
830.385	2918
830.524	2887
830.663	2830
830.802	2701
830.941	2648
831.08	2636
831.219	2777
831.357	2712
831.496	2971
831.635	2712
831.774	2648
831.913	2670
832.051	2549
832.19	2610
832.329	2674
832.467	2511
832.606	2476
832.744	2564
832.883	2568
833.022	2598
833.16	2667
833.299	2727
833.437	2708
833.576	2686
833.714	2735
833.852	2727
833.991	2716
834.129	2826
834.267	2849
834.406	2781
834.544	2864
834.682	2872
834.821	2838
834.959	3039
835.097	2895
835.235	3039
835.373	2975
835.511	2971
835.65	2948
835.788	2952
835.926	2834
836.064	2834
836.202	2830
836.34	3097
836.478	3142
836.615	3028
836.753	3131
836.891	3176
837.029	3138
837.167	3093
837.305	3100
837.443	2998
837.58	2982
837.718	3116
837.856	3039
837.993	3024
838.131	3081
838.269	3066
838.406	3074
838.544	3066
838.681	2906
838.819	2971
838.956	2796
839.094	2826
839.231	2914
839.369	2975
839.506	3363
839.643	3222
839.781	3017
839.918	2925
840.055	3077
840.193	3058
840.33	3062
840.467	3077
840.604	3116
840.742	3389
840.879	3058
841.016	3020
841.153	3142
841.29	3336
841.427	3291
841.564	3253
841.701	3268
841.838	3184
841.975	3142
842.112	3195
842.249	3085
842.385	3024
842.522	3241
842.659	3077
842.796	3081
842.933	3097
843.069	3055
843.206	3039
843.343	3169
843.479	3089
843.616	3150
843.752	2868
843.889	2849
844.025	3074
844.162	2864
844.298	3001
844.435	2925
844.571	2929
844.708	3028
844.844	3180
844.98	3249
845.117	3173
845.253	3036
845.389	3013
845.525	3039
845.661	3097
845.798	2975
845.934	3108
846.07	3043
846.206	3165
846.342	3321
846.478	3214
846.614	3074
846.75	3039
846.886	3017
847.022	3226
847.158	3123
847.294	3176
847.429	3218
847.565	3195
847.701	3469
847.837	3017
847.972	2952
848.108	3154
848.244	3123
848.379	2990
848.515	2948
848.65	2922
848.786	2952
848.921	2986
849.057	3127
849.192	3116
849.328	3051
849.463	3058
849.598	3058
849.734	2998
849.869	2952
850.004	2933
850.14	2952
850.275	2895
850.41	2815
850.545	2845
850.68	2937
850.815	2960
850.95	2925
851.085	3207
851.22	3066
851.355	3043
851.49	2998
851.625	3017
851.76	3013
851.895	2937
852.03	2868
852.165	3013
852.299	3116
852.434	3154
852.569	3169
852.703	3154
852.838	3230
852.973	3325
853.107	3321
853.242	3150
853.376	3074
853.511	2956
853.645	3036
853.78	3237
853.914	3112
854.048	3119
854.183	3077
854.317	3150
854.451	3283
854.585	3085
854.72	3100
854.854	3176
854.988	3020
855.122	3066
855.256	2990
855.39	3089
855.524	3211
855.658	3184
855.792	3116
855.926	3161
856.06	3192
856.194	3275
856.327	3157
856.461	3081
856.595	3097
856.729	3085
856.862	3237
856.996	3123
857.13	3199
857.263	3207
857.397	3241
857.53	3119
857.664	3138
857.797	3222
857.931	3264
858.064	3165
858.197	3203
858.331	3089
858.464	3097
858.597	3005
858.731	3116
858.864	3138
858.997	3112
859.13	3157
859.263	3157
859.396	3188
859.529	3062
859.662	3070
859.795	3032
859.928	3142
860.061	3241
860.194	3272
860.327	3112
860.46	3070
860.592	3195
860.725	3207
860.858	3237
860.99	3077
861.123	3047
861.256	3047
861.388	3165
861.521	3819
861.653	3051
861.786	2971
861.918	2971
862.05	3047
862.183	3062
862.315	3146
862.447	3188
862.58	3066
862.712	2933
862.844	2834
862.976	3020
863.108	2998
863.24	3443
863.372	2899
863.504	2937
863.636	2948
863.768	3028
863.9	2971
864.032	2899
864.164	2929
864.296	2994
864.428	3020
864.559	3077
864.691	3058
864.823	3089
864.954	3043
865.086	3051
865.217	2971
865.349	2941
865.48	2982
865.612	3009
865.743	3123
865.875	2960
866.006	2937
866.137	2948
866.269	2933
866.4	2933
866.531	2952
866.662	2902
866.793	2880
866.924	2872
867.055	2944
867.186	2895
867.317	2857
867.448	2849
867.579	2819
867.71	2861
867.841	2849
867.972	2906
868.103	2891
868.233	2857
868.364	2849
868.495	2899
868.625	3093
868.756	3142
868.886	2944
869.017	3009
869.147	3154
869.278	3154
869.408	3020
869.539	3001
869.669	3104
869.799	3051
869.929	3123
870.06	3089
870.19	3313
870.32	3283
870.45	3264
870.58	3344
870.71	3431
870.84	3378
870.97	3279
871.1	3230
871.23	3473
871.36	3428
871.489	3317
871.619	3370
871.749	3405
871.879	3397
872.008	3477
872.138	3302
872.267	3230
872.397	3138
872.526	3077
872.656	3005
872.785	3112
872.915	3180
873.044	3325
873.173	3222
873.303	3233
873.432	3230
873.561	3233
873.69	3161
873.819	3116
873.948	3226
874.077	3097
874.206	3009
874.335	3077
874.464	3214
874.593	3336
874.722	3241
874.851	3389
874.979	3359
875.108	3348
875.237	3150
875.365	3214
875.494	3195
875.623	3272
875.751	3055
875.88	3093
876.008	3165
876.136	3264
876.265	3389
876.393	3500
876.521	3428
876.65	3351
876.778	3348
876.906	3268
877.034	3214
877.162	3264
877.29	3226
877.418	3226
877.546	3275
877.674	3256
877.802	3268
877.93	3260
878.058	3180
878.185	3138
878.313	3253
878.441	3233
878.568	3127
878.696	3184
878.824	3275
878.951	3367
879.079	3477
879.206	3686
879.333	3466
879.461	3367
879.588	3382
879.715	3477
879.842	3637
879.97	3420
880.097	3241
880.224	3165
880.351	3249
880.478	3256
880.605	3245
880.732	3256
880.859	3557
880.986	3325
881.112	3355
881.239	3260
881.366	3135
881.493	3074
881.619	3077
881.746	3123
881.872	3146
881.999	3165
882.125	3218
882.252	3283
882.378	3348
882.505	3469
882.631	3351
882.757	3211
882.883	3256
883.01	3233
883.136	3203
883.262	3108
883.388	3150
883.514	3382
883.64	3386
883.766	3374
883.892	3211
884.018	3264
884.143	3424
884.269	3591
884.395	3237
884.52	3230
884.646	3192
884.772	3142
884.897	3154
885.023	3287
885.148	3348
885.274	3412
885.399	3389
885.524	3302
885.65	3291
885.775	3317
885.9	3340
886.025	3454
886.15	3389
886.275	3329
886.4	3279
886.525	3321
886.65	3321
886.775	3344
886.9	3519
887.025	3660
887.149	3409
887.274	3306
887.399	3199
887.523	3195
887.648	3218
887.773	3214
887.897	3405
888.021	3420
888.146	3329
888.27	3466
888.395	3603
888.519	3496
888.643	3504
888.767	3500
888.891	3386
889.015	3272
889.139	3313
889.263	3253
889.387	3458
889.511	3523
889.635	3481
889.759	3332
889.883	3310
890.006	3424
890.13	3515
890.254	3313
890.377	3367
890.501	3214
890.624	3192
890.748	3313
890.871	3211
890.995	3161
891.118	3089
891.241	3195
891.364	3233
891.488	3321
891.611	3207
891.734	3272
891.857	3351
891.98	3260
892.103	3367
892.226	3317
892.349	3226
892.471	3142
892.594	3302
892.717	3325
892.839	3287
892.962	3325
893.085	3393
893.207	3294
893.33	3176
893.452	3226
893.575	3389
893.697	3272
893.819	3477
893.941	3515
894.064	3428
894.186	3294
894.308	3321
894.43	3450
894.552	3580
894.674	3492
894.796	3291
894.918	3313
895.04	3313
895.161	3473
895.283	3416
895.405	3336
895.526	3397
895.648	3443
895.769	3488
895.891	3526
896.012	3511
896.134	3507
896.255	3462
896.376	3401
896.498	3378
896.619	3492
896.74	3416
896.861	3405
896.982	3740
897.103	3857
897.224	3652
897.345	3530
897.466	3488
897.587	3519
897.708	3644
897.828	3610
897.949	3420
898.07	3348
898.19	3439
898.311	3644
898.431	3488
898.552	3500
898.672	3648
898.792	3591
898.913	3549
899.033	3439
899.153	3294
899.273	3245
899.393	3291
899.513	3317
899.633	3344
899.753	3367
899.873	3355
899.993	3386
900.113	3370
900.232	3420
900.352	3412
900.472	3329
900.591	3203
900.711	3374
900.83	3241
900.95	3412
901.069	3519
901.189	3386
901.308	3222
901.427	3165
901.546	3241
901.665	3313
901.784	3367
901.904	3245
902.023	3157
902.141	3047
902.26	3009
902.379	3195
902.498	3089
902.617	3066
902.735	3230
902.854	3253
902.973	3218
903.091	3085
903.21	3097
903.328	3180
903.446	3154
903.565	3116
903.683	3233
903.801	3180
903.919	3264
904.038	3317
904.156	3192
904.274	3317
904.392	3302
904.51	3321
904.627	3370
904.745	3469
904.863	3526
904.981	3275
905.098	3146
905.216	3268
905.334	3340
905.451	3321
905.569	3340
905.686	3450
905.803	3469
905.921	3313
906.038	3458
906.155	3416
906.272	3291
906.389	3378
906.506	3264
906.623	3264
906.74	3279
906.857	3222
906.974	3268
907.091	3507
907.208	3618
907.324	3504
907.441	3424
907.557	3272
907.674	3256
907.79	3226
907.907	3302
908.023	3435
908.139	3412
908.256	3386
908.372	3370
908.488	3374
908.604	3306
908.72	3268
908.836	3306
908.952	3272
909.068	3378
909.184	3496
909.3	3435
909.415	3515
909.531	3492
909.647	3317
909.762	3321
909.878	3302
909.993	3389
910.108	3359
910.224	3374
910.339	3412
910.454	3363
910.57	3317
910.685	3287
910.8	3614
910.915	3534
911.03	3439
911.145	3321
911.259	3283
911.374	3374
911.489	3294
911.604	3226
911.718	3108
911.833	3222
911.947	3066
912.062	2982
912.176	3192
912.291	3218
912.405	3237
912.519	3458
912.633	3504
912.748	3348
912.862	3291
912.976	3176
913.09	3097
913.204	3157
913.318	3237
913.431	3340
913.545	3325
913.659	3424
913.772	3378
913.886	3264
914	3207
914.113	3393
914.226	3428
914.34	3401
914.453	3192
914.566	3466
914.68	3302
914.793	3336
914.906	3169
915.019	3138
915.132	3058
915.245	3230
915.358	3222
915.47	3184
915.583	3268
915.696	3313
915.809	3405
915.921	3435
916.034	3275
916.146	3268
916.259	3249
916.371	3405
916.483	3378
916.595	3306
916.708	3389
916.82	3332
916.932	3355
917.044	3382
917.156	3348
917.268	3275
917.38	3321
917.491	3321
917.603	3412
917.715	3435
917.826	3500
917.938	3416
918.049	3329
918.161	3477
918.272	3614
918.384	3568
918.495	3538
918.606	3363
918.717	3272
918.828	3393
918.939	3428
919.05	3344
919.161	3416
919.272	3199
919.383	3294
919.494	3507
919.604	3690
919.715	3549
919.826	3431
919.936	3443
920.047	3595
920.157	3568
920.267	3774
920.378	3629
920.488	3603
920.598	3842
920.708	3926
920.818	3854
920.928	3857
921.038	4017
921.148	4006
921.258	3736
921.368	3660
921.477	3595
921.587	3572
921.697	3504
921.806	3686
921.916	3507
922.025	3386
922.134	3367
922.244	3291
922.353	3462
922.462	3283
922.571	3287
922.68	3138
922.789	3108
922.898	3157
923.007	3100
923.116	3241
923.224	3192
923.333	3207
923.442	3131
923.55	3127
923.659	3161
923.767	3233
923.876	3119
923.984	3230
924.092	3142
924.201	3211
924.309	3241
924.417	3298
924.525	3192
924.633	3260
924.741	4188
924.849	3055
924.956	3256
925.064	3104
925.172	3005
925.279	3108
925.387	3226
925.494	3184
925.602	3401
925.709	3367
925.816	3241
925.924	3264
926.031	3393
926.138	3378
926.245	3378
926.352	3283
926.459	3435
926.566	3500
926.673	3321
926.779	3264
926.886	3260
926.993	3157
927.099	3142
927.206	3135
927.312	3100
927.419	3199
927.525	3233
927.631	3272
927.737	3211
927.843	3146
927.95	3043
928.056	3146
928.162	3184
928.267	3253
928.373	3892
928.479	3348
928.585	3093
928.69	3241
928.796	3298
928.901	3150
929.007	3089
929.112	3199
929.218	3195
929.323	3184
929.428	3150
929.533	3310
929.638	3135
929.743	3169
929.848	3272
929.953	3226
930.058	3176
930.163	3028
930.267	3062
930.372	3180
930.477	3055
930.581	3370
930.685	3222
930.79	3058
930.894	3138
930.998	3123
931.103	3302
931.207	2948
931.311	2948
931.415	2944
931.519	2819
931.623	2819
