Data from test_V78500241_1665.txt Node
Date: Fri Mar 25 16:26:44 CST 2022
User: usil
Spectrometer: V785-0024
Trigger mode: 0
Integration Time (sec): 4.000000E-1
Scans to average: 1
Nonlinearity correction enabled: false
Boxcar width: 0
Storing dark spectrum: false
XAxis mode: Wavelengths
Number of Pixels in Spectrum: 1024
>>>>>Begin Spectral Data<<<<<
801.071	2883
801.214	2944
801.356	2872
801.499	2864
801.641	2872
801.783	2902
801.926	3055
802.068	3020
802.211	2952
802.353	3093
802.496	2922
802.638	3009
802.78	2990
802.923	3077
803.065	2998
803.208	2857
803.35	2933
803.492	2948
803.635	2914
803.777	2716
803.919	2845
804.061	3195
804.204	2963
804.346	2887
804.488	2834
804.63	2971
804.773	2883
804.915	2895
805.057	3097
805.199	2902
805.341	2979
805.483	3077
805.626	2990
805.768	2979
805.91	3089
806.052	3104
806.194	3013
806.336	3233
806.478	3005
806.62	2914
806.762	2914
806.904	3020
807.046	3112
807.188	2941
807.33	2910
807.472	2967
807.614	2895
807.756	2963
807.898	2925
808.04	2895
808.182	2986
808.324	2952
808.465	2868
808.607	2902
808.749	2773
808.891	2819
809.033	2982
809.174	2986
809.316	2868
809.458	2876
809.6	2750
809.741	2750
809.883	2754
810.025	2842
810.166	2804
810.308	2819
810.45	2876
810.591	2754
810.733	2739
810.875	2815
811.016	2796
811.158	2716
811.299	2815
811.441	2918
811.582	2887
811.724	2826
811.865	2815
812.007	2925
812.148	2849
812.29	2842
812.431	2864
812.573	2922
812.714	2925
812.855	3028
812.997	3058
813.138	3123
813.279	3009
813.421	2914
813.562	2960
813.703	2849
813.845	2883
813.986	2754
814.127	2716
814.268	2823
814.41	2834
814.551	2792
814.692	2880
814.833	2792
814.974	2849
815.115	2929
815.256	2807
815.397	2807
815.539	2849
815.68	2735
815.821	2766
815.962	2891
816.103	2891
816.244	2857
816.385	2891
816.526	2994
816.666	2902
816.807	2716
816.948	2838
817.089	2883
817.23	2845
817.371	2792
817.512	2792
817.653	2796
817.793	2800
817.934	2887
818.075	2963
818.216	2994
818.356	3009
818.497	2834
818.638	2777
818.778	2796
818.919	2788
819.06	2766
819.2	2872
819.341	2804
819.481	2758
819.622	2887
819.762	3074
819.903	2998
820.043	2902
820.184	2868
820.324	2876
820.465	2986
820.605	3013
820.746	3005
820.886	2906
821.026	3066
821.167	3123
821.307	3249
821.447	3253
821.588	3214
821.728	3154
821.868	3154
822.008	3085
822.149	3165
822.289	3207
822.429	3047
822.569	3077
822.709	3165
822.849	3028
822.99	3036
823.13	3180
823.27	3180
823.41	3081
823.55	3131
823.69	3119
823.83	3203
823.97	3097
824.11	3009
824.25	2963
824.389	3055
824.529	3100
824.669	3070
824.809	3192
824.949	3245
825.089	3211
825.228	3154
825.368	2986
825.508	2944
825.648	2937
825.787	3051
825.927	3024
826.067	2982
826.206	2975
826.346	3074
826.485	3112
826.625	3108
826.765	3264
826.904	3214
827.044	3001
827.183	2982
827.323	2902
827.462	3009
827.601	2925
827.741	2944
827.88	2975
828.02	2899
828.159	3039
828.298	3066
828.437	3116
828.577	3055
828.716	3283
828.855	3116
828.994	2956
829.134	2918
829.273	2956
829.412	2880
829.551	2887
829.69	2933
829.829	3032
829.968	3180
830.107	3070
830.246	3062
830.385	2963
830.524	2922
830.663	2861
830.802	2762
830.941	2697
831.08	2693
831.219	2777
831.357	2792
831.496	3001
831.635	2750
831.774	2682
831.913	2678
832.051	2583
832.19	2598
832.329	2727
832.467	2571
832.606	2522
832.744	2625
832.883	2587
833.022	2610
833.16	2663
833.299	2689
833.437	2731
833.576	2750
833.714	2746
833.852	2731
833.991	2807
834.129	2849
834.267	2849
834.406	2811
834.544	2948
834.682	2914
834.821	2899
834.959	3112
835.097	2929
835.235	3097
835.373	3024
835.511	3055
835.65	3013
835.788	3017
835.926	2872
836.064	2872
836.202	2872
836.34	3108
836.478	3173
836.615	3074
836.753	3150
836.891	3195
837.029	3218
837.167	3112
837.305	3089
837.443	3085
837.58	2994
837.718	3169
837.856	3108
837.993	3077
838.131	3119
838.269	3100
838.406	3123
838.544	3127
838.681	2948
838.819	2948
838.956	2823
839.094	2891
839.231	2944
839.369	3043
839.506	3409
839.643	3237
839.781	3085
839.918	2956
840.055	3066
840.193	3074
840.33	3085
840.467	3119
840.604	3157
840.742	3401
840.879	3104
841.016	3062
841.153	3146
841.29	3310
841.427	3294
841.564	3264
841.701	3340
841.838	3241
841.975	3207
842.112	3283
842.249	3119
842.385	3074
842.522	3306
842.659	3104
842.796	3047
842.933	3142
843.069	3081
843.206	3047
843.343	3214
843.479	3135
843.616	3161
843.752	2895
843.889	2861
844.025	3108
844.162	2880
844.298	3097
844.435	2975
844.571	2922
844.708	3116
844.844	3192
844.98	3249
845.117	3207
845.253	3070
845.389	3028
845.525	3097
845.661	3104
845.798	3017
845.934	3146
846.07	3074
846.206	3218
846.342	3306
846.478	3233
846.614	3081
846.75	3085
846.886	3024
847.022	3272
847.158	3173
847.294	3233
847.429	3268
847.565	3226
847.701	3492
847.837	3074
847.972	3020
848.108	3199
848.244	3207
848.379	3032
848.515	2944
848.65	2971
848.786	2990
848.921	3032
849.057	3123
849.192	3180
849.328	3100
849.463	3150
849.598	3077
849.734	3070
849.869	2990
850.004	2941
850.14	3005
850.275	2952
850.41	2864
850.545	2914
850.68	2990
850.815	2998
850.95	2994
851.085	3199
851.22	3135
851.355	3058
851.49	2967
851.625	3013
851.76	3020
851.895	2963
852.03	2937
852.165	3070
852.299	3135
852.434	3230
852.569	3188
852.703	3188
852.838	3298
852.973	3355
853.107	3363
853.242	3161
853.376	3097
853.511	3009
853.645	3047
853.78	3268
853.914	3116
854.048	3150
854.183	3097
854.317	3165
854.451	3344
854.585	3116
854.72	3097
854.854	3230
854.988	3104
855.122	3097
855.256	3009
855.39	3154
855.524	3272
855.658	3192
855.792	3180
855.926	3241
856.06	3287
856.194	3256
856.327	3184
856.461	3116
856.595	3135
856.729	3116
856.862	3256
856.996	3161
857.13	3214
857.263	3260
857.397	3306
857.53	3138
857.664	3241
857.797	3256
857.931	3264
858.064	3195
858.197	3264
858.331	3142
858.464	3116
858.597	3074
858.731	3146
858.864	3150
858.997	3112
859.13	3161
859.263	3188
859.396	3203
859.529	3097
859.662	3104
859.795	3104
859.928	3184
860.061	3298
860.194	3294
860.327	3150
860.46	3089
860.592	3233
860.725	3321
860.858	3241
860.99	3146
861.123	3085
861.256	3062
861.388	3142
861.521	3835
861.653	3058
861.786	3024
861.918	3032
862.05	3081
862.183	3135
862.315	3184
862.447	3203
862.58	3135
862.712	2979
862.844	2902
862.976	3051
863.108	3058
863.24	3443
863.372	2899
863.504	2971
863.636	2952
863.768	3051
863.9	2998
864.032	2937
864.164	2986
864.296	3020
864.428	3123
864.559	3119
864.691	3085
864.823	3066
864.954	3066
865.086	3081
865.217	3020
865.349	2975
865.48	3039
865.612	3043
865.743	3192
865.875	2994
866.006	2956
866.137	2986
866.269	2956
866.4	2952
866.531	2952
866.662	2914
866.793	2922
866.924	2906
867.055	2998
867.186	2982
867.317	2918
867.448	2826
867.579	2883
867.71	2902
867.841	2800
867.972	2906
868.103	2906
868.233	2914
868.364	2902
868.495	2944
868.625	3104
868.756	3207
868.886	2994
869.017	3024
869.147	3226
869.278	3192
869.408	3066
869.539	3009
869.669	3089
869.799	3081
869.929	3142
870.06	3157
870.19	3310
870.32	3325
870.45	3298
870.58	3386
870.71	3439
870.84	3447
870.97	3317
871.1	3249
871.23	3496
871.36	3450
871.489	3363
871.619	3405
871.749	3420
871.879	3420
872.008	3500
872.138	3397
872.267	3302
872.397	3150
872.526	3123
872.656	3032
872.785	3131
872.915	3241
873.044	3348
873.173	3226
873.303	3260
873.432	3260
873.561	3272
873.69	3161
873.819	3165
873.948	3226
874.077	3131
874.206	3108
874.335	3123
874.464	3272
874.593	3374
874.722	3226
874.851	3401
874.979	3370
875.108	3355
875.237	3207
875.365	3127
875.494	3203
875.623	3245
875.751	3119
875.88	3127
876.008	3180
876.136	3230
876.265	3351
876.393	3511
876.521	3412
876.65	3393
876.778	3340
876.906	3264
877.034	3192
877.162	3237
877.29	3207
877.418	3272
877.546	3298
877.674	3272
877.802	3260
877.93	3218
878.058	3150
878.185	3131
878.313	3279
878.441	3222
878.568	3093
878.696	3123
878.824	3279
878.951	3355
879.079	3458
879.206	3614
879.333	3477
879.461	3351
879.588	3405
879.715	3507
879.842	3610
879.97	3389
880.097	3199
880.224	3123
880.351	3214
880.478	3230
880.605	3226
880.732	3188
880.859	3496
880.986	3336
881.112	3344
881.239	3207
881.366	3127
881.493	3100
881.619	3036
881.746	3066
881.872	3123
881.999	3154
882.125	3188
882.252	3226
882.378	3329
882.505	3431
882.631	3321
882.757	3138
882.883	3241
883.01	3237
883.136	3176
883.262	3108
883.388	3119
883.514	3351
883.64	3374
883.766	3336
883.892	3169
884.018	3253
884.143	3374
884.269	3591
884.395	3241
884.52	3169
884.646	3199
884.772	3119
884.897	3097
885.023	3241
885.148	3363
885.274	3454
885.399	3382
885.524	3321
885.65	3283
885.775	3332
885.9	3283
886.025	3450
886.15	3370
886.275	3287
886.4	3241
886.525	3306
886.65	3306
886.775	3294
886.9	3511
887.025	3679
887.149	3447
887.274	3329
887.399	3192
887.523	3195
887.648	3207
887.773	3241
887.897	3374
888.021	3420
888.146	3287
888.27	3443
888.395	3561
888.519	3454
888.643	3431
888.767	3485
888.891	3332
889.015	3241
889.139	3291
889.263	3241
889.387	3443
889.511	3519
889.635	3473
889.759	3317
889.883	3336
890.006	3401
890.13	3473
890.254	3329
890.377	3329
890.501	3199
890.624	3211
890.748	3298
890.871	3203
890.995	3165
891.118	3074
891.241	3226
891.364	3241
891.488	3313
891.611	3180
891.734	3226
891.857	3294
891.98	3249
892.103	3329
892.226	3302
892.349	3214
892.471	3123
892.594	3226
892.717	3279
892.839	3275
892.962	3321
893.085	3386
893.207	3313
893.33	3154
893.452	3230
893.575	3294
893.697	3264
893.819	3488
893.941	3496
894.064	3454
894.186	3275
894.308	3268
894.43	3477
894.552	3507
894.674	3431
894.796	3245
894.918	3332
895.04	3287
895.161	3439
895.283	3416
895.405	3336
895.526	3378
895.648	3386
895.769	3409
895.891	3462
896.012	3485
896.134	3473
896.255	3424
896.376	3401
896.498	3370
896.619	3431
896.74	3382
896.861	3397
896.982	3701
897.103	3861
897.224	3618
897.345	3526
897.466	3435
897.587	3473
897.708	3610
897.828	3561
897.949	3447
898.07	3321
898.19	3420
898.311	3603
898.431	3447
898.552	3519
898.672	3534
898.792	3568
898.913	3492
899.033	3458
899.153	3325
899.273	3199
899.393	3260
899.513	3325
899.633	3302
899.753	3332
899.873	3302
899.993	3386
900.113	3302
900.232	3397
900.352	3367
900.472	3298
900.591	3184
900.711	3332
900.83	3245
900.95	3386
901.069	3485
901.189	3336
901.308	3203
901.427	3142
901.546	3203
901.665	3275
901.784	3325
901.904	3237
902.023	3165
902.141	3036
902.26	3001
902.379	3157
902.498	3066
902.617	3047
902.735	3214
902.854	3245
902.973	3150
903.091	3047
903.21	3051
903.328	3142
903.446	3104
903.565	3085
903.683	3192
903.801	3135
903.919	3222
904.038	3313
904.156	3157
904.274	3249
904.392	3275
904.51	3329
904.627	3344
904.745	3466
904.863	3473
904.981	3275
905.098	3192
905.216	3272
905.334	3359
905.451	3336
905.569	3313
905.686	3458
905.803	3458
905.921	3310
906.038	3477
906.155	3367
906.272	3294
906.389	3355
906.506	3256
906.623	3302
906.74	3302
906.857	3226
906.974	3249
907.091	3492
907.208	3614
907.324	3507
907.441	3378
907.557	3268
907.674	3302
907.79	3214
907.907	3291
908.023	3397
908.139	3416
908.256	3374
908.372	3409
908.488	3370
908.604	3302
908.72	3275
908.836	3313
908.952	3348
909.068	3363
909.184	3538
909.3	3420
909.415	3542
909.531	3523
909.647	3336
909.762	3359
909.878	3344
909.993	3386
910.108	3397
910.224	3428
910.339	3504
910.454	3355
910.57	3336
910.685	3264
910.8	3652
910.915	3553
911.03	3462
911.145	3294
911.259	3321
911.374	3344
911.489	3272
911.604	3256
911.718	3146
911.833	3165
911.947	3077
912.062	3058
912.176	3188
912.291	3226
912.405	3211
912.519	3466
912.633	3542
912.748	3325
912.862	3325
912.976	3199
913.09	3108
913.204	3176
913.318	3260
913.431	3412
913.545	3386
913.659	3481
913.772	3355
913.886	3264
914	3253
914.113	3416
914.226	3458
914.34	3431
914.453	3233
914.566	3447
914.68	3279
914.793	3321
914.906	3176
915.019	3150
915.132	3112
915.245	3203
915.358	3230
915.47	3272
915.583	3321
915.696	3359
915.809	3405
915.921	3420
916.034	3325
916.146	3329
916.259	3237
916.371	3428
916.483	3355
916.595	3287
916.708	3370
916.82	3355
916.932	3386
917.044	3363
917.156	3405
917.268	3306
917.38	3359
917.491	3351
917.603	3420
917.715	3481
917.826	3507
917.938	3454
918.049	3321
918.161	3485
918.272	3576
918.384	3564
918.495	3534
918.606	3378
918.717	3306
918.828	3420
918.939	3454
919.05	3367
919.161	3389
919.272	3192
919.383	3317
919.494	3538
919.604	3701
919.715	3496
919.826	3424
919.936	3519
920.047	3629
920.157	3603
920.267	3823
920.378	3633
920.488	3599
920.598	3823
920.708	4002
920.818	3838
920.928	3869
921.038	4036
921.148	4071
921.258	3724
921.368	3675
921.477	3614
921.587	3568
921.697	3526
921.806	3675
921.916	3561
922.025	3382
922.134	3367
922.244	3359
922.353	3458
922.462	3279
922.571	3272
922.68	3157
922.789	3135
922.898	3161
923.007	3119
923.116	3226
923.224	3260
923.333	3214
923.442	3104
923.55	3157
923.659	3138
923.767	3268
923.876	3150
923.984	3268
924.092	3154
924.201	3268
924.309	3226
924.417	3272
924.525	3214
924.633	3260
924.741	4257
924.849	3077
924.956	3272
925.064	3131
925.172	3085
925.279	3135
925.387	3237
925.494	3214
925.602	3389
925.709	3382
925.816	3192
925.924	3272
926.031	3416
926.138	3348
926.245	3397
926.352	3310
926.459	3431
926.566	3500
926.673	3348
926.779	3268
926.886	3298
926.993	3188
927.099	3173
927.206	3119
927.312	3119
927.419	3294
927.525	3218
927.631	3298
927.737	3195
927.843	3173
927.95	3058
928.056	3214
928.162	3214
928.267	3294
928.373	3819
928.479	3325
928.585	3085
928.69	3249
928.796	3306
928.901	3207
929.007	3066
929.112	3226
929.218	3222
929.323	3188
929.428	3195
929.533	3355
929.638	3142
929.743	3230
929.848	3275
929.953	3233
930.058	3173
930.163	3020
930.267	3097
930.372	3218
930.477	3081
930.581	3382
930.685	3207
930.79	3116
930.894	3176
930.998	3108
931.103	3313
931.207	2956
931.311	2971
931.415	2948
931.519	2796
931.623	2830
