Data from test_V78500241_1761.txt Node
Date: Fri Mar 25 16:27:24 CST 2022
User: usil
Spectrometer: V785-0024
Trigger mode: 0
Integration Time (sec): 4.000000E-1
Scans to average: 1
Nonlinearity correction enabled: false
Boxcar width: 0
Storing dark spectrum: false
XAxis mode: Wavelengths
Number of Pixels in Spectrum: 1024
>>>>>Begin Spectral Data<<<<<
801.071	2918
801.214	2948
801.356	2861
801.499	2880
801.641	2883
801.783	2918
801.926	3036
802.068	2998
802.211	3020
802.353	2986
802.496	2910
802.638	3009
802.78	3028
802.923	3085
803.065	3013
803.208	2883
803.35	2918
803.492	2895
803.635	2895
803.777	2758
803.919	2842
804.061	3173
804.204	2902
804.346	2902
804.488	2830
804.63	3009
804.773	2849
804.915	2906
805.057	3062
805.199	2937
805.341	2986
805.483	3001
805.626	2990
805.768	2975
805.91	3039
806.052	3123
806.194	3020
806.336	3203
806.478	2982
806.62	2975
806.762	2963
806.904	3043
807.046	3146
807.188	3005
807.33	2910
807.472	2994
807.614	2906
807.756	3005
807.898	2929
808.04	2895
808.182	2967
808.324	2948
808.465	2861
808.607	2891
808.749	2796
808.891	2845
809.033	3001
809.174	2963
809.316	2910
809.458	2868
809.6	2792
809.741	2769
809.883	2815
810.025	2811
810.166	2876
810.308	2838
810.45	2849
810.591	2773
810.733	2746
810.875	2842
811.016	2750
811.158	2777
811.299	2826
811.441	2952
811.582	2868
811.724	2819
811.865	2857
812.007	2906
812.148	2876
812.29	2857
812.431	2906
812.573	2960
812.714	2925
812.855	3039
812.997	3009
813.138	3112
813.279	3013
813.421	2998
813.562	2944
813.703	2880
813.845	2880
813.986	2823
814.127	2720
814.268	2830
814.41	2845
814.551	2815
814.692	2876
814.833	2819
814.974	2876
815.115	2975
815.256	2823
815.397	2781
815.539	2857
815.68	2746
815.821	2800
815.962	2929
816.103	2918
816.244	2861
816.385	2868
816.526	2933
816.666	2929
816.807	2769
816.948	2861
817.089	2880
817.23	2861
817.371	2769
817.512	2826
817.653	2845
817.793	2838
817.934	2842
818.075	2971
818.216	2979
818.356	2979
818.497	2918
818.638	2746
818.778	2811
818.919	2819
819.06	2731
819.2	2868
819.341	2815
819.481	2815
819.622	2914
819.762	3119
819.903	3032
820.043	2937
820.184	2895
820.324	2937
820.465	2982
820.605	3024
820.746	3028
820.886	2933
821.026	3089
821.167	3119
821.307	3279
821.447	3233
821.588	3241
821.728	3230
821.868	3157
822.008	3055
822.149	3180
822.289	3230
822.429	3062
822.569	3085
822.709	3157
822.849	3017
822.99	3066
823.13	3161
823.27	3180
823.41	3097
823.55	3169
823.69	3135
823.83	3188
823.97	3116
824.11	3020
824.25	2937
824.389	3074
824.529	3100
824.669	3055
824.809	3184
824.949	3226
825.089	3230
825.228	3161
825.368	2952
825.508	2929
825.648	2948
825.787	2998
825.927	3024
826.067	2952
826.206	2948
826.346	3013
826.485	3074
826.625	3127
826.765	3291
826.904	3199
827.044	2971
827.183	2941
827.323	2830
827.462	3005
827.601	2937
827.741	2910
827.88	2952
828.02	2838
828.159	2986
828.298	3001
828.437	3135
828.577	2998
828.716	3237
828.855	3039
828.994	2925
829.134	2880
829.273	2902
829.412	2853
829.551	2826
829.69	2853
829.829	2960
829.968	3089
830.107	3009
830.246	3009
830.385	2922
830.524	2902
830.663	2807
830.802	2716
830.941	2632
831.08	2629
831.219	2758
831.357	2720
831.496	2960
831.635	2705
831.774	2640
831.913	2655
832.051	2522
832.19	2560
832.329	2693
832.467	2530
832.606	2499
832.744	2598
832.883	2575
833.022	2568
833.16	2655
833.299	2667
833.437	2674
833.576	2712
833.714	2716
833.852	2697
833.991	2735
834.129	2811
834.267	2834
834.406	2781
834.544	2864
834.682	2861
834.821	2845
834.959	3070
835.097	2872
835.235	3089
835.373	2971
835.511	2998
835.65	2941
835.788	2952
835.926	2842
836.064	2811
836.202	2857
836.34	3104
836.478	3184
836.615	3028
836.753	3150
836.891	3199
837.029	3165
837.167	3093
837.305	3039
837.443	3024
837.58	2982
837.718	3135
837.856	3062
837.993	3020
838.131	3112
838.269	3119
838.406	3123
838.544	3058
838.681	2937
838.819	2922
838.956	2819
839.094	2819
839.231	2956
839.369	3017
839.506	3378
839.643	3233
839.781	3013
839.918	2948
840.055	3017
840.193	3024
840.33	3085
840.467	3077
840.604	3142
840.742	3401
840.879	3032
841.016	2998
841.153	3089
841.29	3340
841.427	3313
841.564	3260
841.701	3313
841.838	3249
841.975	3146
842.112	3192
842.249	3036
842.385	3055
842.522	3241
842.659	3058
842.796	3058
842.933	3093
843.069	3047
843.206	3020
843.343	3169
843.479	3116
843.616	3104
843.752	2857
843.889	2849
844.025	3074
844.162	2872
844.298	3070
844.435	2929
844.571	2933
844.708	3070
844.844	3150
844.98	3207
845.117	3203
845.253	3032
845.389	3009
845.525	3058
845.661	3116
845.798	3009
845.934	3093
846.07	3062
846.206	3211
846.342	3294
846.478	3222
846.614	3085
846.75	3047
846.886	3036
847.022	3233
847.158	3138
847.294	3192
847.429	3237
847.565	3207
847.701	3485
847.837	3020
847.972	3005
848.108	3131
848.244	3157
848.379	2963
848.515	2922
848.65	2918
848.786	2990
848.921	2990
849.057	3108
849.192	3127
849.328	3074
849.463	3131
849.598	3047
849.734	3032
849.869	3001
850.004	2887
850.14	2975
850.275	2941
850.41	2823
850.545	2864
850.68	2933
850.815	2933
850.95	2952
851.085	3165
851.22	3100
851.355	3047
851.49	2971
851.625	2944
851.76	3020
851.895	2944
852.03	2910
852.165	3043
852.299	3085
852.434	3199
852.569	3135
852.703	3150
852.838	3226
852.973	3336
853.107	3317
853.242	3123
853.376	3104
853.511	2956
853.645	3032
853.78	3184
853.914	3123
854.048	3100
854.183	3074
854.317	3176
854.451	3272
854.585	3100
854.72	3089
854.854	3173
854.988	3017
855.122	3077
855.256	2944
855.39	3077
855.524	3192
855.658	3135
855.792	3176
855.926	3180
856.06	3218
856.194	3253
856.327	3154
856.461	3070
856.595	3047
856.729	3081
856.862	3184
856.996	3157
857.13	3146
857.263	3211
857.397	3268
857.53	3150
857.664	3192
857.797	3249
857.931	3268
858.064	3161
858.197	3192
858.331	3119
858.464	3100
858.597	3017
858.731	3093
858.864	3108
858.997	3077
859.13	3161
859.263	3150
859.396	3165
859.529	3077
859.662	3077
859.795	3013
859.928	3142
860.061	3264
860.194	3275
860.327	3135
860.46	3081
860.592	3199
860.725	3203
860.858	3230
860.99	3116
861.123	3020
861.256	3062
861.388	3123
861.521	3838
861.653	3036
861.786	2994
861.918	2971
862.05	3066
862.183	3104
862.315	3157
862.447	3188
862.58	3066
862.712	2979
862.844	2861
862.976	3039
863.108	3017
863.24	3336
863.372	2849
863.504	2948
863.636	2952
863.768	3020
863.9	2971
864.032	2872
864.164	2944
864.296	3013
864.428	3032
864.559	3097
864.691	3070
864.823	3074
864.954	3036
865.086	3055
865.217	2986
865.349	2956
865.48	2975
865.612	2994
865.743	3199
865.875	2944
866.006	2937
866.137	2971
866.269	2918
866.4	2922
866.531	2883
866.662	2868
866.793	2891
866.924	2899
867.055	2960
867.186	2971
867.317	2861
867.448	2815
867.579	2830
867.71	2842
867.841	2807
867.972	2887
868.103	2887
868.233	2887
868.364	2868
868.495	2864
868.625	3077
868.756	3169
868.886	2979
869.017	3009
869.147	3154
869.278	3154
869.408	3043
869.539	2998
869.669	3081
869.799	3017
869.929	3142
870.06	3123
870.19	3344
870.32	3268
870.45	3279
870.58	3363
870.71	3462
870.84	3420
870.97	3249
871.1	3245
871.23	3458
871.36	3447
871.489	3306
871.619	3397
871.749	3409
871.879	3443
872.008	3466
872.138	3340
872.267	3256
872.397	3093
872.526	3100
872.656	2982
872.785	3089
872.915	3222
873.044	3329
873.173	3192
873.303	3237
873.432	3241
873.561	3253
873.69	3176
873.819	3154
873.948	3207
874.077	3100
874.206	3047
874.335	3100
874.464	3218
874.593	3325
874.722	3207
874.851	3359
874.979	3325
875.108	3317
875.237	3195
875.365	3184
875.494	3165
875.623	3218
875.751	3055
875.88	3127
876.008	3169
876.136	3211
876.265	3386
876.393	3500
876.521	3462
876.65	3393
876.778	3359
876.906	3233
877.034	3173
877.162	3226
877.29	3173
877.418	3249
877.546	3188
877.674	3245
877.802	3264
877.93	3222
878.058	3127
878.185	3070
878.313	3169
878.441	3173
878.568	3051
878.696	3135
878.824	3260
878.951	3336
879.079	3469
879.206	3618
879.333	3416
879.461	3359
879.588	3340
879.715	3492
879.842	3568
879.97	3355
880.097	3188
880.224	3131
880.351	3176
880.478	3199
880.605	3188
880.732	3176
880.859	3496
880.986	3245
881.112	3306
881.239	3173
881.366	3058
881.493	3028
881.619	3028
881.746	3074
881.872	3116
881.999	3055
882.125	3146
882.252	3253
882.378	3302
882.505	3393
882.631	3245
882.757	3108
882.883	3214
883.01	3199
883.136	3161
883.262	3093
883.388	3119
883.514	3298
883.64	3416
883.766	3272
883.892	3195
884.018	3195
884.143	3386
884.269	3553
884.395	3150
884.52	3195
884.646	3214
884.772	3116
884.897	3112
885.023	3222
885.148	3298
885.274	3382
885.399	3355
885.524	3268
885.65	3245
885.775	3348
885.9	3294
886.025	3424
886.15	3355
886.275	3310
886.4	3226
886.525	3268
886.65	3268
886.775	3241
886.9	3526
887.025	3652
887.149	3412
887.274	3230
887.399	3169
887.523	3180
887.648	3165
887.773	3165
887.897	3363
888.021	3382
888.146	3298
888.27	3435
888.395	3519
888.519	3401
888.643	3469
888.767	3435
888.891	3291
889.015	3226
889.139	3310
889.263	3241
889.387	3386
889.511	3469
889.635	3447
889.759	3291
889.883	3294
890.006	3382
890.13	3496
890.254	3253
890.377	3344
890.501	3184
890.624	3192
890.748	3325
890.871	3157
890.995	3097
891.118	3043
891.241	3165
891.364	3222
891.488	3260
891.611	3169
891.734	3207
891.857	3253
891.98	3218
892.103	3317
892.226	3283
892.349	3211
892.471	3081
892.594	3180
892.717	3283
892.839	3264
892.962	3298
893.085	3363
893.207	3298
893.33	3127
893.452	3199
893.575	3291
893.697	3268
893.819	3458
893.941	3488
894.064	3420
894.186	3268
894.308	3245
894.43	3450
894.552	3511
894.674	3458
894.796	3291
894.918	3306
895.04	3291
895.161	3412
895.283	3370
895.405	3287
895.526	3367
895.648	3424
895.769	3401
895.891	3435
896.012	3473
896.134	3443
896.255	3382
896.376	3363
896.498	3370
896.619	3412
896.74	3351
896.861	3416
896.982	3660
897.103	3816
897.224	3591
897.345	3504
897.466	3420
897.587	3428
897.708	3618
897.828	3519
897.949	3412
898.07	3302
898.19	3409
898.311	3542
898.431	3469
898.552	3469
898.672	3587
898.792	3587
898.913	3492
899.033	3374
899.153	3294
899.273	3222
899.393	3249
899.513	3268
899.633	3283
899.753	3302
899.873	3302
899.993	3336
900.113	3283
900.232	3409
900.352	3340
900.472	3275
900.591	3188
900.711	3283
900.83	3214
900.95	3386
901.069	3481
901.189	3378
901.308	3176
901.427	3154
901.546	3165
901.665	3302
901.784	3348
901.904	3165
902.023	3112
902.141	2994
902.26	2948
902.379	3150
902.498	3058
902.617	3032
902.735	3245
902.854	3256
902.973	3192
903.091	3028
903.21	3047
903.328	3142
903.446	3116
903.565	3074
903.683	3199
903.801	3138
903.919	3264
904.038	3245
904.156	3180
904.274	3237
904.392	3279
904.51	3268
904.627	3344
904.745	3401
904.863	3485
904.981	3268
905.098	3169
905.216	3253
905.334	3302
905.451	3291
905.569	3264
905.686	3412
905.803	3416
905.921	3287
906.038	3412
906.155	3370
906.272	3241
906.389	3317
906.506	3241
906.623	3211
906.74	3245
906.857	3157
906.974	3222
907.091	3412
907.208	3576
907.324	3458
907.441	3389
907.557	3218
907.674	3268
907.79	3180
907.907	3260
908.023	3332
908.139	3336
908.256	3302
908.372	3359
908.488	3336
908.604	3249
908.72	3249
908.836	3272
908.952	3275
909.068	3344
909.184	3481
909.3	3397
909.415	3466
909.531	3447
909.647	3214
909.762	3283
909.878	3272
909.993	3298
910.108	3351
910.224	3329
910.339	3431
910.454	3325
910.57	3260
910.685	3256
910.8	3572
910.915	3526
911.03	3447
911.145	3260
911.259	3264
911.374	3332
911.489	3226
911.604	3237
911.718	3131
911.833	3119
911.947	3005
912.062	2982
912.176	3169
912.291	3176
912.405	3203
912.519	3420
912.633	3473
912.748	3348
912.862	3298
912.976	3192
913.09	3100
913.204	3146
913.318	3230
913.431	3386
913.545	3351
913.659	3401
913.772	3382
913.886	3253
914	3226
914.113	3359
914.226	3370
914.34	3389
914.453	3253
914.566	3409
914.68	3332
914.793	3344
914.906	3169
915.019	3165
915.132	3138
915.245	3192
915.358	3233
915.47	3256
915.583	3344
915.696	3348
915.809	3469
915.921	3488
916.034	3283
916.146	3283
916.259	3294
916.371	3428
916.483	3389
916.595	3268
916.708	3405
916.82	3351
916.932	3431
917.044	3344
917.156	3420
917.268	3287
917.38	3317
917.491	3329
917.603	3382
917.715	3496
917.826	3511
917.938	3409
918.049	3317
918.161	3466
918.272	3633
918.384	3622
918.495	3481
918.606	3382
918.717	3340
918.828	3412
918.939	3439
919.05	3370
919.161	3412
919.272	3260
919.383	3310
919.494	3523
919.604	3724
919.715	3542
919.826	3462
919.936	3485
920.047	3595
920.157	3545
920.267	3800
920.378	3606
920.488	3629
920.598	3865
920.708	3998
920.818	3838
920.928	3835
921.038	4063
921.148	4029
921.258	3724
921.368	3698
921.477	3629
921.587	3587
921.697	3466
921.806	3663
921.916	3526
922.025	3367
922.134	3389
922.244	3336
922.353	3473
922.462	3302
922.571	3237
922.68	3127
922.789	3085
922.898	3173
923.007	3146
923.116	3226
923.224	3176
923.333	3226
923.442	3104
923.55	3097
923.659	3211
923.767	3230
923.876	3150
923.984	3256
924.092	3138
924.201	3253
924.309	3233
924.417	3256
924.525	3256
924.633	3268
924.741	4074
924.849	3085
924.956	3287
925.064	3123
925.172	3051
925.279	3154
925.387	3207
925.494	3218
925.602	3363
925.709	3359
925.816	3203
925.924	3310
926.031	3378
926.138	3351
926.245	3439
926.352	3279
926.459	3443
926.566	3507
926.673	3344
926.779	3291
926.886	3272
926.993	3169
927.099	3188
927.206	3169
927.312	3154
927.419	3272
927.525	3214
927.631	3329
927.737	3169
927.843	3176
927.95	3047
928.056	3142
928.162	3237
928.267	3279
928.373	3861
928.479	3367
928.585	3116
928.69	3253
928.796	3291
928.901	3203
929.007	3066
929.112	3245
929.218	3192
929.323	3199
929.428	3173
929.533	3351
929.638	3157
929.743	3188
929.848	3291
929.953	3275
930.058	3195
930.163	3051
930.267	3089
930.372	3256
930.477	3051
930.581	3332
930.685	3173
930.79	3081
930.894	3138
930.998	3116
931.103	3298
931.207	3005
931.311	3013
931.415	2944
931.519	2800
931.623	2868
