Data from test_V78500241_445.txt Node
Date: Fri Mar 25 16:18:17 CST 2022
User: usil
Spectrometer: V785-0024
Trigger mode: 0
Integration Time (sec): 4.000000E-1
Scans to average: 1
Nonlinearity correction enabled: false
Boxcar width: 0
Storing dark spectrum: false
XAxis mode: Wavelengths
Number of Pixels in Spectrum: 1024
>>>>>Begin Spectral Data<<<<<
801.071	2948
801.214	2979
801.356	2868
801.499	2910
801.641	2887
801.783	2944
801.926	3028
802.068	2967
802.211	3036
802.353	3066
802.496	2982
802.638	3081
802.78	3097
802.923	3058
803.065	3039
803.208	2937
803.35	2929
803.492	2982
803.635	2944
803.777	2788
803.919	2883
804.061	3184
804.204	3001
804.346	2948
804.488	2849
804.63	2990
804.773	2883
804.915	2960
805.057	3100
805.199	2952
805.341	2967
805.483	3085
805.626	3028
805.768	2971
805.91	3127
806.052	3116
806.194	3005
806.336	3230
806.478	3005
806.62	2956
806.762	3009
806.904	3089
807.046	3184
807.188	3009
807.33	2956
807.472	3055
807.614	2929
807.756	2986
807.898	2941
808.04	2914
808.182	3009
808.324	2948
808.465	2899
808.607	2872
808.749	2800
808.891	2899
809.033	2956
809.174	3001
809.316	2902
809.458	2918
809.6	2796
809.741	2769
809.883	2777
810.025	2895
810.166	2872
810.308	2842
810.45	2872
810.591	2800
810.733	2777
810.875	2845
811.016	2777
811.158	2724
811.299	2823
811.441	2948
811.582	2933
811.724	2864
811.865	2849
812.007	2937
812.148	2918
812.29	2868
812.431	2941
812.573	2937
812.714	2975
812.855	3051
812.997	3047
813.138	3116
813.279	3043
813.421	2982
813.562	2975
813.703	2883
813.845	2902
813.986	2773
814.127	2735
814.268	2815
814.41	2853
814.551	2853
814.692	2864
814.833	2826
814.974	2895
815.115	2967
815.256	2845
815.397	2826
815.539	2872
815.68	2762
815.821	2826
815.962	2967
816.103	2967
816.244	2895
816.385	2883
816.526	2971
816.666	2929
816.807	2754
816.948	2868
817.089	2872
817.23	2868
817.371	2807
817.512	2769
817.653	2834
817.793	2845
817.934	2883
818.075	2948
818.216	3005
818.356	3039
818.497	2864
818.638	2785
818.778	2819
818.919	2807
819.06	2754
819.2	2853
819.341	2815
819.481	2826
819.622	2933
819.762	3097
819.903	3051
820.043	2922
820.184	2895
820.324	2952
820.465	3020
820.605	3039
820.746	3032
820.886	2933
821.026	3112
821.167	3199
821.307	3291
821.447	3298
821.588	3294
821.728	3195
821.868	3230
822.008	3108
822.149	3165
822.289	3264
822.429	3135
822.569	3089
822.709	3195
822.849	3009
822.99	3097
823.13	3157
823.27	3199
823.41	3077
823.55	3150
823.69	3161
823.83	3207
823.97	3112
824.11	3005
824.25	3024
824.389	3036
824.529	3146
824.669	3081
824.809	3211
824.949	3260
825.089	3245
825.228	3138
825.368	3013
825.508	3005
825.648	2971
825.787	3009
825.927	3017
826.067	2994
826.206	2960
826.346	3043
826.485	3097
826.625	3119
826.765	3256
826.904	3218
827.044	2986
827.183	2922
827.323	2857
827.462	2975
827.601	2902
827.741	2937
827.88	2960
828.02	2861
828.159	2963
828.298	3062
828.437	3104
828.577	3077
828.716	3260
828.855	3089
828.994	2944
829.134	2849
829.273	2922
829.412	2853
829.551	2868
829.69	2857
829.829	3013
829.968	3146
830.107	3020
830.246	3013
830.385	2925
830.524	2864
830.663	2792
830.802	2754
830.941	2644
831.08	2659
831.219	2762
831.357	2743
831.496	2963
831.635	2724
831.774	2655
831.913	2667
832.051	2571
832.19	2590
832.329	2697
832.467	2533
832.606	2469
832.744	2602
832.883	2568
833.022	2594
833.16	2640
833.299	2693
833.437	2705
833.576	2712
833.714	2739
833.852	2773
833.991	2773
834.129	2845
834.267	2849
834.406	2811
834.544	2899
834.682	2929
834.821	2899
834.959	3055
835.097	2872
835.235	3085
835.373	3005
835.511	3009
835.65	2990
835.788	2963
835.926	2811
836.064	2773
836.202	2811
836.34	3112
836.478	3180
836.615	3055
836.753	3127
836.891	3241
837.029	3146
837.167	3100
837.305	3093
837.443	3047
837.58	2975
837.718	3146
837.856	3062
837.993	3017
838.131	3104
838.269	3104
838.406	3081
838.544	3093
838.681	2925
838.819	2929
838.956	2826
839.094	2830
839.231	2914
839.369	3032
839.506	3420
839.643	3233
839.781	2994
839.918	2956
840.055	2998
840.193	3039
840.33	3074
840.467	3062
840.604	3142
840.742	3382
840.879	3081
841.016	3043
841.153	3116
841.29	3332
841.427	3294
841.564	3233
841.701	3332
841.838	3218
841.975	3192
842.112	3195
842.249	3089
842.385	3043
842.522	3253
842.659	3089
842.796	3062
842.933	3066
843.069	3024
843.206	3058
843.343	3169
843.479	3116
843.616	3131
843.752	2880
843.889	2868
844.025	3062
844.162	2872
844.298	3058
844.435	2925
844.571	2952
844.708	3070
844.844	3169
844.98	3222
845.117	3192
845.253	3043
845.389	3013
845.525	3089
845.661	3097
845.798	3024
845.934	3108
846.07	3081
846.206	3207
846.342	3283
846.478	3253
846.614	3070
846.75	3036
846.886	3028
847.022	3260
847.158	3135
847.294	3173
847.429	3249
847.565	3245
847.701	3481
847.837	3036
847.972	2998
848.108	3150
848.244	3150
848.379	2960
848.515	2937
848.65	2925
848.786	2967
848.921	3005
849.057	3116
849.192	3161
849.328	3116
849.463	3119
849.598	3085
849.734	3013
849.869	2956
850.004	2914
850.14	2963
850.275	2925
850.41	2819
850.545	2941
850.68	2948
850.815	2925
850.95	3013
851.085	3157
851.22	3150
851.355	3024
851.49	2994
851.625	2990
851.76	3013
851.895	2918
852.03	2906
852.165	3009
852.299	3089
852.434	3192
852.569	3135
852.703	3176
852.838	3237
852.973	3340
853.107	3321
853.242	3127
853.376	3062
853.511	2979
853.645	3058
853.78	3241
853.914	3169
854.048	3123
854.183	3108
854.317	3104
854.451	3317
854.585	3135
854.72	3093
854.854	3226
854.988	3028
855.122	3074
855.256	2971
855.39	3070
855.524	3237
855.658	3150
855.792	3161
855.926	3211
856.06	3211
856.194	3245
856.327	3154
856.461	3116
856.595	3093
856.729	3127
856.862	3214
856.996	3127
857.13	3226
857.263	3230
857.397	3310
857.53	3112
857.664	3173
857.797	3218
857.931	3245
858.064	3165
858.197	3207
858.331	3146
858.464	3089
858.597	2979
858.731	3097
858.864	3127
858.997	3085
859.13	3161
859.263	3138
859.396	3180
859.529	3074
859.662	3074
859.795	3047
859.928	3173
860.061	3260
860.194	3279
860.327	3081
860.46	3058
860.592	3230
860.725	3218
860.858	3230
860.99	3119
861.123	3017
861.256	3051
861.388	3108
861.521	3960
861.653	3001
861.786	3001
861.918	3009
862.05	3062
862.183	3039
862.315	3146
862.447	3203
862.58	3104
862.712	2967
862.844	2872
862.976	3051
863.108	3032
863.24	3424
863.372	2902
863.504	2975
863.636	2948
863.768	2994
863.9	2960
864.032	2895
864.164	2975
864.296	3020
864.428	3081
864.559	3074
864.691	3047
864.823	3116
864.954	3032
865.086	3024
865.217	2998
865.349	2948
865.48	2986
865.612	2990
865.743	3135
865.875	2982
866.006	2944
866.137	2963
866.269	2902
866.4	2914
866.531	2925
866.662	2861
866.793	2883
866.924	2891
867.055	2982
867.186	2910
867.317	2925
867.448	2834
867.579	2842
867.71	2845
867.841	2838
867.972	2895
868.103	2918
868.233	2853
868.364	2887
868.495	2864
868.625	3089
868.756	3169
868.886	2956
869.017	3020
869.147	3161
869.278	3157
869.408	3055
869.539	2982
869.669	3119
869.799	3020
869.929	3116
870.06	3119
870.19	3332
870.32	3272
870.45	3283
870.58	3378
870.71	3435
870.84	3428
870.97	3279
871.1	3249
871.23	3420
871.36	3443
871.489	3344
871.619	3405
871.749	3409
871.879	3462
872.008	3469
872.138	3367
872.267	3283
872.397	3116
872.526	3112
872.656	3036
872.785	3135
872.915	3275
873.044	3306
873.173	3222
873.303	3207
873.432	3233
873.561	3195
873.69	3169
873.819	3135
873.948	3173
874.077	3062
874.206	3032
874.335	3097
874.464	3192
874.593	3321
874.722	3256
874.851	3393
874.979	3344
875.108	3313
875.237	3176
875.365	3142
875.494	3146
875.623	3237
875.751	3074
875.88	3100
876.008	3180
876.136	3192
876.265	3382
876.393	3511
876.521	3458
876.65	3412
876.778	3332
876.906	3253
877.034	3192
877.162	3230
877.29	3146
877.418	3237
877.546	3237
877.674	3199
877.802	3222
877.93	3184
878.058	3123
878.185	3146
878.313	3214
878.441	3195
878.568	3070
878.696	3184
878.824	3279
878.951	3275
879.079	3447
879.206	3606
879.333	3405
879.461	3367
879.588	3382
879.715	3492
879.842	3557
879.97	3401
880.097	3184
880.224	3138
880.351	3176
880.478	3207
880.605	3222
880.732	3192
880.859	3473
880.986	3317
881.112	3332
881.239	3203
881.366	3093
881.493	3020
881.619	2994
881.746	3066
881.872	3077
881.999	3142
882.125	3150
882.252	3245
882.378	3310
882.505	3393
882.631	3294
882.757	3119
882.883	3230
883.01	3226
883.136	3161
883.262	3066
883.388	3104
883.514	3294
883.64	3382
883.766	3302
883.892	3173
884.018	3222
884.143	3416
884.269	3587
884.395	3192
884.52	3161
884.646	3192
884.772	3127
884.897	3097
885.023	3214
885.148	3325
885.274	3428
885.399	3351
885.524	3260
885.65	3256
885.775	3287
885.9	3310
886.025	3401
886.15	3374
886.275	3272
886.4	3226
886.525	3287
886.65	3233
886.775	3298
886.9	3492
887.025	3625
887.149	3397
887.274	3279
887.399	3207
887.523	3203
887.648	3184
887.773	3188
887.897	3348
888.021	3420
888.146	3294
888.27	3428
888.395	3526
888.519	3416
888.643	3428
888.767	3431
888.891	3298
889.015	3268
889.139	3302
889.263	3249
889.387	3378
889.511	3485
889.635	3420
889.759	3298
889.883	3317
890.006	3374
890.13	3492
890.254	3268
890.377	3351
890.501	3184
890.624	3173
890.748	3294
890.871	3192
890.995	3104
891.118	3058
891.241	3211
891.364	3199
891.488	3298
891.611	3180
891.734	3233
891.857	3268
891.98	3214
892.103	3344
892.226	3245
892.349	3214
892.471	3131
892.594	3253
892.717	3317
892.839	3256
892.962	3287
893.085	3332
893.207	3279
893.33	3176
893.452	3199
893.575	3351
893.697	3253
893.819	3431
893.941	3450
894.064	3435
894.186	3287
894.308	3226
894.43	3431
894.552	3523
894.674	3481
894.796	3272
894.918	3340
895.04	3294
895.161	3416
895.283	3374
895.405	3245
895.526	3355
895.648	3386
895.769	3370
895.891	3462
896.012	3458
896.134	3450
896.255	3397
896.376	3386
896.498	3321
896.619	3428
896.74	3355
896.861	3435
896.982	3618
897.103	3846
897.224	3584
897.345	3549
897.466	3397
897.587	3462
897.708	3591
897.828	3557
897.949	3443
898.07	3340
898.19	3378
898.311	3622
898.431	3454
898.552	3545
898.672	3549
898.792	3587
898.913	3549
899.033	3416
899.153	3302
899.273	3230
899.393	3268
899.513	3298
899.633	3386
899.753	3325
899.873	3287
899.993	3389
900.113	3367
900.232	3382
900.352	3321
900.472	3317
900.591	3184
900.711	3313
900.83	3226
900.95	3393
901.069	3477
901.189	3325
901.308	3165
901.427	3116
901.546	3195
901.665	3317
901.784	3329
901.904	3245
902.023	3150
902.141	2994
902.26	3020
902.379	3169
902.498	3062
902.617	3032
902.735	3237
902.854	3230
902.973	3237
903.091	3028
903.21	3039
903.328	3119
903.446	3127
903.565	3108
903.683	3207
903.801	3123
903.919	3226
904.038	3245
904.156	3142
904.274	3268
904.392	3245
904.51	3241
904.627	3348
904.745	3424
904.863	3485
904.981	3233
905.098	3119
905.216	3207
905.334	3272
905.451	3310
905.569	3329
905.686	3409
905.803	3355
905.921	3249
906.038	3450
906.155	3348
906.272	3268
906.389	3348
906.506	3207
906.623	3230
906.74	3245
906.857	3157
906.974	3264
907.091	3428
907.208	3568
907.324	3469
907.441	3363
907.557	3230
907.674	3272
907.79	3222
907.907	3275
908.023	3382
908.139	3367
908.256	3355
908.372	3359
908.488	3363
908.604	3256
908.72	3230
908.836	3287
908.952	3279
909.068	3340
909.184	3469
909.3	3378
909.415	3504
909.531	3454
909.647	3279
909.762	3260
909.878	3291
909.993	3359
910.108	3294
910.224	3336
910.339	3370
910.454	3317
910.57	3310
910.685	3218
910.8	3591
910.915	3526
911.03	3488
911.145	3237
911.259	3272
911.374	3336
911.489	3256
911.604	3245
911.718	3142
911.833	3131
911.947	2994
912.062	2982
912.176	3218
912.291	3180
912.405	3207
912.519	3412
912.633	3469
912.748	3340
912.862	3268
912.976	3146
913.09	3032
913.204	3112
913.318	3199
913.431	3340
913.545	3310
913.659	3412
913.772	3348
913.886	3222
914	3169
914.113	3367
914.226	3409
914.34	3382
914.453	3157
914.566	3431
914.68	3253
914.793	3321
914.906	3131
915.019	3093
915.132	3085
915.245	3150
915.358	3218
915.47	3268
915.583	3256
915.696	3268
915.809	3397
915.921	3386
916.034	3275
916.146	3245
916.259	3245
916.371	3405
916.483	3348
916.595	3260
916.708	3294
916.82	3321
916.932	3325
917.044	3325
917.156	3332
917.268	3260
917.38	3294
917.491	3287
917.603	3382
917.715	3424
917.826	3492
917.938	3389
918.049	3298
918.161	3428
918.272	3595
918.384	3542
918.495	3500
918.606	3336
918.717	3291
918.828	3348
918.939	3424
919.05	3298
919.161	3382
919.272	3211
919.383	3287
919.494	3466
919.604	3644
919.715	3488
919.826	3409
919.936	3416
920.047	3564
920.157	3542
920.267	3743
920.378	3599
920.488	3553
920.598	3774
920.708	3918
920.818	3831
920.928	3831
921.038	4021
921.148	3975
921.258	3728
921.368	3622
921.477	3572
921.587	3564
921.697	3462
921.806	3633
921.916	3534
922.025	3374
922.134	3325
922.244	3283
922.353	3424
922.462	3310
922.571	3230
922.68	3093
922.789	3093
922.898	3119
923.007	3093
923.116	3214
923.224	3161
923.333	3161
923.442	3077
923.55	3100
923.659	3165
923.767	3222
923.876	3131
923.984	3233
924.092	3123
924.201	3207
924.309	3249
924.417	3253
924.525	3173
924.633	3226
924.741	4002
924.849	3028
924.956	3249
925.064	3138
925.172	3036
925.279	3108
925.387	3180
925.494	3150
925.602	3363
925.709	3306
925.816	3207
925.924	3264
926.031	3374
926.138	3332
926.245	3355
926.352	3287
926.459	3409
926.566	3469
926.673	3325
926.779	3253
926.886	3214
926.993	3161
927.099	3100
927.206	3108
927.312	3097
927.419	3230
927.525	3218
927.631	3283
927.737	3138
927.843	3127
927.95	2990
928.056	3146
928.162	3180
928.267	3230
928.373	3819
928.479	3268
928.585	3070
928.69	3207
928.796	3279
928.901	3116
929.007	3062
929.112	3211
929.218	3157
929.323	3154
929.428	3142
929.533	3306
929.638	3093
929.743	3131
929.848	3211
929.953	3199
930.058	3142
930.163	3005
930.267	3005
930.372	3180
930.477	3028
930.581	3336
930.685	3176
930.79	3055
930.894	3077
930.998	3135
931.103	3275
931.207	2963
931.311	2918
931.415	2925
931.519	2750
931.623	2807
