Data from test_V78500241_357.txt Node
Date: Fri Mar 25 16:17:40 CST 2022
User: usil
Spectrometer: V785-0024
Trigger mode: 0
Integration Time (sec): 4.000000E-1
Scans to average: 1
Nonlinearity correction enabled: false
Boxcar width: 0
Storing dark spectrum: false
XAxis mode: Wavelengths
Number of Pixels in Spectrum: 1024
>>>>>Begin Spectral Data<<<<<
801.071	2899
801.214	2944
801.356	2834
801.499	2880
801.641	2864
801.783	2925
801.926	3028
802.068	2971
802.211	2967
802.353	3047
802.496	2971
802.638	3009
802.78	3039
802.923	3070
803.065	2986
803.208	2895
803.35	2952
803.492	2960
803.635	2929
803.777	2773
803.919	2868
804.061	3157
804.204	2941
804.346	2902
804.488	2819
804.63	3001
804.773	2880
804.915	2925
805.057	3097
805.199	2929
805.341	2986
805.483	3051
805.626	3009
805.768	2986
805.91	3070
806.052	3077
806.194	3028
806.336	3226
806.478	3039
806.62	2994
806.762	2994
806.904	3051
807.046	3146
807.188	3020
807.33	2929
807.472	2982
807.614	2944
807.756	2994
807.898	2944
808.04	2891
808.182	2975
808.324	2918
808.465	2891
808.607	2864
808.749	2811
808.891	2864
809.033	2960
809.174	2967
809.316	2868
809.458	2883
809.6	2785
809.741	2750
809.883	2762
810.025	2834
810.166	2849
810.308	2830
810.45	2849
810.591	2807
810.733	2754
810.875	2845
811.016	2762
811.158	2777
811.299	2815
811.441	2956
811.582	2872
811.724	2811
811.865	2811
812.007	2925
812.148	2842
812.29	2883
812.431	2895
812.573	2963
812.714	2982
812.855	3017
812.997	3047
813.138	3138
813.279	3001
813.421	2971
813.562	2960
813.703	2883
813.845	2861
813.986	2773
814.127	2701
814.268	2788
814.41	2887
814.551	2777
814.692	2876
814.833	2834
814.974	2887
815.115	2990
815.256	2861
815.397	2796
815.539	2876
815.68	2781
815.821	2792
815.962	2960
816.103	2933
816.244	2853
816.385	2826
816.526	2990
816.666	2918
816.807	2735
816.948	2902
817.089	2906
817.23	2842
817.371	2743
817.512	2800
817.653	2800
817.793	2804
817.934	2883
818.075	2975
818.216	2990
818.356	3017
818.497	2876
818.638	2762
818.778	2800
818.919	2800
819.06	2724
819.2	2868
819.341	2788
819.481	2815
819.622	2891
819.762	3108
819.903	2998
820.043	2937
820.184	2891
820.324	2857
820.465	2979
820.605	3043
820.746	3005
820.886	2922
821.026	3089
821.167	3138
821.307	3283
821.447	3260
821.588	3253
821.728	3241
821.868	3188
822.008	3062
822.149	3188
822.289	3214
822.429	3089
822.569	3108
822.709	3157
822.849	3039
822.99	3020
823.13	3135
823.27	3119
823.41	3093
823.55	3108
823.69	3142
823.83	3169
823.97	3146
824.11	2998
824.25	2994
824.389	3097
824.529	3070
824.669	3051
824.809	3214
824.949	3256
825.089	3260
825.228	3169
825.368	3013
825.508	2929
825.648	2914
825.787	3024
825.927	3020
826.067	2986
826.206	2933
826.346	3036
826.485	3077
826.625	3100
826.765	3233
826.904	3218
827.044	2982
827.183	2906
827.323	2842
827.462	2956
827.601	2956
827.741	2895
827.88	2967
828.02	2857
828.159	2967
828.298	3032
828.437	3085
828.577	3123
828.716	3237
828.855	3077
828.994	2906
829.134	2906
829.273	2918
829.412	2918
829.551	2830
829.69	2830
829.829	2948
829.968	3119
830.107	3036
830.246	3055
830.385	2925
830.524	2853
830.663	2796
830.802	2724
830.941	2640
831.08	2613
831.219	2724
831.357	2754
831.496	2933
831.635	2724
831.774	2610
831.913	2644
832.051	2568
832.19	2545
832.329	2682
832.467	2530
832.606	2492
832.744	2598
832.883	2579
833.022	2571
833.16	2644
833.299	2705
833.437	2682
833.576	2701
833.714	2701
833.852	2701
833.991	2788
834.129	2823
834.267	2800
834.406	2796
834.544	2880
834.682	2857
834.821	2845
834.959	3036
835.097	2883
835.235	3058
835.373	3005
835.511	3020
835.65	2944
835.788	2941
835.926	2815
836.064	2788
836.202	2834
836.34	3093
836.478	3119
836.615	3024
836.753	3142
836.891	3203
837.029	3142
837.167	3104
837.305	3039
837.443	3032
837.58	2918
837.718	3150
837.856	3066
837.993	3024
838.131	3104
838.269	3100
838.406	3119
838.544	3097
838.681	2925
838.819	2887
838.956	2785
839.094	2811
839.231	2902
839.369	2994
839.506	3397
839.643	3237
839.781	3032
839.918	2986
840.055	3009
840.193	3032
840.33	3081
840.467	3070
840.604	3127
840.742	3416
840.879	3051
841.016	2982
841.153	3116
841.29	3310
841.427	3291
841.564	3253
841.701	3332
841.838	3214
841.975	3123
842.112	3173
842.249	3043
842.385	3009
842.522	3275
842.659	3119
842.796	3043
842.933	3100
843.069	3081
843.206	3024
843.343	3131
843.479	3039
843.616	3154
843.752	2929
843.889	2861
844.025	3085
844.162	2895
844.298	3036
844.435	2937
844.571	2922
844.708	3024
844.844	3245
844.98	3253
845.117	3230
845.253	3055
845.389	3024
845.525	3077
845.661	3093
845.798	3024
845.934	3146
846.07	3055
846.206	3230
846.342	3351
846.478	3214
846.614	3077
846.75	3085
846.886	3017
847.022	3245
847.158	3112
847.294	3142
847.429	3214
847.565	3249
847.701	3488
847.837	3066
847.972	2967
848.108	3154
848.244	3146
848.379	2994
848.515	2944
848.65	2929
848.786	2933
848.921	2975
849.057	3093
849.192	3161
849.328	3062
849.463	3097
849.598	3062
849.734	3028
849.869	2971
850.004	2910
850.14	2967
850.275	2925
850.41	2849
850.545	2853
850.68	2918
850.815	2967
850.95	2986
851.085	3199
851.22	3112
851.355	3009
851.49	2963
851.625	3032
851.76	3001
851.895	2929
852.03	2925
852.165	3051
852.299	3104
852.434	3203
852.569	3123
852.703	3192
852.838	3241
852.973	3317
853.107	3336
853.242	3142
853.376	3104
853.511	2952
853.645	3062
853.78	3218
853.914	3116
854.048	3116
854.183	3127
854.317	3116
854.451	3264
854.585	3108
854.72	3077
854.854	3188
854.988	3051
855.122	3119
855.256	2967
855.39	3108
855.524	3218
855.658	3176
855.792	3116
855.926	3211
856.06	3199
856.194	3241
856.327	3131
856.461	3104
856.595	3081
856.729	3100
856.862	3222
856.996	3157
857.13	3195
857.263	3222
857.397	3256
857.53	3108
857.664	3211
857.797	3249
857.931	3279
858.064	3154
858.197	3241
858.331	3119
858.464	3100
858.597	2986
858.731	3108
858.864	3150
858.997	3104
859.13	3176
859.263	3180
859.396	3188
859.529	3074
859.662	3081
859.795	3039
859.928	3146
860.061	3268
860.194	3291
860.327	3119
860.46	3085
860.592	3199
860.725	3253
860.858	3253
860.99	3070
861.123	3036
861.256	3020
861.388	3138
861.521	3774
861.653	3009
861.786	2986
861.918	2998
862.05	3043
862.183	3077
862.315	3123
862.447	3169
862.58	3104
862.712	2956
862.844	2891
862.976	3039
863.108	2971
863.24	3393
863.372	2895
863.504	2952
863.636	2937
863.768	3028
863.9	2971
864.032	2922
864.164	2937
864.296	2990
864.428	3085
864.559	3123
864.691	3097
864.823	3043
864.954	3077
865.086	3024
865.217	3013
865.349	2933
865.48	2944
865.612	3017
865.743	3123
865.875	2982
866.006	2948
866.137	2960
866.269	2990
866.4	2887
866.531	2891
866.662	2895
866.793	2887
866.924	2941
867.055	2956
867.186	2902
867.317	2895
867.448	2815
867.579	2788
867.71	2823
867.841	2804
867.972	2922
868.103	2891
868.233	2876
868.364	2868
868.495	2883
868.625	3070
868.756	3161
868.886	2941
869.017	3055
869.147	3154
869.278	3142
869.408	3032
869.539	3036
869.669	3085
869.799	3009
869.929	3123
870.06	3104
870.19	3291
870.32	3275
870.45	3283
870.58	3344
870.71	3473
870.84	3469
870.97	3291
871.1	3222
871.23	3454
871.36	3454
871.489	3355
871.619	3435
871.749	3409
871.879	3393
872.008	3504
872.138	3351
872.267	3279
872.397	3138
872.526	3039
872.656	2975
872.785	3051
872.915	3253
873.044	3321
873.173	3233
873.303	3253
873.432	3199
873.561	3195
873.69	3173
873.819	3131
873.948	3173
874.077	3108
874.206	3032
874.335	3062
874.464	3199
874.593	3310
874.722	3237
874.851	3393
874.979	3386
875.108	3329
875.237	3184
875.365	3176
875.494	3199
875.623	3241
875.751	3085
875.88	3123
876.008	3192
876.136	3233
876.265	3336
876.393	3492
876.521	3450
876.65	3416
876.778	3332
876.906	3199
877.034	3176
877.162	3214
877.29	3184
877.418	3233
877.546	3260
877.674	3237
877.802	3222
877.93	3249
878.058	3157
878.185	3074
878.313	3192
878.441	3192
878.568	3024
878.696	3123
878.824	3264
878.951	3294
879.079	3431
879.206	3641
879.333	3447
879.461	3329
879.588	3367
879.715	3462
879.842	3572
879.97	3401
880.097	3207
880.224	3123
880.351	3165
880.478	3214
880.605	3184
880.732	3180
880.859	3485
880.986	3294
881.112	3348
881.239	3180
881.366	3123
881.493	3020
881.619	3013
881.746	3074
881.872	3089
881.999	3070
882.125	3119
882.252	3253
882.378	3306
882.505	3435
882.631	3279
882.757	3135
882.883	3188
883.01	3245
883.136	3150
883.262	3112
883.388	3074
883.514	3329
883.64	3321
883.766	3317
883.892	3207
884.018	3237
884.143	3416
884.269	3523
884.395	3218
884.52	3169
884.646	3169
884.772	3112
884.897	3138
885.023	3214
885.148	3310
885.274	3405
885.399	3374
885.524	3310
885.65	3264
885.775	3313
885.9	3268
886.025	3450
886.15	3325
886.275	3306
886.4	3233
886.525	3310
886.65	3241
886.775	3306
886.9	3473
887.025	3599
887.149	3405
887.274	3283
887.399	3157
887.523	3138
887.648	3218
887.773	3180
887.897	3420
888.021	3412
888.146	3272
888.27	3420
888.395	3504
888.519	3439
888.643	3428
888.767	3450
888.891	3310
889.015	3214
889.139	3279
889.263	3230
889.387	3401
889.511	3485
889.635	3443
889.759	3272
889.883	3268
890.006	3389
890.13	3450
890.254	3291
890.377	3306
890.501	3176
890.624	3195
890.748	3291
890.871	3157
890.995	3135
891.118	3039
891.241	3211
891.364	3241
891.488	3279
891.611	3154
891.734	3214
891.857	3287
891.98	3203
892.103	3363
892.226	3302
892.349	3214
892.471	3104
892.594	3237
892.717	3272
892.839	3272
892.962	3291
893.085	3344
893.207	3294
893.33	3119
893.452	3173
893.575	3336
893.697	3230
893.819	3431
893.941	3500
894.064	3439
894.186	3272
894.308	3279
894.43	3447
894.552	3542
894.674	3435
894.796	3268
894.918	3302
895.04	3291
895.161	3370
895.283	3443
895.405	3291
895.526	3374
895.648	3416
895.769	3458
895.891	3488
896.012	3481
896.134	3454
896.255	3412
896.376	3382
896.498	3382
896.619	3450
896.74	3374
896.861	3409
896.982	3648
897.103	3857
897.224	3580
897.345	3477
897.466	3393
897.587	3469
897.708	3606
897.828	3564
897.949	3435
898.07	3344
898.19	3428
898.311	3584
898.431	3439
898.552	3504
898.672	3587
898.792	3587
898.913	3500
899.033	3386
899.153	3260
899.273	3199
899.393	3325
899.513	3367
899.633	3310
899.753	3313
899.873	3283
899.993	3359
900.113	3329
900.232	3348
900.352	3340
900.472	3317
900.591	3211
900.711	3275
900.83	3218
900.95	3401
901.069	3492
901.189	3325
901.308	3161
901.427	3138
901.546	3233
901.665	3294
901.784	3313
901.904	3222
902.023	3131
902.141	3001
902.26	2990
902.379	3123
902.498	3066
902.617	3039
902.735	3173
902.854	3214
902.973	3218
903.091	3043
903.21	3070
903.328	3100
903.446	3119
903.565	3108
903.683	3146
903.801	3127
903.919	3230
904.038	3275
904.156	3169
904.274	3302
904.392	3264
904.51	3253
904.627	3325
904.745	3473
904.863	3462
904.981	3249
905.098	3169
905.216	3226
905.334	3283
905.451	3272
905.569	3317
905.686	3435
905.803	3458
905.921	3294
906.038	3443
906.155	3359
906.272	3279
906.389	3367
906.506	3233
906.623	3260
906.74	3264
906.857	3199
906.974	3272
907.091	3450
907.208	3576
907.324	3458
907.441	3386
907.557	3222
907.674	3226
907.79	3222
907.907	3275
908.023	3348
908.139	3382
908.256	3329
908.372	3363
908.488	3344
908.604	3245
908.72	3230
908.836	3321
908.952	3272
909.068	3348
909.184	3485
909.3	3401
909.415	3515
909.531	3488
909.647	3249
909.762	3287
909.878	3287
909.993	3374
910.108	3367
910.224	3367
910.339	3439
910.454	3386
910.57	3245
910.685	3218
910.8	3614
910.915	3542
911.03	3397
911.145	3268
911.259	3249
911.374	3321
911.489	3249
911.604	3249
911.718	3116
911.833	3165
911.947	3039
912.062	2975
912.176	3150
912.291	3176
912.405	3226
912.519	3420
912.633	3458
912.748	3348
912.862	3302
912.976	3119
913.09	3081
913.204	3119
913.318	3195
913.431	3325
913.545	3313
913.659	3409
913.772	3340
913.886	3256
914	3207
914.113	3374
914.226	3405
914.34	3340
914.453	3203
914.566	3405
914.68	3291
914.793	3310
914.906	3131
915.019	3131
915.132	3051
915.245	3150
915.358	3218
915.47	3260
915.583	3222
915.696	3283
915.809	3382
915.921	3397
916.034	3241
916.146	3279
916.259	3237
916.371	3344
916.483	3321
916.595	3306
916.708	3325
916.82	3325
916.932	3370
917.044	3340
917.156	3321
917.268	3279
917.38	3287
917.491	3329
917.603	3363
917.715	3424
917.826	3488
917.938	3397
918.049	3253
918.161	3393
918.272	3625
918.384	3561
918.495	3450
918.606	3351
918.717	3294
918.828	3393
918.939	3389
919.05	3306
919.161	3374
919.272	3180
919.383	3272
919.494	3504
919.604	3648
919.715	3507
919.826	3439
919.936	3477
920.047	3587
920.157	3538
920.267	3747
920.378	3606
920.488	3576
920.598	3747
920.708	3937
920.818	3884
920.928	3854
921.038	4002
921.148	3983
921.258	3732
921.368	3637
921.477	3591
921.587	3572
921.697	3458
921.806	3644
921.916	3530
922.025	3382
922.134	3370
922.244	3313
922.353	3477
922.462	3260
922.571	3233
922.68	3100
922.789	3112
922.898	3150
923.007	3116
923.116	3214
923.224	3195
923.333	3157
923.442	3097
923.55	3077
923.659	3100
923.767	3218
923.876	3112
923.984	3241
924.092	3097
924.201	3157
924.309	3218
924.417	3245
924.525	3199
924.633	3233
924.741	4230
924.849	3055
924.956	3272
925.064	3074
925.172	3039
925.279	3100
925.387	3192
925.494	3207
925.602	3351
925.709	3313
925.816	3192
925.924	3283
926.031	3386
926.138	3325
926.245	3359
926.352	3291
926.459	3397
926.566	3462
926.673	3344
926.779	3256
926.886	3226
926.993	3176
927.099	3142
927.206	3108
927.312	3100
927.419	3226
927.525	3192
927.631	3256
927.737	3123
927.843	3135
927.95	3020
928.056	3157
928.162	3176
928.267	3272
928.373	3842
928.479	3283
928.585	3062
928.69	3207
928.796	3264
928.901	3203
929.007	3043
929.112	3230
929.218	3142
929.323	3169
929.428	3123
929.533	3348
929.638	3074
929.743	3157
929.848	3241
929.953	3203
930.058	3123
930.163	3009
930.267	3066
930.372	3176
930.477	3009
930.581	3340
930.685	3203
930.79	3093
930.894	3093
930.998	3089
931.103	3294
931.207	2971
931.311	2986
931.415	2937
931.519	2796
931.623	2830
