Data from test_V78500241_450.txt Node
Date: Fri Mar 25 16:18:19 CST 2022
User: usil
Spectrometer: V785-0024
Trigger mode: 0
Integration Time (sec): 4.000000E-1
Scans to average: 1
Nonlinearity correction enabled: false
Boxcar width: 0
Storing dark spectrum: false
XAxis mode: Wavelengths
Number of Pixels in Spectrum: 1024
>>>>>Begin Spectral Data<<<<<
801.071	2906
801.214	2960
801.356	2899
801.499	2906
801.641	2895
801.783	2933
801.926	3024
802.068	2971
802.211	3039
802.353	3058
802.496	2967
802.638	3028
802.78	3055
802.923	3104
803.065	2979
803.208	2906
803.35	2933
803.492	2937
803.635	2910
803.777	2762
803.919	2872
804.061	3233
804.204	2956
804.346	2941
804.488	2872
804.63	2998
804.773	2876
804.915	2891
805.057	3089
805.199	2967
805.341	3013
805.483	3062
805.626	3005
805.768	2982
805.91	3085
806.052	3131
806.194	3055
806.336	3245
806.478	3024
806.62	2971
806.762	2963
806.904	3032
807.046	3203
807.188	2971
807.33	2906
807.472	2982
807.614	2960
807.756	3020
807.898	2933
808.04	2918
808.182	3013
808.324	2952
808.465	2902
808.607	2891
808.749	2781
808.891	2857
809.033	2952
809.174	2967
809.316	2891
809.458	2887
809.6	2758
809.741	2777
809.883	2785
810.025	2868
810.166	2838
810.308	2823
810.45	2853
810.591	2739
810.733	2777
810.875	2826
811.016	2773
811.158	2796
811.299	2853
811.441	2941
811.582	2876
811.724	2853
811.865	2845
812.007	2883
812.148	2895
812.29	2864
812.431	2941
812.573	2937
812.714	2979
812.855	3051
812.997	3028
813.138	3123
813.279	3005
813.421	2979
813.562	2975
813.703	2906
813.845	2887
813.986	2758
814.127	2701
814.268	2838
814.41	2830
814.551	2811
814.692	2880
814.833	2857
814.974	2845
815.115	2918
815.256	2845
815.397	2826
815.539	2838
815.68	2788
815.821	2834
815.962	2918
816.103	2922
816.244	2887
816.385	2876
816.526	2967
816.666	2941
816.807	2739
816.948	2891
817.089	2876
817.23	2842
817.371	2754
817.512	2796
817.653	2872
817.793	2830
817.934	2857
818.075	2952
818.216	3036
818.356	3062
818.497	2853
818.638	2773
818.778	2823
818.919	2777
819.06	2766
819.2	2880
819.341	2800
819.481	2796
819.622	2933
819.762	3123
819.903	3051
820.043	2914
820.184	2895
820.324	2902
820.465	3013
820.605	3001
820.746	3055
820.886	2929
821.026	3131
821.167	3176
821.307	3264
821.447	3275
821.588	3241
821.728	3218
821.868	3230
822.008	3085
822.149	3207
822.289	3268
822.429	3108
822.569	3112
822.709	3184
822.849	3058
822.99	3074
823.13	3195
823.27	3222
823.41	3142
823.55	3195
823.69	3188
823.83	3245
823.97	3135
824.11	3028
824.25	3028
824.389	3131
824.529	3138
824.669	3104
824.809	3233
824.949	3329
825.089	3233
825.228	3176
825.368	3001
825.508	2979
825.648	3017
825.787	3036
825.927	3032
826.067	3036
826.206	2994
826.346	3070
826.485	3119
826.625	3123
826.765	3283
826.904	3241
827.044	2982
827.183	2967
827.323	2937
827.462	3001
827.601	2929
827.741	3005
827.88	3024
828.02	2887
828.159	2982
828.298	3116
828.437	3146
828.577	3085
828.716	3279
828.855	3146
828.994	2956
829.134	2937
829.273	2952
829.412	2925
829.551	2868
829.69	2929
829.829	3020
829.968	3195
830.107	3058
830.246	3055
830.385	2967
830.524	2933
830.663	2864
830.802	2796
830.941	2701
831.08	2686
831.219	2823
831.357	2781
831.496	2994
831.635	2762
831.774	2697
831.913	2663
832.051	2590
832.19	2655
832.329	2693
832.467	2587
832.606	2537
832.744	2621
832.883	2663
833.022	2629
833.16	2693
833.299	2686
833.437	2754
833.576	2762
833.714	2746
833.852	2766
833.991	2826
834.129	2861
834.267	2845
834.406	2857
834.544	2910
834.682	2914
834.821	2891
834.959	3089
835.097	2937
835.235	3097
835.373	3066
835.511	3066
835.65	2975
835.788	3009
835.926	2883
836.064	2823
836.202	2891
836.34	3100
836.478	3157
836.615	3055
836.753	3154
836.891	3245
837.029	3192
837.167	3116
837.305	3089
837.443	3043
837.58	2975
837.718	3173
837.856	3081
837.993	3051
838.131	3127
838.269	3161
838.406	3138
838.544	3157
838.681	2960
838.819	2960
838.956	2876
839.094	2853
839.231	2956
839.369	3051
839.506	3431
839.643	3214
839.781	3036
839.918	2990
840.055	3081
840.193	3089
840.33	3108
840.467	3146
840.604	3207
840.742	3428
840.879	3081
841.016	3077
841.153	3131
841.29	3351
841.427	3291
841.564	3294
841.701	3302
841.838	3233
841.975	3214
842.112	3214
842.249	3108
842.385	3085
842.522	3291
842.659	3119
842.796	3093
842.933	3157
843.069	3081
843.206	3051
843.343	3188
843.479	3119
843.616	3127
843.752	2941
843.889	2929
844.025	3089
844.162	2933
844.298	3100
844.435	3001
844.571	2963
844.708	3131
844.844	3211
844.98	3260
845.117	3184
845.253	3093
845.389	3032
845.525	3154
845.661	3077
845.798	3074
845.934	3169
846.07	3108
846.206	3218
846.342	3351
846.478	3218
846.614	3138
846.75	3081
846.886	3074
847.022	3298
847.158	3184
847.294	3203
847.429	3302
847.565	3253
847.701	3500
847.837	3066
847.972	3024
848.108	3203
848.244	3203
848.379	3013
848.515	2963
848.65	2979
848.786	2975
848.921	3036
849.057	3127
849.192	3188
849.328	3093
849.463	3127
849.598	3100
849.734	3100
849.869	3009
850.004	2933
850.14	2975
850.275	2918
850.41	2914
850.545	2910
850.68	2994
850.815	2956
850.95	2986
851.085	3222
851.22	3161
851.355	3100
851.49	2986
851.625	3051
851.76	3066
851.895	2975
852.03	2944
852.165	3055
852.299	3112
852.434	3176
852.569	3150
852.703	3195
852.838	3298
852.973	3306
853.107	3340
853.242	3226
853.376	3085
853.511	2975
853.645	3112
853.78	3260
853.914	3165
854.048	3127
854.183	3119
854.317	3161
854.451	3268
854.585	3169
854.72	3119
854.854	3256
854.988	3085
855.122	3070
855.256	3001
855.39	3146
855.524	3283
855.658	3211
855.792	3173
855.926	3195
856.06	3237
856.194	3291
856.327	3180
856.461	3077
856.595	3070
856.729	3131
856.862	3237
856.996	3180
857.13	3233
857.263	3256
857.397	3268
857.53	3131
857.664	3245
857.797	3268
857.931	3260
858.064	3203
858.197	3275
858.331	3146
858.464	3131
858.597	3024
858.731	3104
858.864	3184
858.997	3081
859.13	3157
859.263	3214
859.396	3222
859.529	3116
859.662	3074
859.795	3070
859.928	3116
860.061	3291
860.194	3348
860.327	3127
860.46	3127
860.592	3256
860.725	3233
860.858	3329
860.99	3138
861.123	3131
861.256	3085
861.388	3169
861.521	3949
861.653	3028
861.786	2982
861.918	3032
862.05	3070
862.183	3119
862.315	3146
862.447	3211
862.58	3116
862.712	2956
862.844	2929
862.976	3055
863.108	3051
863.24	3386
863.372	2914
863.504	2967
863.636	2979
863.768	3043
863.9	2948
864.032	2925
864.164	2975
864.296	3036
864.428	3062
864.559	3112
864.691	3062
864.823	3039
864.954	3085
865.086	3074
865.217	2979
865.349	2975
865.48	2998
865.612	3055
865.743	3169
865.875	2971
866.006	2975
866.137	3028
866.269	2941
866.4	2986
866.531	2963
866.662	2918
866.793	2895
866.924	2887
867.055	2971
867.186	2963
867.317	2880
867.448	2864
867.579	2864
867.71	2876
867.841	2804
867.972	2891
868.103	2941
868.233	2895
868.364	2857
868.495	2918
868.625	3104
868.756	3188
868.886	3039
869.017	3017
869.147	3214
869.278	3195
869.408	3074
869.539	3020
869.669	3077
869.799	3066
869.929	3173
870.06	3176
870.19	3359
870.32	3313
870.45	3336
870.58	3393
870.71	3454
870.84	3462
870.97	3291
871.1	3272
871.23	3488
871.36	3488
871.489	3370
871.619	3439
871.749	3443
871.879	3477
872.008	3473
872.138	3363
872.267	3283
872.397	3165
872.526	3119
872.656	3032
872.785	3119
872.915	3272
873.044	3325
873.173	3233
873.303	3275
873.432	3256
873.561	3237
873.69	3161
873.819	3176
873.948	3241
874.077	3127
874.206	3074
874.335	3116
874.464	3241
874.593	3363
874.722	3268
874.851	3374
874.979	3420
875.108	3351
875.237	3222
875.365	3165
875.494	3165
875.623	3279
875.751	3058
875.88	3089
876.008	3230
876.136	3249
876.265	3351
876.393	3504
876.521	3435
876.65	3382
876.778	3351
876.906	3241
877.034	3211
877.162	3283
877.29	3192
877.418	3317
877.546	3249
877.674	3249
877.802	3275
877.93	3192
878.058	3188
878.185	3131
878.313	3226
878.441	3218
878.568	3077
878.696	3165
878.824	3256
878.951	3313
879.079	3431
879.206	3663
879.333	3424
879.461	3344
879.588	3351
879.715	3519
879.842	3603
879.97	3405
880.097	3184
880.224	3142
880.351	3218
880.478	3241
880.605	3233
880.732	3222
880.859	3511
880.986	3313
881.112	3317
881.239	3237
881.366	3089
881.493	3020
881.619	3062
881.746	3081
881.872	3104
881.999	3093
882.125	3157
882.252	3313
882.378	3287
882.505	3424
882.631	3264
882.757	3184
882.883	3237
883.01	3245
883.136	3203
883.262	3123
883.388	3112
883.514	3332
883.64	3416
883.766	3348
883.892	3207
884.018	3272
884.143	3447
884.269	3561
884.395	3245
884.52	3203
884.646	3176
884.772	3127
884.897	3154
885.023	3233
885.148	3355
885.274	3443
885.399	3393
885.524	3317
885.65	3264
885.775	3310
885.9	3302
886.025	3439
886.15	3363
886.275	3344
886.4	3253
886.525	3344
886.65	3268
886.775	3313
886.9	3500
887.025	3660
887.149	3409
887.274	3291
887.399	3165
887.523	3199
887.648	3161
887.773	3222
887.897	3355
888.021	3370
888.146	3336
888.27	3458
888.395	3511
888.519	3477
888.643	3466
888.767	3473
888.891	3336
889.015	3230
889.139	3306
889.263	3275
889.387	3412
889.511	3549
889.635	3435
889.759	3355
889.883	3302
890.006	3393
890.13	3545
890.254	3268
890.377	3359
890.501	3211
890.624	3161
890.748	3325
890.871	3218
890.995	3112
891.118	3089
891.241	3176
891.364	3192
891.488	3336
891.611	3192
891.734	3226
891.857	3264
891.98	3249
892.103	3351
892.226	3241
892.349	3268
892.471	3157
892.594	3249
892.717	3298
892.839	3287
892.962	3306
893.085	3386
893.207	3310
893.33	3161
893.452	3260
893.575	3348
893.697	3260
893.819	3435
893.941	3511
894.064	3458
894.186	3279
894.308	3268
894.43	3439
894.552	3584
894.674	3504
894.796	3302
894.918	3317
895.04	3310
895.161	3435
895.283	3378
895.405	3336
895.526	3439
895.648	3431
895.769	3443
895.891	3447
896.012	3492
896.134	3496
896.255	3443
896.376	3370
896.498	3386
896.619	3439
896.74	3355
896.861	3409
896.982	3709
897.103	3876
897.224	3618
897.345	3519
897.466	3439
897.587	3477
897.708	3652
897.828	3538
897.949	3428
898.07	3344
898.19	3393
898.311	3591
898.431	3469
898.552	3523
898.672	3568
898.792	3603
898.913	3526
899.033	3435
899.153	3321
899.273	3233
899.393	3283
899.513	3306
899.633	3310
899.753	3321
899.873	3294
899.993	3420
900.113	3351
900.232	3363
900.352	3325
900.472	3306
900.591	3230
900.711	3298
900.83	3249
900.95	3389
901.069	3496
901.189	3306
901.308	3199
901.427	3161
901.546	3184
901.665	3294
901.784	3348
901.904	3222
902.023	3131
902.141	3043
902.26	2998
902.379	3161
902.498	3089
902.617	3051
902.735	3195
902.854	3207
902.973	3211
903.091	3055
903.21	3058
903.328	3173
903.446	3097
903.565	3127
903.683	3184
903.801	3123
903.919	3256
904.038	3268
904.156	3154
904.274	3283
904.392	3260
904.51	3253
904.627	3325
904.745	3443
904.863	3511
904.981	3294
905.098	3165
905.216	3218
905.334	3287
905.451	3298
905.569	3294
905.686	3412
905.803	3447
905.921	3279
906.038	3428
906.155	3382
906.272	3272
906.389	3363
906.506	3268
906.623	3298
906.74	3283
906.857	3230
906.974	3260
907.091	3428
907.208	3561
907.324	3504
907.441	3382
907.557	3249
907.674	3272
907.79	3287
907.907	3313
908.023	3401
908.139	3397
908.256	3310
908.372	3359
908.488	3370
908.604	3230
908.72	3253
908.836	3302
908.952	3264
909.068	3329
909.184	3500
909.3	3393
909.415	3526
909.531	3450
909.647	3294
909.762	3291
909.878	3260
909.993	3363
910.108	3336
910.224	3325
910.339	3424
910.454	3329
910.57	3313
910.685	3256
910.8	3625
910.915	3553
911.03	3466
911.145	3253
911.259	3275
911.374	3344
911.489	3249
911.604	3188
911.718	3119
911.833	3142
911.947	3039
912.062	3005
912.176	3169
912.291	3165
912.405	3211
912.519	3409
912.633	3466
912.748	3332
912.862	3302
912.976	3207
913.09	3108
913.204	3146
913.318	3233
913.431	3397
913.545	3367
913.659	3435
913.772	3351
913.886	3245
914	3211
914.113	3329
914.226	3405
914.34	3386
914.453	3253
914.566	3424
914.68	3275
914.793	3344
914.906	3131
915.019	3100
915.132	3100
915.245	3173
915.358	3226
915.47	3256
915.583	3306
915.696	3317
915.809	3363
915.921	3443
916.034	3260
916.146	3253
916.259	3268
916.371	3325
916.483	3351
916.595	3291
916.708	3344
916.82	3370
916.932	3336
917.044	3325
917.156	3374
917.268	3279
917.38	3291
917.491	3279
917.603	3374
917.715	3450
917.826	3454
917.938	3409
918.049	3272
918.161	3473
918.272	3622
918.384	3606
918.495	3515
918.606	3367
918.717	3256
918.828	3370
918.939	3409
919.05	3272
919.161	3397
919.272	3180
919.383	3253
919.494	3519
919.604	3701
919.715	3458
919.826	3405
919.936	3435
920.047	3572
920.157	3530
920.267	3770
920.378	3603
920.488	3545
920.598	3774
920.708	4002
920.818	3793
920.928	3861
921.038	3956
921.148	4055
921.258	3698
921.368	3610
921.477	3603
921.587	3576
921.697	3450
921.806	3614
921.916	3542
922.025	3405
922.134	3363
922.244	3294
922.353	3473
922.462	3287
922.571	3245
922.68	3085
922.789	3077
922.898	3123
923.007	3112
923.116	3226
923.224	3176
923.333	3218
923.442	3138
923.55	3112
923.659	3154
923.767	3195
923.876	3081
923.984	3253
924.092	3100
924.201	3192
924.309	3214
924.417	3256
924.525	3199
924.633	3218
924.741	4067
924.849	3077
924.956	3245
925.064	3097
925.172	3043
925.279	3097
925.387	3176
925.494	3211
925.602	3340
925.709	3359
925.816	3199
925.924	3260
926.031	3374
926.138	3313
926.245	3367
926.352	3260
926.459	3393
926.566	3481
926.673	3321
926.779	3287
926.886	3256
926.993	3142
927.099	3085
927.206	3135
927.312	3112
927.419	3245
927.525	3245
927.631	3260
927.737	3123
927.843	3089
927.95	3039
928.056	3157
928.162	3199
928.267	3245
928.373	3770
928.479	3317
928.585	3039
928.69	3150
928.796	3260
928.901	3135
929.007	3055
929.112	3207
929.218	3188
929.323	3112
929.428	3169
929.533	3298
929.638	3089
929.743	3207
929.848	3245
929.953	3192
930.058	3180
930.163	3009
930.267	3047
930.372	3241
930.477	3062
930.581	3306
930.685	3165
930.79	3077
930.894	3135
930.998	3077
931.103	3283
931.207	2979
931.311	2929
931.415	2963
931.519	2758
931.623	2811
