Data from test_V78500241_1138.txt Node
Date: Fri Mar 25 16:23:05 CST 2022
User: usil
Spectrometer: V785-0024
Trigger mode: 0
Integration Time (sec): 4.000000E-1
Scans to average: 1
Nonlinearity correction enabled: false
Boxcar width: 0
Storing dark spectrum: false
XAxis mode: Wavelengths
Number of Pixels in Spectrum: 1024
>>>>>Begin Spectral Data<<<<<
801.071	2929
801.214	2918
801.356	2876
801.499	2880
801.641	2864
801.783	2941
801.926	3028
802.068	2937
802.211	2982
802.353	3020
802.496	2937
802.638	3017
802.78	3009
802.923	3058
803.065	2990
803.208	2887
803.35	2887
803.492	2948
803.635	2887
803.777	2727
803.919	2876
804.061	3184
804.204	2925
804.346	2899
804.488	2823
804.63	2986
804.773	2891
804.915	2910
805.057	3100
805.199	2922
805.341	2979
805.483	3043
805.626	2990
805.768	2956
805.91	3093
806.052	3138
806.194	2982
806.336	3211
806.478	3028
806.62	2902
806.762	2948
806.904	3005
807.046	3150
807.188	2990
807.33	2887
807.472	2975
807.614	2845
807.756	2952
807.898	2929
808.04	2891
808.182	2944
808.324	2956
808.465	2861
808.607	2857
808.749	2815
808.891	2804
809.033	2967
809.174	2994
809.316	2864
809.458	2853
809.6	2762
809.741	2750
809.883	2758
810.025	2834
810.166	2864
810.308	2823
810.45	2830
810.591	2777
810.733	2754
810.875	2826
811.016	2781
811.158	2735
811.299	2785
811.441	2975
811.582	2887
811.724	2826
811.865	2804
812.007	2868
812.148	2887
812.29	2845
812.431	2868
812.573	2952
812.714	2960
812.855	3070
812.997	3039
813.138	3123
813.279	3005
813.421	2967
813.562	2971
813.703	2861
813.845	2876
813.986	2769
814.127	2716
814.268	2823
814.41	2864
814.551	2777
814.692	2872
814.833	2800
814.974	2872
815.115	2952
815.256	2807
815.397	2811
815.539	2861
815.68	2750
815.821	2792
815.962	2941
816.103	2941
816.244	2891
816.385	2883
816.526	2971
816.666	2906
816.807	2731
816.948	2872
817.089	2887
817.23	2849
817.371	2796
817.512	2792
817.653	2819
817.793	2826
817.934	2864
818.075	2956
818.216	2956
818.356	3020
818.497	2918
818.638	2766
818.778	2830
818.919	2777
819.06	2720
819.2	2918
819.341	2792
819.481	2777
819.622	2918
819.762	3093
819.903	3005
820.043	2891
820.184	2914
820.324	2880
820.465	3028
820.605	3001
820.746	2998
820.886	2952
821.026	3089
821.167	3173
821.307	3268
821.447	3272
821.588	3218
821.728	3199
821.868	3161
822.008	3089
822.149	3192
822.289	3218
822.429	3077
822.569	3066
822.709	3142
822.849	3032
822.99	3047
823.13	3138
823.27	3195
823.41	3097
823.55	3100
823.69	3138
823.83	3188
823.97	3062
824.11	2998
824.25	2956
824.389	3039
824.529	3108
824.669	3043
824.809	3214
824.949	3230
825.089	3211
825.228	3135
825.368	2990
825.508	2914
825.648	2895
825.787	2979
825.927	2998
826.067	2963
826.206	2967
826.346	3009
826.485	3058
826.625	3077
826.765	3226
826.904	3176
827.044	2971
827.183	2899
827.323	2849
827.462	2956
827.601	2914
827.741	2925
827.88	2925
828.02	2861
828.159	2952
828.298	3024
828.437	3131
828.577	3032
828.716	3241
828.855	3077
828.994	2868
829.134	2899
829.273	2941
829.412	2838
829.551	2861
829.69	2861
829.829	2979
829.968	3150
830.107	2986
830.246	3020
830.385	2906
830.524	2880
830.663	2811
830.802	2746
830.941	2636
831.08	2655
831.219	2724
831.357	2762
831.496	2979
831.635	2735
831.774	2636
831.913	2632
832.051	2583
832.19	2549
832.329	2670
832.467	2537
832.606	2507
832.744	2564
832.883	2575
833.022	2571
833.16	2659
833.299	2636
833.437	2659
833.576	2682
833.714	2735
833.852	2727
833.991	2769
834.129	2834
834.267	2811
834.406	2785
834.544	2834
834.682	2872
834.821	2883
834.959	3039
835.097	2891
835.235	3062
835.373	2975
835.511	3013
835.65	2937
835.788	2975
835.926	2796
836.064	2785
836.202	2819
836.34	3093
836.478	3112
836.615	3062
836.753	3127
836.891	3169
837.029	3154
837.167	3100
837.305	3055
837.443	3028
837.58	2967
837.718	3119
837.856	3039
837.993	3017
838.131	3097
838.269	3093
838.406	3077
838.544	3089
838.681	2910
838.819	2872
838.956	2781
839.094	2796
839.231	2948
839.369	2975
839.506	3355
839.643	3188
839.781	3032
839.918	2990
840.055	3020
840.193	3024
840.33	3085
840.467	3051
840.604	3119
840.742	3412
840.879	3058
841.016	3024
841.153	3142
841.29	3306
841.427	3287
841.564	3245
841.701	3283
841.838	3203
841.975	3199
842.112	3207
842.249	3043
842.385	3028
842.522	3233
842.659	3089
842.796	3058
842.933	3100
843.069	3028
843.206	3058
843.343	3188
843.479	3085
843.616	3089
843.752	2880
843.889	2883
844.025	3039
844.162	2876
844.298	3058
844.435	2933
844.571	2918
844.708	3074
844.844	3169
844.98	3237
845.117	3184
845.253	3036
845.389	3005
845.525	3093
845.661	3108
845.798	3036
845.934	3097
846.07	3058
846.206	3199
846.342	3340
846.478	3218
846.614	3108
846.75	3055
846.886	3028
847.022	3226
847.158	3127
847.294	3188
847.429	3192
847.565	3253
847.701	3469
847.837	3039
847.972	3001
848.108	3146
848.244	3116
848.379	2975
848.515	2933
848.65	2895
848.786	2941
848.921	3017
849.057	3104
849.192	3131
849.328	3058
849.463	3119
849.598	3028
849.734	3043
849.869	2971
850.004	2902
850.14	2941
850.275	2929
850.41	2826
850.545	2872
850.68	2925
850.815	2933
850.95	2937
851.085	3157
851.22	3116
851.355	3013
851.49	2960
851.625	2986
851.76	2971
851.895	2948
852.03	2922
852.165	3020
852.299	3138
852.434	3176
852.569	3157
852.703	3157
852.838	3192
852.973	3344
853.107	3351
853.242	3127
853.376	3097
853.511	2963
853.645	3024
853.78	3218
853.914	3089
854.048	3131
854.183	3062
854.317	3108
854.451	3298
854.585	3093
854.72	3093
854.854	3207
854.988	3062
855.122	3047
855.256	2982
855.39	3097
855.524	3233
855.658	3188
855.792	3169
855.926	3184
856.06	3222
856.194	3233
856.327	3188
856.461	3093
856.595	3070
856.729	3100
856.862	3180
856.996	3127
857.13	3199
857.263	3222
857.397	3256
857.53	3150
857.664	3176
857.797	3260
857.931	3245
858.064	3135
858.197	3199
858.331	3100
858.464	3081
858.597	3009
858.731	3074
858.864	3123
858.997	3066
859.13	3157
859.263	3161
859.396	3161
859.529	3062
859.662	3100
859.795	3062
859.928	3157
860.061	3272
860.194	3264
860.327	3127
860.46	3066
860.592	3241
860.725	3214
860.858	3245
860.99	3051
861.123	3024
861.256	3009
861.388	3123
861.521	3766
861.653	2975
861.786	2979
861.918	2986
862.05	3055
862.183	3119
862.315	3138
862.447	3211
862.58	3074
862.712	2948
862.844	2857
862.976	2982
863.108	3032
863.24	3298
863.372	2845
863.504	2944
863.636	2941
863.768	3013
863.9	2937
864.032	2899
864.164	2948
864.296	3005
864.428	3070
864.559	3104
864.691	3085
864.823	3047
864.954	3013
865.086	3047
865.217	2971
865.349	2914
865.48	2982
865.612	2963
865.743	3142
865.875	2975
866.006	2948
866.137	2952
866.269	2937
866.4	2906
866.531	2899
866.662	2906
866.793	2864
866.924	2891
867.055	2963
867.186	2914
867.317	2891
867.448	2819
867.579	2872
867.71	2899
867.841	2838
867.972	2914
868.103	2899
868.233	2868
868.364	2876
868.495	2887
868.625	3051
868.756	3150
868.886	2948
869.017	2994
869.147	3176
869.278	3154
869.408	3070
869.539	3020
869.669	3089
869.799	3066
869.929	3131
870.06	3135
870.19	3313
870.32	3302
870.45	3298
870.58	3382
870.71	3443
870.84	3424
870.97	3264
871.1	3218
871.23	3477
871.36	3420
871.489	3348
871.619	3401
871.749	3443
871.879	3462
872.008	3477
872.138	3329
872.267	3291
872.397	3123
872.526	3097
872.656	3017
872.785	3093
872.915	3233
873.044	3287
873.173	3222
873.303	3218
873.432	3241
873.561	3211
873.69	3154
873.819	3161
873.948	3195
874.077	3081
874.206	3043
874.335	3055
874.464	3222
874.593	3317
874.722	3211
874.851	3374
874.979	3359
875.108	3329
875.237	3203
875.365	3135
875.494	3165
875.623	3237
875.751	3074
875.88	3093
876.008	3161
876.136	3218
876.265	3386
876.393	3485
876.521	3405
876.65	3428
876.778	3344
876.906	3264
877.034	3161
877.162	3222
877.29	3127
877.418	3256
877.546	3241
877.674	3253
877.802	3233
877.93	3226
878.058	3157
878.185	3093
878.313	3195
878.441	3195
878.568	3047
878.696	3142
878.824	3233
878.951	3332
879.079	3428
879.206	3603
879.333	3435
879.461	3306
879.588	3340
879.715	3485
879.842	3603
879.97	3393
880.097	3131
880.224	3116
880.351	3184
880.478	3199
880.605	3188
880.732	3180
880.859	3488
880.986	3287
881.112	3325
881.239	3207
881.366	3116
881.493	3013
881.619	2998
881.746	3093
881.872	3074
881.999	3077
882.125	3165
882.252	3233
882.378	3283
882.505	3443
882.631	3294
882.757	3188
882.883	3253
883.01	3203
883.136	3173
883.262	3093
883.388	3108
883.514	3325
883.64	3325
883.766	3253
883.892	3188
884.018	3199
884.143	3367
884.269	3542
884.395	3195
884.52	3154
884.646	3165
884.772	3093
884.897	3085
885.023	3199
885.148	3302
885.274	3405
885.399	3317
885.524	3253
885.65	3211
885.775	3310
885.9	3272
886.025	3412
886.15	3363
886.275	3283
886.4	3211
886.525	3291
886.65	3256
886.775	3287
886.9	3481
887.025	3656
887.149	3401
887.274	3291
887.399	3188
887.523	3195
887.648	3146
887.773	3173
887.897	3329
888.021	3397
888.146	3298
888.27	3435
888.395	3526
888.519	3473
888.643	3481
888.767	3458
888.891	3321
889.015	3222
889.139	3264
889.263	3249
889.387	3420
889.511	3515
889.635	3401
889.759	3332
889.883	3279
890.006	3393
890.13	3492
890.254	3241
890.377	3336
890.501	3214
890.624	3169
890.748	3298
890.871	3230
890.995	3100
891.118	3093
891.241	3192
891.364	3188
891.488	3291
891.611	3203
891.734	3256
891.857	3302
891.98	3222
892.103	3355
892.226	3275
892.349	3237
892.471	3112
892.594	3222
892.717	3253
892.839	3279
892.962	3268
893.085	3382
893.207	3294
893.33	3150
893.452	3222
893.575	3359
893.697	3233
893.819	3500
893.941	3485
894.064	3481
894.186	3260
894.308	3287
894.43	3409
894.552	3500
894.674	3443
894.796	3279
894.918	3283
895.04	3264
895.161	3443
895.283	3374
895.405	3302
895.526	3355
895.648	3393
895.769	3424
895.891	3458
896.012	3462
896.134	3428
896.255	3389
896.376	3359
896.498	3329
896.619	3416
896.74	3344
896.861	3401
896.982	3705
897.103	3857
897.224	3591
897.345	3534
897.466	3378
897.587	3450
897.708	3633
897.828	3511
897.949	3496
898.07	3332
898.19	3393
898.311	3603
898.431	3420
898.552	3534
898.672	3595
898.792	3595
898.913	3534
899.033	3416
899.153	3275
899.273	3203
899.393	3272
899.513	3313
899.633	3325
899.753	3351
899.873	3313
899.993	3382
900.113	3332
900.232	3393
900.352	3317
900.472	3287
900.591	3173
900.711	3260
900.83	3214
900.95	3416
901.069	3481
901.189	3370
901.308	3150
901.427	3146
901.546	3173
901.665	3253
901.784	3325
901.904	3207
902.023	3135
902.141	3013
902.26	2990
902.379	3123
902.498	3077
902.617	3058
902.735	3188
902.854	3237
902.973	3199
903.091	3017
903.21	3043
903.328	3154
903.446	3062
903.565	3089
903.683	3253
903.801	3085
903.919	3207
904.038	3294
904.156	3180
904.274	3272
904.392	3291
904.51	3245
904.627	3294
904.745	3431
904.863	3492
904.981	3249
905.098	3150
905.216	3256
905.334	3264
905.451	3313
905.569	3302
905.686	3409
905.803	3431
905.921	3260
906.038	3431
906.155	3355
906.272	3260
906.389	3332
906.506	3188
906.623	3253
906.74	3249
906.857	3146
906.974	3245
907.091	3450
907.208	3564
907.324	3466
907.441	3378
907.557	3226
907.674	3237
907.79	3211
907.907	3291
908.023	3393
908.139	3321
908.256	3336
908.372	3355
908.488	3340
908.604	3245
908.72	3222
908.836	3275
908.952	3283
909.068	3313
909.184	3515
909.3	3363
909.415	3488
909.531	3485
909.647	3272
909.762	3245
909.878	3264
909.993	3378
910.108	3348
910.224	3363
910.339	3450
910.454	3317
910.57	3332
910.685	3256
910.8	3606
910.915	3507
911.03	3412
911.145	3291
911.259	3249
911.374	3291
911.489	3214
911.604	3222
911.718	3085
911.833	3173
911.947	3039
912.062	2956
912.176	3169
912.291	3226
912.405	3176
912.519	3454
912.633	3477
912.748	3306
912.862	3272
912.976	3176
913.09	3032
913.204	3127
913.318	3233
913.431	3321
913.545	3321
913.659	3420
913.772	3336
913.886	3241
914	3211
914.113	3359
914.226	3405
914.34	3344
914.453	3184
914.566	3439
914.68	3275
914.793	3302
914.906	3112
915.019	3123
915.132	3036
915.245	3184
915.358	3203
915.47	3203
915.583	3291
915.696	3268
915.809	3397
915.921	3420
916.034	3275
916.146	3268
916.259	3188
916.371	3378
916.483	3409
916.595	3302
916.708	3313
916.82	3336
916.932	3317
917.044	3344
917.156	3325
917.268	3249
917.38	3325
917.491	3272
917.603	3374
917.715	3431
917.826	3466
917.938	3359
918.049	3291
918.161	3435
918.272	3629
918.384	3606
918.495	3500
918.606	3363
918.717	3294
918.828	3370
918.939	3409
919.05	3310
919.161	3340
919.272	3176
919.383	3287
919.494	3492
919.604	3641
919.715	3485
919.826	3401
919.936	3450
920.047	3561
920.157	3572
920.267	3751
920.378	3580
920.488	3606
920.598	3774
920.708	3918
920.818	3804
920.928	3812
921.038	4029
921.148	3979
921.258	3732
921.368	3629
921.477	3568
921.587	3534
921.697	3466
921.806	3599
921.916	3561
922.025	3359
922.134	3389
922.244	3325
922.353	3435
922.462	3264
922.571	3226
922.68	3081
922.789	3074
922.898	3150
923.007	3074
923.116	3253
923.224	3165
923.333	3165
923.442	3097
923.55	3062
923.659	3127
923.767	3222
923.876	3100
923.984	3245
924.092	3108
924.201	3195
924.309	3226
924.417	3226
924.525	3173
924.633	3207
924.741	3987
924.849	3017
924.956	3237
925.064	3070
925.172	3024
925.279	3100
925.387	3230
925.494	3222
925.602	3355
925.709	3291
925.816	3112
925.924	3241
926.031	3378
926.138	3306
926.245	3374
926.352	3253
926.459	3374
926.566	3473
926.673	3279
926.779	3245
926.886	3195
926.993	3131
927.099	3135
927.206	3100
927.312	3146
927.419	3218
927.525	3157
927.631	3264
927.737	3154
927.843	3108
927.95	3028
928.056	3108
928.162	3150
928.267	3264
928.373	3884
928.479	3291
928.585	3043
928.69	3195
928.796	3313
928.901	3199
929.007	3036
929.112	3180
929.218	3169
929.323	3146
929.428	3173
929.533	3294
929.638	3108
929.743	3142
929.848	3214
929.953	3218
930.058	3146
930.163	3051
930.267	3062
930.372	3195
930.477	3013
930.581	3355
930.685	3199
930.79	3028
930.894	3085
930.998	3100
931.103	3260
931.207	2952
931.311	2922
931.415	2922
931.519	2807
931.623	2815
