Data from test_V78500241_1553.txt Node
Date: Fri Mar 25 16:25:57 CST 2022
User: usil
Spectrometer: V785-0024
Trigger mode: 0
Integration Time (sec): 4.000000E-1
Scans to average: 1
Nonlinearity correction enabled: false
Boxcar width: 0
Storing dark spectrum: false
XAxis mode: Wavelengths
Number of Pixels in Spectrum: 1024
>>>>>Begin Spectral Data<<<<<
801.071	2941
801.214	2979
801.356	2876
801.499	2922
801.641	2857
801.783	2937
801.926	3093
802.068	3013
802.211	3043
802.353	3077
802.496	2960
802.638	3024
802.78	3055
802.923	3070
803.065	2990
803.208	2899
803.35	2922
803.492	2956
803.635	2937
803.777	2777
803.919	2883
804.061	3184
804.204	2967
804.346	2929
804.488	2849
804.63	2975
804.773	2895
804.915	2948
805.057	3089
805.199	2887
805.341	3005
805.483	3070
805.626	3024
805.768	2963
805.91	3112
806.052	3150
806.194	3032
806.336	3253
806.478	3024
806.62	2990
806.762	2982
806.904	3074
807.046	3199
807.188	2998
807.33	2933
807.472	2979
807.614	2906
807.756	3005
807.898	2967
808.04	2922
808.182	2967
808.324	2967
808.465	2880
808.607	2838
808.749	2788
808.891	2792
809.033	3001
809.174	2994
809.316	2902
809.458	2883
809.6	2826
809.741	2762
809.883	2807
810.025	2838
810.166	2845
810.308	2823
810.45	2849
810.591	2788
810.733	2792
810.875	2834
811.016	2781
811.158	2769
811.299	2815
811.441	2933
811.582	2929
811.724	2842
811.865	2826
812.007	2933
812.148	2895
812.29	2830
812.431	2872
812.573	2975
812.714	2994
812.855	3104
812.997	3055
813.138	3112
813.279	3017
813.421	3009
813.562	2979
813.703	2887
813.845	2887
813.986	2773
814.127	2727
814.268	2861
814.41	2849
814.551	2811
814.692	2842
814.833	2861
814.974	2891
815.115	3009
815.256	2864
815.397	2826
815.539	2864
815.68	2804
815.821	2788
815.962	2948
816.103	2910
816.244	2899
816.385	2872
816.526	2979
816.666	2922
816.807	2739
816.948	2876
817.089	2914
817.23	2868
817.371	2769
817.512	2800
817.653	2861
817.793	2826
817.934	2872
818.075	2979
818.216	2971
818.356	3055
818.497	2880
818.638	2811
818.778	2838
818.919	2785
819.06	2769
819.2	2857
819.341	2834
819.481	2826
819.622	2944
819.762	3066
819.903	3047
820.043	2929
820.184	2918
820.324	2887
820.465	3009
820.605	2994
820.746	3062
820.886	2937
821.026	3089
821.167	3161
821.307	3268
821.447	3275
821.588	3249
821.728	3188
821.868	3230
822.008	3089
822.149	3199
822.289	3192
822.429	3089
822.569	3097
822.709	3165
822.849	3036
822.99	3055
823.13	3157
823.27	3207
823.41	3085
823.55	3157
823.69	3161
823.83	3199
823.97	3112
824.11	3051
824.25	3005
824.389	3070
824.529	3100
824.669	3070
824.809	3192
824.949	3264
825.089	3237
825.228	3180
825.368	3036
825.508	2979
825.648	2979
825.787	3024
825.927	2998
826.067	2979
826.206	2971
826.346	3005
826.485	3097
826.625	3150
826.765	3283
826.904	3222
827.044	2998
827.183	2971
827.323	2906
827.462	3013
827.601	2929
827.741	2899
827.88	2975
828.02	2857
828.159	3001
828.298	3058
828.437	3112
828.577	3001
828.716	3272
828.855	3089
828.994	2906
829.134	2876
829.273	2937
829.412	2849
829.551	2872
829.69	2902
829.829	2986
829.968	3108
830.107	3017
830.246	2990
830.385	2914
830.524	2902
830.663	2811
830.802	2731
830.941	2663
831.08	2655
831.219	2754
831.357	2720
831.496	2944
831.635	2724
831.774	2651
831.913	2689
832.051	2541
832.19	2602
832.329	2686
832.467	2522
832.606	2476
832.744	2533
832.883	2594
833.022	2590
833.16	2655
833.299	2686
833.437	2720
833.576	2705
833.714	2693
833.852	2739
833.991	2785
834.129	2811
834.267	2857
834.406	2811
834.544	2857
834.682	2876
834.821	2834
834.959	3062
835.097	2876
835.235	3081
835.373	3005
835.511	2998
835.65	2937
835.788	2956
835.926	2853
836.064	2796
836.202	2842
836.34	3085
836.478	3135
836.615	3062
836.753	3127
836.891	3203
837.029	3135
837.167	3100
837.305	3055
837.443	3020
837.58	2941
837.718	3119
837.856	3032
837.993	3028
838.131	3089
838.269	3127
838.406	3085
838.544	3093
838.681	2914
838.819	2918
838.956	2826
839.094	2834
839.231	2925
839.369	2994
839.506	3374
839.643	3245
839.781	3032
839.918	2979
840.055	3085
840.193	3047
840.33	3036
840.467	3135
840.604	3173
840.742	3450
840.879	3032
841.016	3013
841.153	3123
841.29	3348
841.427	3302
841.564	3268
841.701	3291
841.838	3195
841.975	3142
842.112	3207
842.249	3077
842.385	3047
842.522	3294
842.659	3093
842.796	3077
842.933	3100
843.069	3024
843.206	3070
843.343	3211
843.479	3085
843.616	3123
843.752	2902
843.889	2864
844.025	3077
844.162	2849
844.298	3055
844.435	2918
844.571	2910
844.708	3047
844.844	3173
844.98	3207
845.117	3169
845.253	3070
845.389	3032
845.525	3127
845.661	3097
845.798	2986
845.934	3131
846.07	3058
846.206	3211
846.342	3321
846.478	3249
846.614	3119
846.75	3032
846.886	3028
847.022	3249
847.158	3176
847.294	3192
847.429	3249
847.565	3207
847.701	3424
847.837	3017
847.972	2982
848.108	3165
848.244	3116
848.379	2963
848.515	2975
848.65	2975
848.786	2963
848.921	3020
849.057	3127
849.192	3184
849.328	3066
849.463	3104
849.598	3047
849.734	3062
849.869	2990
850.004	2937
850.14	2956
850.275	2910
850.41	2834
850.545	2876
850.68	2910
850.815	2929
850.95	2979
851.085	3150
851.22	3112
851.355	3039
851.49	2967
851.625	2982
851.76	2941
851.895	2948
852.03	2914
852.165	3036
852.299	3119
852.434	3176
852.569	3150
852.703	3135
852.838	3264
852.973	3329
853.107	3332
853.242	3138
853.376	3047
853.511	2982
853.645	2998
853.78	3233
853.914	3093
854.048	3085
854.183	3077
854.317	3161
854.451	3294
854.585	3173
854.72	3104
854.854	3199
854.988	3051
855.122	3108
855.256	2994
855.39	3104
855.524	3226
855.658	3207
855.792	3180
855.926	3131
856.06	3264
856.194	3253
856.327	3142
856.461	3066
856.595	3062
856.729	3100
856.862	3195
856.996	3157
857.13	3199
857.263	3241
857.397	3283
857.53	3077
857.664	3184
857.797	3222
857.931	3272
858.064	3142
858.197	3207
858.331	3161
858.464	3097
858.597	3013
858.731	3104
858.864	3112
858.997	3062
859.13	3135
859.263	3131
859.396	3211
859.529	3070
859.662	3043
859.795	3047
859.928	3127
860.061	3260
860.194	3268
860.327	3108
860.46	3108
860.592	3253
860.725	3214
860.858	3249
860.99	3108
861.123	3089
861.256	3047
861.388	3138
861.521	3949
861.653	3009
861.786	3001
861.918	3036
862.05	3028
862.183	3104
862.315	3135
862.447	3199
862.58	3100
862.712	2929
862.844	2872
862.976	3043
863.108	3017
863.24	3275
863.372	2902
863.504	2933
863.636	2956
863.768	3009
863.9	2979
864.032	2944
864.164	2975
864.296	3009
864.428	3097
864.559	3097
864.691	3070
864.823	3062
864.954	3013
865.086	3051
865.217	2998
865.349	2960
865.48	3005
865.612	3032
865.743	3142
865.875	2982
866.006	2952
866.137	2986
866.269	2948
866.4	2918
866.531	2880
866.662	2864
866.793	2872
866.924	2880
867.055	2960
867.186	2933
867.317	2887
867.448	2819
867.579	2834
867.71	2861
867.841	2826
867.972	2899
868.103	2899
868.233	2872
868.364	2902
868.495	2910
868.625	3085
868.756	3180
868.886	2982
869.017	2994
869.147	3173
869.278	3138
869.408	3043
869.539	3020
869.669	3112
869.799	3074
869.929	3108
870.06	3085
870.19	3313
870.32	3287
870.45	3253
870.58	3359
870.71	3431
870.84	3454
870.97	3332
871.1	3237
871.23	3469
871.36	3447
871.489	3310
871.619	3409
871.749	3416
871.879	3450
872.008	3481
872.138	3325
872.267	3249
872.397	3127
872.526	3119
872.656	3020
872.785	3066
872.915	3268
873.044	3283
873.173	3188
873.303	3253
873.432	3237
873.561	3214
873.69	3199
873.819	3112
873.948	3192
874.077	3104
874.206	3058
874.335	3093
874.464	3214
874.593	3363
874.722	3279
874.851	3363
874.979	3370
875.108	3340
875.237	3161
875.365	3165
875.494	3207
875.623	3233
875.751	3100
875.88	3055
876.008	3184
876.136	3245
876.265	3386
876.393	3538
876.521	3416
876.65	3416
876.778	3321
876.906	3230
877.034	3218
877.162	3207
877.29	3192
877.418	3226
877.546	3203
877.674	3222
877.802	3214
877.93	3249
878.058	3192
878.185	3112
878.313	3150
878.441	3214
878.568	3036
878.696	3146
878.824	3253
878.951	3291
879.079	3462
879.206	3606
879.333	3450
879.461	3355
879.588	3378
879.715	3435
879.842	3564
879.97	3367
880.097	3173
880.224	3119
880.351	3199
880.478	3222
880.605	3146
880.732	3218
880.859	3458
880.986	3272
881.112	3325
881.239	3222
881.366	3074
881.493	3066
881.619	3017
881.746	3085
881.872	3047
881.999	3093
882.125	3142
882.252	3249
882.378	3302
882.505	3428
882.631	3233
882.757	3116
882.883	3211
883.01	3203
883.136	3157
883.262	3123
883.388	3108
883.514	3340
883.64	3389
883.766	3317
883.892	3199
884.018	3207
884.143	3428
884.269	3545
884.395	3211
884.52	3150
884.646	3199
884.772	3131
884.897	3108
885.023	3203
885.148	3325
885.274	3382
885.399	3397
885.524	3245
885.65	3272
885.775	3313
885.9	3264
886.025	3393
886.15	3359
886.275	3302
886.4	3249
886.525	3310
886.65	3268
886.775	3279
886.9	3469
887.025	3618
887.149	3393
887.274	3237
887.399	3199
887.523	3214
887.648	3142
887.773	3195
887.897	3325
888.021	3454
888.146	3321
888.27	3409
888.395	3557
888.519	3393
888.643	3454
888.767	3466
888.891	3294
889.015	3233
889.139	3298
889.263	3260
889.387	3405
889.511	3530
889.635	3431
889.759	3283
889.883	3321
890.006	3397
890.13	3488
890.254	3287
890.377	3382
890.501	3176
890.624	3180
890.748	3302
890.871	3165
890.995	3097
891.118	3066
891.241	3199
891.364	3211
891.488	3321
891.611	3192
891.734	3214
891.857	3298
891.98	3237
892.103	3336
892.226	3245
892.349	3207
892.471	3100
892.594	3253
892.717	3279
892.839	3260
892.962	3260
893.085	3348
893.207	3306
893.33	3108
893.452	3184
893.575	3344
893.697	3256
893.819	3473
893.941	3504
894.064	3412
894.186	3226
894.308	3283
894.43	3389
894.552	3507
894.674	3477
894.796	3253
894.918	3279
895.04	3310
895.161	3382
895.283	3382
895.405	3321
895.526	3302
895.648	3397
895.769	3431
895.891	3435
896.012	3485
896.134	3450
896.255	3393
896.376	3374
896.498	3344
896.619	3416
896.74	3370
896.861	3378
896.982	3690
897.103	3781
897.224	3603
897.345	3454
897.466	3416
897.587	3504
897.708	3660
897.828	3507
897.949	3428
898.07	3367
898.19	3420
898.311	3584
898.431	3428
898.552	3507
898.672	3618
898.792	3568
898.913	3485
899.033	3416
899.153	3313
899.273	3233
899.393	3264
899.513	3283
899.633	3306
899.753	3313
899.873	3275
899.993	3344
900.113	3313
900.232	3378
900.352	3340
900.472	3279
900.591	3180
900.711	3245
900.83	3260
900.95	3416
901.069	3481
901.189	3355
901.308	3169
901.427	3138
901.546	3211
901.665	3298
901.784	3355
901.904	3157
902.023	3173
902.141	3020
902.26	2960
902.379	3146
902.498	3085
902.617	3066
902.735	3214
902.854	3222
902.973	3211
903.091	3058
903.21	3036
903.328	3173
903.446	3116
903.565	3127
903.683	3214
903.801	3100
903.919	3222
904.038	3294
904.156	3176
904.274	3287
904.392	3222
904.51	3272
904.627	3321
904.745	3424
904.863	3454
904.981	3260
905.098	3157
905.216	3192
905.334	3260
905.451	3291
905.569	3321
905.686	3431
905.803	3447
905.921	3241
906.038	3450
906.155	3355
906.272	3279
906.389	3321
906.506	3249
906.623	3237
906.74	3249
906.857	3169
906.974	3245
907.091	3439
907.208	3557
907.324	3492
907.441	3317
907.557	3245
907.674	3241
907.79	3214
907.907	3264
908.023	3386
908.139	3351
908.256	3344
908.372	3412
908.488	3348
908.604	3249
908.72	3226
908.836	3226
908.952	3283
909.068	3329
909.184	3469
909.3	3393
909.415	3500
909.531	3500
909.647	3249
909.762	3306
909.878	3298
909.993	3382
910.108	3351
910.224	3344
910.339	3370
910.454	3329
910.57	3291
910.685	3226
910.8	3595
910.915	3538
911.03	3439
911.145	3256
911.259	3264
911.374	3291
911.489	3260
911.604	3203
911.718	3142
911.833	3123
911.947	3047
912.062	2982
912.176	3161
912.291	3233
912.405	3203
912.519	3367
912.633	3466
912.748	3294
912.862	3279
912.976	3123
913.09	3032
913.204	3169
913.318	3226
913.431	3302
913.545	3298
913.659	3424
913.772	3329
913.886	3222
914	3195
914.113	3355
914.226	3466
914.34	3367
914.453	3211
914.566	3424
914.68	3294
914.793	3310
914.906	3150
915.019	3150
915.132	3055
915.245	3199
915.358	3146
915.47	3233
915.583	3268
915.696	3306
915.809	3382
915.921	3443
916.034	3241
916.146	3268
916.259	3237
916.371	3359
916.483	3355
916.595	3253
916.708	3298
916.82	3321
916.932	3294
917.044	3355
917.156	3313
917.268	3226
917.38	3306
917.491	3279
917.603	3405
917.715	3439
917.826	3504
917.938	3386
918.049	3268
918.161	3469
918.272	3572
918.384	3580
918.495	3481
918.606	3332
918.717	3310
918.828	3420
918.939	3420
919.05	3294
919.161	3405
919.272	3169
919.383	3317
919.494	3515
919.604	3644
919.715	3500
919.826	3443
919.936	3439
920.047	3587
920.157	3500
920.267	3793
920.378	3595
920.488	3580
920.598	3778
920.708	3945
920.818	3797
920.928	3797
921.038	4036
921.148	3983
921.258	3713
921.368	3644
921.477	3637
921.587	3534
921.697	3439
921.806	3648
921.916	3519
922.025	3351
922.134	3332
922.244	3279
922.353	3450
922.462	3272
922.571	3211
922.68	3077
922.789	3089
922.898	3131
923.007	3074
923.116	3211
923.224	3146
923.333	3169
923.442	3089
923.55	3093
923.659	3123
923.767	3233
923.876	3135
923.984	3249
924.092	3108
924.201	3199
924.309	3207
924.417	3226
924.525	3176
924.633	3218
924.741	4166
924.849	3043
924.956	3264
925.064	3100
925.172	3020
925.279	3074
925.387	3192
925.494	3169
925.602	3336
925.709	3359
925.816	3154
925.924	3275
926.031	3367
926.138	3298
926.245	3382
926.352	3268
926.459	3424
926.566	3469
926.673	3325
926.779	3241
926.886	3233
926.993	3131
927.099	3119
927.206	3112
927.312	3154
927.419	3249
927.525	3180
927.631	3279
927.737	3119
927.843	3116
927.95	3024
928.056	3119
928.162	3146
928.267	3268
928.373	3759
928.479	3317
928.585	3089
928.69	3211
928.796	3287
928.901	3142
929.007	3047
929.112	3188
929.218	3195
929.323	3154
929.428	3157
929.533	3332
929.638	3097
929.743	3173
929.848	3256
929.953	3226
930.058	3150
930.163	3032
930.267	3036
930.372	3180
930.477	3005
930.581	3351
930.685	3176
930.79	3089
930.894	3131
930.998	3055
931.103	3268
931.207	2918
931.311	2948
931.415	2906
931.519	2769
931.623	2769
