Data from test_V78500241_1805.txt Node
Date: Fri Mar 25 16:27:42 CST 2022
User: usil
Spectrometer: V785-0024
Trigger mode: 0
Integration Time (sec): 4.000000E-1
Scans to average: 1
Nonlinearity correction enabled: false
Boxcar width: 0
Storing dark spectrum: false
XAxis mode: Wavelengths
Number of Pixels in Spectrum: 1024
>>>>>Begin Spectral Data<<<<<
801.071	2933
801.214	2975
801.356	2895
801.499	2906
801.641	2929
801.783	2956
801.926	3077
802.068	2990
802.211	3005
802.353	3032
802.496	3005
802.638	3043
802.78	3024
802.923	3077
803.065	3020
803.208	2902
803.35	2914
803.492	2933
803.635	2944
803.777	2762
803.919	2857
804.061	3207
804.204	2960
804.346	2925
804.488	2849
804.63	2998
804.773	2880
804.915	2952
805.057	3116
805.199	2914
805.341	2971
805.483	3051
805.626	3005
805.768	2979
805.91	3097
806.052	3154
806.194	3058
806.336	3298
806.478	3039
806.62	2979
806.762	2982
806.904	3055
807.046	3184
807.188	3005
807.33	2944
807.472	3028
807.614	2952
807.756	2982
807.898	2979
808.04	2937
808.182	3009
808.324	2975
808.465	2895
808.607	2925
808.749	2807
808.891	2868
809.033	2967
809.174	3005
809.316	2887
809.458	2899
809.6	2800
809.741	2777
809.883	2769
810.025	2861
810.166	2838
810.308	2880
810.45	2868
810.591	2777
810.733	2777
810.875	2838
811.016	2800
811.158	2781
811.299	2864
811.441	2929
811.582	2929
811.724	2830
811.865	2880
812.007	2952
812.148	2918
812.29	2883
812.431	2899
812.573	2963
812.714	2994
812.855	3051
812.997	3047
813.138	3157
813.279	3028
813.421	2994
813.562	2963
813.703	2887
813.845	2929
813.986	2819
814.127	2746
814.268	2842
814.41	2819
814.551	2785
814.692	2849
814.833	2838
814.974	2925
815.115	2941
815.256	2861
815.397	2872
815.539	2883
815.68	2804
815.821	2796
815.962	2975
816.103	2956
816.244	2880
816.385	2925
816.526	3009
816.666	2922
816.807	2758
816.948	2906
817.089	2902
817.23	2872
817.371	2811
817.512	2800
817.653	2906
817.793	2819
817.934	2880
818.075	2975
818.216	2998
818.356	3058
818.497	2880
818.638	2811
818.778	2823
818.919	2823
819.06	2788
819.2	2902
819.341	2815
819.481	2834
819.622	2914
819.762	3123
819.903	3074
820.043	2952
820.184	2899
820.324	2910
820.465	3020
820.605	3032
820.746	3058
820.886	2994
821.026	3070
821.167	3142
821.307	3306
821.447	3272
821.588	3222
821.728	3211
821.868	3222
822.008	3100
822.149	3195
822.289	3249
822.429	3108
822.569	3077
822.709	3211
822.849	3009
822.99	3036
823.13	3138
823.27	3203
823.41	3165
823.55	3150
823.69	3176
823.83	3218
823.97	3112
824.11	3013
824.25	2998
824.389	3055
824.529	3131
824.669	3055
824.809	3241
824.949	3272
825.089	3233
825.228	3207
825.368	3028
825.508	2975
825.648	3009
825.787	3020
825.927	3039
826.067	2990
826.206	2990
826.346	3074
826.485	3097
826.625	3104
826.765	3283
826.904	3226
827.044	3009
827.183	2990
827.323	2857
827.462	3009
827.601	2922
827.741	2971
827.88	2963
828.02	2857
828.159	2956
828.298	3081
828.437	3108
828.577	3013
828.716	3233
828.855	3123
828.994	2933
829.134	2887
829.273	2952
829.412	2853
829.551	2857
829.69	2906
829.829	2986
829.968	3157
830.107	3055
830.246	3062
830.385	2941
830.524	2891
830.663	2811
830.802	2735
830.941	2629
831.08	2674
831.219	2735
831.357	2750
831.496	2986
831.635	2716
831.774	2667
831.913	2655
832.051	2575
832.19	2583
832.329	2712
832.467	2526
832.606	2499
832.744	2571
832.883	2587
833.022	2617
833.16	2651
833.299	2697
833.437	2701
833.576	2705
833.714	2701
833.852	2731
833.991	2781
834.129	2834
834.267	2868
834.406	2815
834.544	2868
834.682	2895
834.821	2872
834.959	3062
835.097	2895
835.235	3047
835.373	2994
835.511	3066
835.65	2960
835.788	2948
835.926	2834
836.064	2804
836.202	2857
836.34	3077
836.478	3188
836.615	3051
836.753	3138
836.891	3180
837.029	3211
837.167	3116
837.305	3058
837.443	3055
837.58	2982
837.718	3135
837.856	3081
837.993	3055
838.131	3100
838.269	3112
838.406	3100
838.544	3146
838.681	2941
838.819	2922
838.956	2872
839.094	2819
839.231	2918
839.369	3055
839.506	3351
839.643	3226
839.781	2998
839.918	2933
840.055	3020
840.193	3089
840.33	3062
840.467	3070
840.604	3169
840.742	3374
840.879	3032
841.016	3055
841.153	3089
841.29	3336
841.427	3298
841.564	3287
841.701	3332
841.838	3195
841.975	3173
842.112	3184
842.249	3108
842.385	3055
842.522	3241
842.659	3066
842.796	3043
842.933	3104
843.069	3074
843.206	3028
843.343	3211
843.479	3119
843.616	3146
843.752	2948
843.889	2918
844.025	3097
844.162	2868
844.298	3062
844.435	2918
844.571	2899
844.708	3039
844.844	3184
844.98	3241
845.117	3188
845.253	3051
845.389	3020
845.525	3123
845.661	3062
845.798	2998
845.934	3119
846.07	3119
846.206	3241
846.342	3344
846.478	3230
846.614	3104
846.75	3043
846.886	3005
847.022	3226
847.158	3154
847.294	3203
847.429	3256
847.565	3226
847.701	3530
847.837	3005
847.972	2998
848.108	3161
848.244	3161
848.379	2971
848.515	2952
848.65	2925
848.786	2952
848.921	3020
849.057	3119
849.192	3127
849.328	3081
849.463	3097
849.598	3089
849.734	3032
849.869	2986
850.004	2887
850.14	2963
850.275	2944
850.41	2861
850.545	2887
850.68	2948
850.815	2979
850.95	2986
851.085	3192
851.22	3123
851.355	3051
851.49	2944
851.625	2979
851.76	3051
851.895	2960
852.03	2910
852.165	3055
852.299	3100
852.434	3184
852.569	3142
852.703	3154
852.838	3253
852.973	3378
853.107	3351
853.242	3169
853.376	3062
853.511	2952
853.645	3047
853.78	3222
853.914	3089
854.048	3093
854.183	3097
854.317	3180
854.451	3256
854.585	3077
854.72	3077
854.854	3245
854.988	3043
855.122	3081
855.256	2971
855.39	3146
855.524	3272
855.658	3165
855.792	3135
855.926	3173
856.06	3173
856.194	3260
856.327	3184
856.461	3055
856.595	3100
856.729	3089
856.862	3233
856.996	3154
857.13	3211
857.263	3253
857.397	3256
857.53	3100
857.664	3184
857.797	3214
857.931	3241
858.064	3154
858.197	3226
858.331	3173
858.464	3104
858.597	3036
858.731	3100
858.864	3142
858.997	3070
859.13	3131
859.263	3195
859.396	3222
859.529	3100
859.662	3116
859.795	3062
859.928	3142
860.061	3291
860.194	3275
860.327	3146
860.46	3093
860.592	3241
860.725	3226
860.858	3268
860.99	3108
861.123	3032
861.256	3100
861.388	3138
861.521	3846
861.653	3036
861.786	3005
861.918	3001
862.05	3032
862.183	3070
862.315	3150
862.447	3154
862.58	3081
862.712	2902
862.844	2864
862.976	3032
863.108	2998
863.24	3420
863.372	2864
863.504	2948
863.636	2948
863.768	3024
863.9	2994
864.032	2906
864.164	2986
864.296	3020
864.428	3104
864.559	3089
864.691	3032
864.823	3032
864.954	3036
865.086	3043
865.217	2982
865.349	2952
865.48	2979
865.612	2986
865.743	3104
865.875	2986
866.006	2952
866.137	3001
866.269	2941
866.4	2952
866.531	2902
866.662	2895
866.793	2925
866.924	2902
867.055	2967
867.186	2910
867.317	2895
867.448	2861
867.579	2845
867.71	2823
867.841	2796
867.972	2914
868.103	2880
868.233	2895
868.364	2857
868.495	2914
868.625	3093
868.756	3154
868.886	2948
869.017	3024
869.147	3165
869.278	3161
869.408	3058
869.539	3017
869.669	3116
869.799	3066
869.929	3081
870.06	3108
870.19	3317
870.32	3272
870.45	3302
870.58	3401
870.71	3447
870.84	3458
870.97	3256
871.1	3249
871.23	3473
871.36	3401
871.489	3359
871.619	3363
871.749	3431
871.879	3447
872.008	3473
872.138	3382
872.267	3287
872.397	3135
872.526	3123
872.656	3028
872.785	3100
872.915	3214
873.044	3321
873.173	3211
873.303	3214
873.432	3241
873.561	3253
873.69	3157
873.819	3157
873.948	3184
874.077	3104
874.206	3036
874.335	3093
874.464	3226
874.593	3336
874.722	3253
874.851	3386
874.979	3348
875.108	3317
875.237	3222
875.365	3169
875.494	3184
875.623	3279
875.751	3093
875.88	3070
876.008	3131
876.136	3233
876.265	3374
876.393	3523
876.521	3439
876.65	3389
876.778	3332
876.906	3275
877.034	3195
877.162	3207
877.29	3188
877.418	3249
877.546	3272
877.674	3233
877.802	3233
877.93	3184
878.058	3165
878.185	3119
878.313	3203
878.441	3192
878.568	3077
878.696	3123
878.824	3275
878.951	3294
879.079	3477
879.206	3599
879.333	3473
879.461	3340
879.588	3378
879.715	3496
879.842	3561
879.97	3370
880.097	3176
880.224	3131
880.351	3211
880.478	3188
880.605	3169
880.732	3180
880.859	3481
880.986	3294
881.112	3283
881.239	3192
881.366	3112
881.493	3074
881.619	3013
881.746	3089
881.872	3085
881.999	3104
882.125	3119
882.252	3218
882.378	3256
882.505	3431
882.631	3275
882.757	3138
882.883	3188
883.01	3211
883.136	3161
883.262	3100
883.388	3104
883.514	3310
883.64	3370
883.766	3283
883.892	3184
884.018	3214
884.143	3401
884.269	3568
884.395	3256
884.52	3150
884.646	3169
884.772	3108
884.897	3093
885.023	3199
885.148	3313
885.274	3412
885.399	3382
885.524	3245
885.65	3256
885.775	3310
885.9	3245
886.025	3420
886.15	3348
886.275	3306
886.4	3268
886.525	3344
886.65	3272
886.775	3256
886.9	3477
887.025	3606
887.149	3409
887.274	3233
887.399	3138
887.523	3203
887.648	3180
887.773	3218
887.897	3397
888.021	3386
888.146	3283
888.27	3447
888.395	3500
888.519	3443
888.643	3431
888.767	3462
888.891	3317
889.015	3272
889.139	3279
889.263	3233
889.387	3420
889.511	3534
889.635	3443
889.759	3306
889.883	3294
890.006	3382
890.13	3504
890.254	3249
890.377	3321
890.501	3211
890.624	3188
890.748	3332
890.871	3184
890.995	3100
891.118	3066
891.241	3184
891.364	3245
891.488	3340
891.611	3176
891.734	3233
891.857	3306
891.98	3230
892.103	3359
892.226	3313
892.349	3203
892.471	3123
892.594	3233
892.717	3294
892.839	3275
892.962	3302
893.085	3355
893.207	3291
893.33	3180
893.452	3230
893.575	3378
893.697	3249
893.819	3439
893.941	3462
894.064	3450
894.186	3294
894.308	3245
894.43	3450
894.552	3534
894.674	3473
894.796	3237
894.918	3321
895.04	3245
895.161	3348
895.283	3367
895.405	3340
895.526	3382
895.648	3409
895.769	3412
895.891	3428
896.012	3462
896.134	3496
896.255	3409
896.376	3389
896.498	3313
896.619	3374
896.74	3313
896.861	3367
896.982	3660
897.103	3819
897.224	3641
897.345	3519
897.466	3431
897.587	3488
897.708	3622
897.828	3553
897.949	3458
898.07	3321
898.19	3348
898.311	3564
898.431	3466
898.552	3496
898.672	3587
898.792	3584
898.913	3500
899.033	3462
899.153	3260
899.273	3195
899.393	3310
899.513	3291
899.633	3283
899.753	3363
899.873	3310
899.993	3359
900.113	3348
900.232	3397
900.352	3302
900.472	3329
900.591	3214
900.711	3298
900.83	3214
900.95	3397
901.069	3496
901.189	3359
901.308	3203
901.427	3127
901.546	3176
901.665	3264
901.784	3302
901.904	3233
902.023	3093
902.141	3013
902.26	2986
902.379	3173
902.498	3070
902.617	3028
902.735	3203
902.854	3256
902.973	3180
903.091	3036
903.21	3066
903.328	3146
903.446	3142
903.565	3097
903.683	3203
903.801	3165
903.919	3245
904.038	3302
904.156	3146
904.274	3253
904.392	3253
904.51	3306
904.627	3302
904.745	3435
904.863	3469
904.981	3249
905.098	3199
905.216	3195
905.334	3294
905.451	3317
905.569	3325
905.686	3405
905.803	3462
905.921	3272
906.038	3443
906.155	3351
906.272	3256
906.389	3336
906.506	3249
906.623	3272
906.74	3245
906.857	3195
906.974	3211
907.091	3466
907.208	3549
907.324	3466
907.441	3401
907.557	3237
907.674	3233
907.79	3241
907.907	3253
908.023	3367
908.139	3359
908.256	3298
908.372	3378
908.488	3359
908.604	3253
908.72	3233
908.836	3279
908.952	3306
909.068	3321
909.184	3511
909.3	3378
909.415	3519
909.531	3477
909.647	3275
909.762	3279
909.878	3237
909.993	3321
910.108	3344
910.224	3313
910.339	3393
910.454	3321
910.57	3321
910.685	3233
910.8	3587
910.915	3538
911.03	3431
911.145	3279
911.259	3275
911.374	3283
911.489	3249
911.604	3230
911.718	3089
911.833	3169
911.947	3039
912.062	2990
912.176	3150
912.291	3173
912.405	3218
912.519	3416
912.633	3462
912.748	3317
912.862	3268
912.976	3169
913.09	3058
913.204	3119
913.318	3203
913.431	3359
913.545	3386
913.659	3439
913.772	3344
913.886	3241
914	3233
914.113	3363
914.226	3412
914.34	3344
914.453	3222
914.566	3401
914.68	3256
914.793	3329
914.906	3157
915.019	3070
915.132	3062
915.245	3131
915.358	3256
915.47	3192
915.583	3302
915.696	3283
915.809	3397
915.921	3428
916.034	3272
916.146	3268
916.259	3241
916.371	3389
916.483	3351
916.595	3268
916.708	3363
916.82	3306
916.932	3367
917.044	3363
917.156	3336
917.268	3249
917.38	3287
917.491	3317
917.603	3355
917.715	3435
917.826	3462
917.938	3378
918.049	3275
918.161	3431
918.272	3580
918.384	3572
918.495	3492
918.606	3329
918.717	3325
918.828	3363
918.939	3397
919.05	3275
919.161	3351
919.272	3203
919.383	3302
919.494	3511
919.604	3682
919.715	3496
919.826	3393
919.936	3477
920.047	3603
920.157	3553
920.267	3724
920.378	3584
920.488	3568
920.598	3778
920.708	3953
920.818	3850
920.928	3800
921.038	4017
921.148	3956
921.258	3705
921.368	3675
921.477	3564
921.587	3500
921.697	3507
921.806	3622
921.916	3469
922.025	3340
922.134	3397
922.244	3302
922.353	3458
922.462	3268
922.571	3237
922.68	3100
922.789	3108
922.898	3154
923.007	3093
923.116	3214
923.224	3138
923.333	3192
923.442	3108
923.55	3108
923.659	3157
923.767	3233
923.876	3135
923.984	3237
924.092	3123
924.201	3207
924.309	3237
924.417	3241
924.525	3211
924.633	3230
924.741	4021
924.849	3051
924.956	3256
925.064	3138
925.172	3032
925.279	3112
925.387	3203
925.494	3188
925.602	3386
925.709	3332
925.816	3116
925.924	3256
926.031	3386
926.138	3336
926.245	3336
926.352	3253
926.459	3405
926.566	3443
926.673	3321
926.779	3230
926.886	3245
926.993	3142
927.099	3138
927.206	3093
927.312	3100
927.419	3249
927.525	3218
927.631	3291
927.737	3138
927.843	3116
927.95	3039
928.056	3127
928.162	3199
928.267	3249
928.373	3755
928.479	3275
928.585	3070
928.69	3214
928.796	3264
928.901	3218
929.007	3058
929.112	3203
929.218	3157
929.323	3142
929.428	3157
929.533	3279
929.638	3154
929.743	3165
929.848	3291
929.953	3214
930.058	3131
930.163	3024
930.267	3070
930.372	3173
930.477	3020
930.581	3340
930.685	3142
930.79	3077
930.894	3112
930.998	3081
931.103	3317
931.207	2963
931.311	2937
931.415	2922
931.519	2758
931.623	2800
