Data from test_V78500241_1483.txt Node
Date: Fri Mar 25 16:25:28 CST 2022
User: usil
Spectrometer: V785-0024
Trigger mode: 0
Integration Time (sec): 4.000000E-1
Scans to average: 1
Nonlinearity correction enabled: false
Boxcar width: 0
Storing dark spectrum: false
XAxis mode: Wavelengths
Number of Pixels in Spectrum: 1024
>>>>>Begin Spectral Data<<<<<
801.071	2929
801.214	2937
801.356	2853
801.499	2914
801.641	2872
801.783	2906
801.926	3032
802.068	2994
802.211	2975
802.353	3020
802.496	2967
802.638	3013
802.78	3009
802.923	3074
803.065	2979
803.208	2872
803.35	2906
803.492	2925
803.635	2910
803.777	2735
803.919	2864
804.061	3180
804.204	2929
804.346	2910
804.488	2826
804.63	2975
804.773	2876
804.915	2910
805.057	3055
805.199	2922
805.341	2944
805.483	3024
805.626	3039
805.768	2956
805.91	3066
806.052	3089
806.194	3009
806.336	3287
806.478	3013
806.62	2918
806.762	2952
806.904	3074
807.046	3176
807.188	2982
807.33	2891
807.472	2975
807.614	2880
807.756	2963
807.898	2887
808.04	2902
808.182	2990
808.324	2948
808.465	2902
808.607	2838
808.749	2762
808.891	2861
809.033	2956
809.174	2975
809.316	2849
809.458	2902
809.6	2769
809.741	2750
809.883	2788
810.025	2853
810.166	2883
810.308	2804
810.45	2845
810.591	2773
810.733	2773
810.875	2845
811.016	2819
811.158	2766
811.299	2838
811.441	2887
811.582	2880
811.724	2823
811.865	2826
812.007	2906
812.148	2880
812.29	2853
812.431	2872
812.573	2952
812.714	2979
812.855	3032
812.997	3043
813.138	3131
813.279	2971
813.421	2963
813.562	2910
813.703	2864
813.845	2872
813.986	2762
814.127	2712
814.268	2819
814.41	2800
814.551	2845
814.692	2857
814.833	2815
814.974	2849
815.115	2925
815.256	2807
815.397	2804
815.539	2826
815.68	2735
815.821	2792
815.962	2952
816.103	2891
816.244	2876
816.385	2872
816.526	2948
816.666	2906
816.807	2731
816.948	2849
817.089	2906
817.23	2830
817.371	2788
817.512	2781
817.653	2823
817.793	2849
817.934	2895
818.075	2971
818.216	2979
818.356	3024
818.497	2918
818.638	2766
818.778	2811
818.919	2823
819.06	2777
819.2	2864
819.341	2788
819.481	2785
819.622	2902
819.762	3066
819.903	3028
820.043	2895
820.184	2868
820.324	2902
820.465	3043
820.605	3020
820.746	3001
820.886	2956
821.026	3058
821.167	3157
821.307	3249
821.447	3291
821.588	3253
821.728	3218
821.868	3184
822.008	3081
822.149	3192
822.289	3207
822.429	3039
822.569	3051
822.709	3165
822.849	3039
822.99	3070
823.13	3169
823.27	3207
823.41	3097
823.55	3154
823.69	3157
823.83	3173
823.97	3093
824.11	3001
824.25	2960
824.389	3074
824.529	3108
824.669	3058
824.809	3237
824.949	3256
825.089	3218
825.228	3157
825.368	2994
825.508	2941
825.648	2990
825.787	3020
825.927	2982
826.067	2948
826.206	2975
826.346	3028
826.485	3135
826.625	3135
826.765	3272
826.904	3203
827.044	2982
827.183	2925
827.323	2880
827.462	2960
827.601	2899
827.741	2952
827.88	2941
828.02	2845
828.159	2956
828.298	3032
828.437	3112
828.577	3039
828.716	3253
828.855	3047
828.994	2899
829.134	2891
829.273	2925
829.412	2857
829.551	2868
829.69	2910
829.829	2982
829.968	3119
830.107	3009
830.246	3036
830.385	2948
830.524	2880
830.663	2792
830.802	2769
830.941	2632
831.08	2655
831.219	2750
831.357	2773
831.496	2914
831.635	2762
831.774	2636
831.913	2655
832.051	2556
832.19	2598
832.329	2655
832.467	2507
832.606	2476
832.744	2560
832.883	2571
833.022	2590
833.16	2613
833.299	2686
833.437	2708
833.576	2689
833.714	2727
833.852	2716
833.991	2754
834.129	2838
834.267	2830
834.406	2762
834.544	2861
834.682	2853
834.821	2861
834.959	3055
835.097	2918
835.235	3066
835.373	2998
835.511	3020
835.65	2971
835.788	2960
835.926	2785
836.064	2777
836.202	2823
836.34	3100
836.478	3154
836.615	3047
836.753	3142
836.891	3195
837.029	3173
837.167	3074
837.305	3070
837.443	2979
837.58	2956
837.718	3131
837.856	3039
837.993	3036
838.131	3097
838.269	3108
838.406	3058
838.544	3104
838.681	2902
838.819	2910
838.956	2823
839.094	2830
839.231	2918
839.369	3028
839.506	3344
839.643	3184
839.781	3051
839.918	2982
840.055	3039
840.193	3070
840.33	3085
840.467	3119
840.604	3154
840.742	3374
840.879	3039
841.016	3058
841.153	3093
841.29	3317
841.427	3329
841.564	3291
841.701	3279
841.838	3203
841.975	3199
842.112	3192
842.249	3058
842.385	3039
842.522	3272
842.659	3116
842.796	3089
842.933	3081
843.069	3032
843.206	2982
843.343	3195
843.479	3100
843.616	3161
843.752	2883
843.889	2868
844.025	3062
844.162	2891
844.298	3089
844.435	2975
844.571	2929
844.708	3074
844.844	3180
844.98	3245
845.117	3169
845.253	3020
845.389	2998
845.525	3112
845.661	3097
845.798	2986
845.934	3085
846.07	3036
846.206	3233
846.342	3291
846.478	3237
846.614	3081
846.75	3032
846.886	3051
847.022	3237
847.158	3127
847.294	3192
847.429	3222
847.565	3253
847.701	3477
847.837	2982
847.972	2998
848.108	3154
848.244	3169
848.379	2971
848.515	2948
848.65	2929
848.786	2925
848.921	3043
849.057	3093
849.192	3142
849.328	3043
849.463	3104
849.598	3074
849.734	2986
849.869	2941
850.004	2895
850.14	2948
850.275	2918
850.41	2834
850.545	2899
850.68	2960
850.815	2952
850.95	2967
851.085	3218
851.22	3116
851.355	3043
851.49	2990
851.625	3013
851.76	3058
851.895	2941
852.03	2933
852.165	3013
852.299	3085
852.434	3161
852.569	3131
852.703	3188
852.838	3226
852.973	3344
853.107	3310
853.242	3104
853.376	3085
853.511	2998
853.645	3020
853.78	3222
853.914	3119
854.048	3100
854.183	3093
854.317	3146
854.451	3298
854.585	3089
854.72	3032
854.854	3211
854.988	3047
855.122	3100
855.256	2960
855.39	3089
855.524	3214
855.658	3161
855.792	3176
855.926	3199
856.06	3253
856.194	3256
856.327	3123
856.461	3074
856.595	3097
856.729	3074
856.862	3173
856.996	3165
857.13	3195
857.263	3230
857.397	3275
857.53	3104
857.664	3184
857.797	3214
857.931	3253
858.064	3154
858.197	3199
858.331	3123
858.464	3070
858.597	3009
858.731	3097
858.864	3142
858.997	3058
859.13	3135
859.263	3192
859.396	3161
859.529	3074
859.662	3051
859.795	3051
859.928	3104
860.061	3275
860.194	3268
860.327	3135
860.46	3085
860.592	3207
860.725	3222
860.858	3226
860.99	3085
861.123	3055
861.256	3074
861.388	3157
861.521	3857
861.653	2986
861.786	2967
861.918	3024
862.05	3074
862.183	3070
862.315	3127
862.447	3199
862.58	3055
862.712	2948
862.844	2868
862.976	3001
863.108	2986
863.24	3348
863.372	2872
863.504	2941
863.636	2937
863.768	3013
863.9	2979
864.032	2883
864.164	2960
864.296	2994
864.428	3093
864.559	3074
864.691	3047
864.823	3077
864.954	3005
865.086	3058
865.217	2979
865.349	2944
865.48	3009
865.612	2998
865.743	3112
865.875	2982
866.006	2948
866.137	2956
866.269	2937
866.4	2910
866.531	2918
866.662	2895
866.793	2910
866.924	2902
867.055	2998
867.186	2922
867.317	2868
867.448	2830
867.579	2845
867.71	2819
867.841	2785
867.972	2883
868.103	2925
868.233	2872
868.364	2830
868.495	2899
868.625	3024
868.756	3123
868.886	2948
869.017	3001
869.147	3135
869.278	3127
869.408	3077
869.539	3043
869.669	3070
869.799	3055
869.929	3138
870.06	3104
870.19	3321
870.32	3294
870.45	3340
870.58	3389
870.71	3466
870.84	3431
870.97	3306
871.1	3241
871.23	3473
871.36	3447
871.489	3340
871.619	3370
871.749	3374
871.879	3428
872.008	3496
872.138	3382
872.267	3272
872.397	3119
872.526	3116
872.656	2982
872.785	3047
872.915	3222
873.044	3264
873.173	3233
873.303	3233
873.432	3226
873.561	3237
873.69	3157
873.819	3146
873.948	3195
874.077	3085
874.206	3066
874.335	3081
874.464	3184
874.593	3321
874.722	3214
874.851	3389
874.979	3344
875.108	3272
875.237	3161
875.365	3173
875.494	3150
875.623	3241
875.751	3104
875.88	3123
876.008	3226
876.136	3237
876.265	3409
876.393	3511
876.521	3428
876.65	3378
876.778	3310
876.906	3233
877.034	3222
877.162	3230
877.29	3203
877.418	3218
877.546	3233
877.674	3237
877.802	3230
877.93	3203
878.058	3154
878.185	3112
878.313	3214
878.441	3192
878.568	3039
878.696	3165
878.824	3211
878.951	3279
879.079	3435
879.206	3656
879.333	3450
879.461	3359
879.588	3355
879.715	3477
879.842	3618
879.97	3389
880.097	3154
880.224	3131
880.351	3180
880.478	3214
880.605	3173
880.732	3146
880.859	3469
880.986	3279
881.112	3306
881.239	3203
881.366	3051
881.493	3009
881.619	2986
881.746	3062
881.872	3089
881.999	3093
882.125	3131
882.252	3253
882.378	3306
882.505	3431
882.631	3268
882.757	3116
882.883	3237
883.01	3180
883.136	3154
883.262	3081
883.388	3089
883.514	3317
883.64	3340
883.766	3306
883.892	3184
884.018	3237
884.143	3397
884.269	3534
884.395	3207
884.52	3165
884.646	3176
884.772	3108
884.897	3127
885.023	3237
885.148	3332
885.274	3439
885.399	3370
885.524	3283
885.65	3260
885.775	3340
885.9	3249
886.025	3431
886.15	3389
886.275	3329
886.4	3230
886.525	3253
886.65	3275
886.775	3298
886.9	3492
887.025	3652
887.149	3359
887.274	3268
887.399	3180
887.523	3218
887.648	3169
887.773	3222
887.897	3351
888.021	3382
888.146	3306
888.27	3447
888.395	3492
888.519	3450
888.643	3431
888.767	3473
888.891	3329
889.015	3268
889.139	3253
889.263	3245
889.387	3416
889.511	3492
889.635	3462
889.759	3317
889.883	3306
890.006	3389
890.13	3481
890.254	3279
890.377	3332
890.501	3188
890.624	3165
890.748	3302
890.871	3180
890.995	3104
891.118	3085
891.241	3192
891.364	3199
891.488	3313
891.611	3138
891.734	3245
891.857	3260
891.98	3245
892.103	3405
892.226	3233
892.349	3226
892.471	3104
892.594	3237
892.717	3310
892.839	3230
892.962	3279
893.085	3344
893.207	3306
893.33	3135
893.452	3211
893.575	3317
893.697	3226
893.819	3431
893.941	3504
894.064	3450
894.186	3279
894.308	3287
894.43	3424
894.552	3515
894.674	3462
894.796	3294
894.918	3302
895.04	3272
895.161	3389
895.283	3393
895.405	3283
895.526	3363
895.648	3443
895.769	3439
895.891	3374
896.012	3447
896.134	3515
896.255	3412
896.376	3359
896.498	3348
896.619	3462
896.74	3332
896.861	3397
896.982	3667
897.103	3850
897.224	3572
897.345	3496
897.466	3431
897.587	3488
897.708	3633
897.828	3584
897.949	3393
898.07	3332
898.19	3409
898.311	3622
898.431	3401
898.552	3504
898.672	3557
898.792	3545
898.913	3504
899.033	3416
899.153	3268
899.273	3211
899.393	3306
899.513	3302
899.633	3313
899.753	3313
899.873	3298
899.993	3374
900.113	3298
900.232	3370
900.352	3370
900.472	3294
900.591	3230
900.711	3264
900.83	3207
900.95	3405
901.069	3523
901.189	3359
901.308	3180
901.427	3142
901.546	3203
901.665	3291
901.784	3348
901.904	3203
902.023	3173
902.141	3009
902.26	3020
902.379	3093
902.498	3066
902.617	3043
902.735	3199
902.854	3211
902.973	3184
903.091	3058
903.21	3066
903.328	3135
903.446	3081
903.565	3119
903.683	3188
903.801	3131
903.919	3211
904.038	3275
904.156	3142
904.274	3279
904.392	3272
904.51	3279
904.627	3336
904.745	3420
904.863	3481
904.981	3279
905.098	3173
905.216	3233
905.334	3275
905.451	3302
905.569	3306
905.686	3401
905.803	3416
905.921	3321
906.038	3412
906.155	3351
906.272	3313
906.389	3344
906.506	3211
906.623	3241
906.74	3260
906.857	3203
906.974	3283
907.091	3481
907.208	3576
907.324	3447
907.441	3393
907.557	3249
907.674	3222
907.79	3222
907.907	3245
908.023	3401
908.139	3355
908.256	3306
908.372	3370
908.488	3374
908.604	3233
908.72	3253
908.836	3291
908.952	3291
909.068	3340
909.184	3466
909.3	3374
909.415	3519
909.531	3477
909.647	3245
909.762	3291
909.878	3272
909.993	3367
910.108	3283
910.224	3344
910.339	3447
910.454	3359
910.57	3291
910.685	3245
910.8	3580
910.915	3542
911.03	3409
911.145	3275
911.259	3283
911.374	3306
911.489	3275
911.604	3211
911.718	3119
911.833	3169
911.947	3055
912.062	2975
912.176	3142
912.291	3222
912.405	3188
912.519	3416
912.633	3431
912.748	3329
912.862	3245
912.976	3154
913.09	3055
913.204	3138
913.318	3218
913.431	3348
913.545	3321
913.659	3409
913.772	3313
913.886	3211
914	3165
914.113	3310
914.226	3363
914.34	3374
914.453	3214
914.566	3412
914.68	3298
914.793	3329
914.906	3100
915.019	3097
915.132	3104
915.245	3161
915.358	3176
915.47	3230
915.583	3302
915.696	3306
915.809	3412
915.921	3382
916.034	3283
916.146	3260
916.259	3211
916.371	3367
916.483	3332
916.595	3218
916.708	3302
916.82	3351
916.932	3317
917.044	3378
917.156	3336
917.268	3230
917.38	3287
917.491	3283
917.603	3325
917.715	3462
917.826	3477
917.938	3367
918.049	3256
918.161	3431
918.272	3538
918.384	3629
918.495	3523
918.606	3321
918.717	3279
918.828	3363
918.939	3374
919.05	3268
919.161	3374
919.272	3180
919.383	3306
919.494	3519
919.604	3701
919.715	3500
919.826	3409
919.936	3435
920.047	3553
920.157	3568
920.267	3785
920.378	3587
920.488	3572
920.598	3778
920.708	3953
920.818	3838
920.928	3793
921.038	3994
921.148	4025
921.258	3641
921.368	3595
921.477	3572
921.587	3580
921.697	3473
921.806	3652
921.916	3515
922.025	3336
922.134	3363
922.244	3329
922.353	3409
922.462	3279
922.571	3214
922.68	3089
922.789	3070
922.898	3100
923.007	3070
923.116	3195
923.224	3184
923.333	3203
923.442	3127
923.55	3097
923.659	3146
923.767	3245
923.876	3085
923.984	3237
924.092	3097
924.201	3207
924.309	3214
924.417	3237
924.525	3169
924.633	3268
924.741	4200
924.849	3043
924.956	3260
925.064	3097
925.172	3028
925.279	3104
925.387	3176
925.494	3192
925.602	3332
925.709	3329
925.816	3173
925.924	3260
926.031	3416
926.138	3313
926.245	3363
926.352	3291
926.459	3370
926.566	3435
926.673	3283
926.779	3245
926.886	3260
926.993	3157
927.099	3127
927.206	3066
927.312	3138
927.419	3249
927.525	3230
927.631	3275
927.737	3127
927.843	3100
927.95	3043
928.056	3097
928.162	3207
928.267	3268
928.373	3762
928.479	3317
928.585	3051
928.69	3195
928.796	3268
928.901	3173
929.007	3017
929.112	3207
929.218	3169
929.323	3138
929.428	3154
929.533	3287
929.638	3116
929.743	3165
929.848	3287
929.953	3176
930.058	3157
930.163	3001
930.267	3047
930.372	3199
930.477	3036
930.581	3298
930.685	3161
930.79	3043
930.894	3135
930.998	3070
931.103	3275
931.207	2944
931.311	2925
931.415	2937
931.519	2769
931.623	2826
