Data from test_V78500241_1178.txt Node
Date: Fri Mar 25 16:23:21 CST 2022
User: usil
Spectrometer: V785-0024
Trigger mode: 0
Integration Time (sec): 4.000000E-1
Scans to average: 1
Nonlinearity correction enabled: false
Boxcar width: 0
Storing dark spectrum: false
XAxis mode: Wavelengths
Number of Pixels in Spectrum: 1024
>>>>>Begin Spectral Data<<<<<
801.071	2933
801.214	2990
801.356	2845
801.499	2922
801.641	2880
801.783	2933
801.926	3097
802.068	2971
802.211	3036
802.353	3051
802.496	2971
802.638	3009
802.78	3062
802.923	3047
803.065	3013
803.208	2902
803.35	2906
803.492	2937
803.635	2914
803.777	2766
803.919	2861
804.061	3161
804.204	2944
804.346	2914
804.488	2830
804.63	2944
804.773	2887
804.915	2918
805.057	3058
805.199	2910
805.341	2979
805.483	3058
805.626	2986
805.768	2967
805.91	3097
806.052	3100
806.194	3066
806.336	3245
806.478	2998
806.62	2967
806.762	3009
806.904	3028
807.046	3161
807.188	3009
807.33	2933
807.472	3001
807.614	2914
807.756	2979
807.898	2933
808.04	2868
808.182	2990
808.324	2944
808.465	2861
808.607	2868
808.749	2773
808.891	2853
809.033	2956
809.174	2967
809.316	2902
809.458	2902
809.6	2788
809.741	2777
809.883	2766
810.025	2876
810.166	2868
810.308	2834
810.45	2872
810.591	2773
810.733	2781
810.875	2792
811.016	2800
811.158	2708
811.299	2785
811.441	2963
811.582	2876
811.724	2804
811.865	2830
812.007	2883
812.148	2906
812.29	2823
812.431	2891
812.573	2922
812.714	2960
812.855	3005
812.997	3017
813.138	3116
813.279	3020
813.421	2933
813.562	2944
813.703	2857
813.845	2883
813.986	2758
814.127	2724
814.268	2845
814.41	2830
814.551	2804
814.692	2857
814.833	2773
814.974	2887
815.115	2994
815.256	2819
815.397	2785
815.539	2902
815.68	2750
815.821	2796
815.962	2941
816.103	2937
816.244	2887
816.385	2849
816.526	2975
816.666	2887
816.807	2708
816.948	2902
817.089	2925
817.23	2857
817.371	2807
817.512	2792
817.653	2876
817.793	2819
817.934	2933
818.075	2994
818.216	2967
818.356	3013
818.497	2883
818.638	2788
818.778	2792
818.919	2804
819.06	2739
819.2	2857
819.341	2823
819.481	2842
819.622	2990
819.762	3104
819.903	3062
820.043	2956
820.184	2906
820.324	2937
820.465	3013
820.605	3047
820.746	3036
820.886	2971
821.026	3108
821.167	3184
821.307	3287
821.447	3283
821.588	3260
821.728	3195
821.868	3207
822.008	3089
822.149	3199
822.289	3253
822.429	3062
822.569	3089
822.709	3199
822.849	3036
822.99	3089
823.13	3176
823.27	3237
823.41	3135
823.55	3188
823.69	3173
823.83	3245
823.97	3077
824.11	3039
824.25	3047
824.389	3077
824.529	3131
824.669	3116
824.809	3214
824.949	3332
825.089	3233
825.228	3188
825.368	3036
825.508	2990
825.648	3017
825.787	3047
825.927	3017
826.067	2998
826.206	2982
826.346	3074
826.485	3116
826.625	3161
826.765	3291
826.904	3218
827.044	3009
827.183	2975
827.323	2906
827.462	3020
827.601	2982
827.741	2948
827.88	3009
828.02	2864
828.159	3020
828.298	3074
828.437	3169
828.577	3123
828.716	3279
828.855	3123
828.994	2948
829.134	2922
829.273	2975
829.412	2902
829.551	2876
829.69	2910
829.829	3024
829.968	3161
830.107	3070
830.246	3077
830.385	2975
830.524	2914
830.663	2861
830.802	2766
830.941	2701
831.08	2689
831.219	2800
831.357	2796
831.496	2986
831.635	2792
831.774	2689
831.913	2705
832.051	2598
832.19	2610
832.329	2724
832.467	2556
832.606	2503
832.744	2625
832.883	2632
833.022	2621
833.16	2667
833.299	2712
833.437	2720
833.576	2724
833.714	2766
833.852	2754
833.991	2838
834.129	2872
834.267	2826
834.406	2849
834.544	2906
834.682	2922
834.821	2902
834.959	3108
835.097	2914
835.235	3085
835.373	3013
835.511	3062
835.65	3017
835.788	2963
835.926	2838
836.064	2853
836.202	2891
836.34	3112
836.478	3180
836.615	3070
836.753	3176
836.891	3214
837.029	3173
837.167	3142
837.305	3116
837.443	3081
837.58	2994
837.718	3146
837.856	3104
837.993	3047
838.131	3135
838.269	3142
838.406	3112
838.544	3123
838.681	2971
838.819	2963
838.956	2826
839.094	2864
839.231	2933
839.369	3036
839.506	3424
839.643	3256
839.781	3036
839.918	3005
840.055	3043
840.193	3100
840.33	3100
840.467	3123
840.604	3173
840.742	3481
840.879	3150
841.016	3089
841.153	3188
841.29	3363
841.427	3344
841.564	3310
841.701	3310
841.838	3287
841.975	3192
842.112	3245
842.249	3108
842.385	3024
842.522	3283
842.659	3119
842.796	3104
842.933	3108
843.069	3058
843.206	3055
843.343	3180
843.479	3154
843.616	3131
843.752	2925
843.889	2887
844.025	3138
844.162	2895
844.298	3116
844.435	2994
844.571	2918
844.708	3097
844.844	3195
844.98	3275
845.117	3211
845.253	3081
845.389	3032
845.525	3123
845.661	3108
845.798	3058
845.934	3123
846.07	3104
846.206	3237
846.342	3351
846.478	3256
846.614	3108
846.75	3081
846.886	3047
847.022	3241
847.158	3150
847.294	3237
847.429	3294
847.565	3298
847.701	3496
847.837	3058
847.972	3055
848.108	3180
848.244	3188
848.379	3020
848.515	2994
848.65	2941
848.786	2998
848.921	3043
849.057	3112
849.192	3131
849.328	3123
849.463	3150
849.598	3112
849.734	3097
849.869	3017
850.004	2948
850.14	2971
850.275	2963
850.41	2868
850.545	2918
850.68	2937
850.815	2963
850.95	2982
851.085	3222
851.22	3138
851.355	3097
851.49	2982
851.625	3036
851.76	3036
851.895	2960
852.03	2979
852.165	3036
852.299	3154
852.434	3199
852.569	3127
852.703	3161
852.838	3294
852.973	3336
853.107	3340
853.242	3157
853.376	3089
853.511	3013
853.645	3089
853.78	3249
853.914	3180
854.048	3165
854.183	3104
854.317	3142
854.451	3340
854.585	3116
854.72	3104
854.854	3226
854.988	3085
855.122	3085
855.256	3001
855.39	3135
855.524	3279
855.658	3211
855.792	3154
855.926	3199
856.06	3211
856.194	3268
856.327	3138
856.461	3116
856.595	3108
856.729	3108
856.862	3264
856.996	3192
857.13	3222
857.263	3249
857.397	3279
857.53	3165
857.664	3226
857.797	3245
857.931	3279
858.064	3218
858.197	3230
858.331	3131
858.464	3089
858.597	3013
858.731	3116
858.864	3165
858.997	3123
859.13	3165
859.263	3199
859.396	3188
859.529	3123
859.662	3119
859.795	3036
859.928	3173
860.061	3283
860.194	3294
860.327	3135
860.46	3077
860.592	3241
860.725	3245
860.858	3237
860.99	3100
861.123	3077
861.256	3036
861.388	3135
861.521	3732
861.653	3024
861.786	3017
861.918	3039
862.05	3112
862.183	3127
862.315	3188
862.447	3207
862.58	3138
862.712	2929
862.844	2883
862.976	3047
863.108	3009
863.24	3340
863.372	2891
863.504	2967
863.636	2979
863.768	3032
863.9	3013
864.032	2918
864.164	2967
864.296	3047
864.428	3116
864.559	3131
864.691	3085
864.823	3081
864.954	3028
865.086	3032
865.217	3020
865.349	2994
865.48	3001
865.612	3013
865.743	3150
865.875	2994
866.006	2941
866.137	2998
866.269	2986
866.4	2933
866.531	2956
866.662	2906
866.793	2887
866.924	2922
867.055	2994
867.186	2975
867.317	2902
867.448	2864
867.579	2853
867.71	2861
867.841	2834
867.972	2944
868.103	2922
868.233	2910
868.364	2895
868.495	2929
868.625	3112
868.756	3195
868.886	3001
869.017	3032
869.147	3188
869.278	3161
869.408	3093
869.539	3024
869.669	3135
869.799	3047
869.929	3169
870.06	3127
870.19	3344
870.32	3291
870.45	3317
870.58	3344
870.71	3477
870.84	3466
870.97	3302
871.1	3279
871.23	3511
871.36	3488
871.489	3348
871.619	3416
871.749	3435
871.879	3473
872.008	3473
872.138	3336
872.267	3260
872.397	3176
872.526	3116
872.656	3028
872.785	3135
872.915	3283
873.044	3348
873.173	3249
873.303	3291
873.432	3264
873.561	3211
873.69	3157
873.819	3184
873.948	3165
874.077	3161
874.206	3039
874.335	3077
874.464	3249
874.593	3359
874.722	3268
874.851	3397
874.979	3389
875.108	3302
875.237	3241
875.365	3176
875.494	3195
875.623	3287
875.751	3093
875.88	3074
876.008	3184
876.136	3275
876.265	3382
876.393	3545
876.521	3416
876.65	3389
876.778	3332
876.906	3237
877.034	3199
877.162	3211
877.29	3188
877.418	3264
877.546	3260
877.674	3218
877.802	3245
877.93	3222
878.058	3157
878.185	3104
878.313	3222
878.441	3214
878.568	3100
878.696	3157
878.824	3230
878.951	3306
879.079	3507
879.206	3603
879.333	3416
879.461	3340
879.588	3397
879.715	3485
879.842	3610
879.97	3393
880.097	3157
880.224	3119
880.351	3184
880.478	3207
880.605	3226
880.732	3218
880.859	3496
880.986	3313
881.112	3336
881.239	3211
881.366	3119
881.493	3036
881.619	3051
881.746	3058
881.872	3135
881.999	3127
882.125	3150
882.252	3298
882.378	3317
882.505	3462
882.631	3302
882.757	3157
882.883	3218
883.01	3253
883.136	3154
883.262	3131
883.388	3142
883.514	3355
883.64	3336
883.766	3306
883.892	3184
884.018	3260
884.143	3431
884.269	3515
884.395	3192
884.52	3218
884.646	3180
884.772	3146
884.897	3135
885.023	3230
885.148	3351
885.274	3397
885.399	3363
885.524	3272
885.65	3275
885.775	3344
885.9	3291
886.025	3412
886.15	3370
886.275	3329
886.4	3222
886.525	3310
886.65	3298
886.775	3313
886.9	3492
887.025	3667
887.149	3393
887.274	3283
887.399	3211
887.523	3237
887.648	3222
887.773	3260
887.897	3359
888.021	3450
888.146	3291
888.27	3443
888.395	3576
888.519	3428
888.643	3450
888.767	3450
888.891	3302
889.015	3268
889.139	3287
889.263	3272
889.387	3393
889.511	3523
889.635	3454
889.759	3283
889.883	3310
890.006	3374
890.13	3545
890.254	3287
890.377	3325
890.501	3226
890.624	3188
890.748	3298
890.871	3195
890.995	3154
891.118	3043
891.241	3173
891.364	3214
891.488	3329
891.611	3207
891.734	3245
891.857	3329
891.98	3188
892.103	3355
892.226	3241
892.349	3207
892.471	3097
892.594	3253
892.717	3279
892.839	3325
892.962	3340
893.085	3378
893.207	3275
893.33	3150
893.452	3176
893.575	3344
893.697	3272
893.819	3462
893.941	3477
894.064	3454
894.186	3287
894.308	3291
894.43	3466
894.552	3526
894.674	3466
894.796	3329
894.918	3298
895.04	3268
895.161	3447
895.283	3431
895.405	3302
895.526	3386
895.648	3378
895.769	3416
895.891	3466
896.012	3409
896.134	3420
896.255	3435
896.376	3420
896.498	3348
896.619	3435
896.74	3382
896.861	3409
896.982	3675
897.103	3804
897.224	3599
897.345	3523
897.466	3431
897.587	3488
897.708	3641
897.828	3587
897.949	3428
898.07	3344
898.19	3428
898.311	3622
898.431	3450
898.552	3538
898.672	3610
898.792	3595
898.913	3500
899.033	3416
899.153	3313
899.273	3199
899.393	3283
899.513	3321
899.633	3279
899.753	3359
899.873	3317
899.993	3374
900.113	3310
900.232	3363
900.352	3359
900.472	3302
900.591	3180
900.711	3279
900.83	3260
900.95	3443
901.069	3496
901.189	3370
901.308	3180
901.427	3154
901.546	3146
901.665	3226
901.784	3306
901.904	3226
902.023	3108
902.141	3009
902.26	3024
902.379	3131
902.498	3100
902.617	3062
902.735	3207
902.854	3241
902.973	3154
903.091	3020
903.21	3074
903.328	3127
903.446	3047
903.565	3112
903.683	3138
903.801	3123
903.919	3230
904.038	3275
904.156	3207
904.274	3329
904.392	3233
904.51	3313
904.627	3355
904.745	3450
904.863	3469
904.981	3249
905.098	3195
905.216	3233
905.334	3287
905.451	3294
905.569	3310
905.686	3405
905.803	3424
905.921	3317
906.038	3443
906.155	3363
906.272	3264
906.389	3370
906.506	3237
906.623	3260
906.74	3233
906.857	3192
906.974	3260
907.091	3420
907.208	3580
907.324	3485
907.441	3405
907.557	3233
907.674	3249
907.79	3218
907.907	3287
908.023	3363
908.139	3382
908.256	3348
908.372	3367
908.488	3386
908.604	3287
908.72	3256
908.836	3275
908.952	3283
909.068	3359
909.184	3481
909.3	3397
909.415	3466
909.531	3458
909.647	3275
909.762	3264
909.878	3268
909.993	3351
910.108	3336
910.224	3351
910.339	3428
910.454	3359
910.57	3317
910.685	3230
910.8	3603
910.915	3549
911.03	3428
911.145	3253
911.259	3249
911.374	3287
911.489	3241
911.604	3241
911.718	3157
911.833	3116
911.947	3070
912.062	2994
912.176	3188
912.291	3199
912.405	3192
912.519	3424
912.633	3454
912.748	3340
912.862	3313
912.976	3142
913.09	3055
913.204	3104
913.318	3222
913.431	3359
913.545	3310
913.659	3435
913.772	3313
913.886	3207
914	3184
914.113	3359
914.226	3412
914.34	3367
914.453	3237
914.566	3450
914.68	3272
914.793	3298
914.906	3138
915.019	3112
915.132	3085
915.245	3161
915.358	3184
915.47	3207
915.583	3233
915.696	3291
915.809	3409
915.921	3386
916.034	3256
916.146	3253
916.259	3245
916.371	3386
916.483	3348
916.595	3249
916.708	3340
916.82	3306
916.932	3340
917.044	3336
917.156	3367
917.268	3211
917.38	3279
917.491	3260
917.603	3370
917.715	3431
917.826	3526
917.938	3397
918.049	3249
918.161	3439
918.272	3519
918.384	3538
918.495	3500
918.606	3310
918.717	3264
918.828	3378
918.939	3370
919.05	3321
919.161	3355
919.272	3192
919.383	3245
919.494	3542
919.604	3690
919.715	3488
919.826	3355
919.936	3473
920.047	3576
920.157	3564
920.267	3732
920.378	3576
920.488	3542
920.598	3759
920.708	3941
920.818	3778
920.928	3823
921.038	4006
921.148	4006
921.258	3717
921.368	3625
921.477	3584
921.587	3511
921.697	3466
921.806	3614
921.916	3526
922.025	3389
922.134	3363
922.244	3313
922.353	3435
922.462	3272
922.571	3226
922.68	3112
922.789	3058
922.898	3104
923.007	3077
923.116	3176
923.224	3173
923.333	3192
923.442	3123
923.55	3093
923.659	3154
923.767	3199
923.876	3108
923.984	3253
924.092	3062
924.201	3199
924.309	3211
924.417	3211
924.525	3142
924.633	3260
924.741	4013
924.849	3070
924.956	3207
925.064	3085
925.172	3013
925.279	3097
925.387	3165
925.494	3192
925.602	3386
925.709	3336
925.816	3199
925.924	3256
926.031	3374
926.138	3363
926.245	3348
926.352	3241
926.459	3351
926.566	3496
926.673	3310
926.779	3237
926.886	3279
926.993	3093
927.099	3127
927.206	3135
927.312	3108
927.419	3283
927.525	3199
927.631	3256
927.737	3131
927.843	3097
927.95	3017
928.056	3135
928.162	3154
928.267	3253
928.373	3876
928.479	3253
928.585	3043
928.69	3226
928.796	3233
928.901	3138
929.007	3036
929.112	3211
929.218	3173
929.323	3138
929.428	3138
929.533	3310
929.638	3108
929.743	3173
929.848	3230
929.953	3214
930.058	3154
930.163	3013
930.267	3043
930.372	3150
930.477	3024
930.581	3329
930.685	3195
930.79	3085
930.894	3131
930.998	3116
931.103	3279
931.207	2967
931.311	2880
931.415	2922
931.519	2754
931.623	2815
