Data from test_V78500241_1458.txt Node
Date: Fri Mar 25 16:25:18 CST 2022
User: usil
Spectrometer: V785-0024
Trigger mode: 0
Integration Time (sec): 4.000000E-1
Scans to average: 1
Nonlinearity correction enabled: false
Boxcar width: 0
Storing dark spectrum: false
XAxis mode: Wavelengths
Number of Pixels in Spectrum: 1024
>>>>>Begin Spectral Data<<<<<
801.071	2925
801.214	2941
801.356	2895
801.499	2902
801.641	2830
801.783	2925
801.926	3047
802.068	2982
802.211	2990
802.353	3047
802.496	2986
802.638	2971
802.78	3013
802.923	3081
803.065	3009
803.208	2914
803.35	2937
803.492	2914
803.635	2902
803.777	2762
803.919	2853
804.061	3192
804.204	2956
804.346	2918
804.488	2815
804.63	2990
804.773	2861
804.915	2906
805.057	3093
805.199	2880
805.341	2960
805.483	3043
805.626	2986
805.768	2956
805.91	3089
806.052	3081
806.194	2994
806.336	3199
806.478	3028
806.62	2906
806.762	2979
806.904	3058
807.046	3131
807.188	2933
807.33	2929
807.472	2944
807.614	2883
807.756	2994
807.898	2937
808.04	2914
808.182	2979
808.324	2952
808.465	2891
808.607	2880
808.749	2811
808.891	2826
809.033	2937
809.174	3009
809.316	2853
809.458	2876
809.6	2724
809.741	2800
809.883	2769
810.025	2868
810.166	2849
810.308	2838
810.45	2826
810.591	2773
810.733	2766
810.875	2807
811.016	2811
811.158	2750
811.299	2804
811.441	2929
811.582	2902
811.724	2834
811.865	2845
812.007	2918
812.148	2880
812.29	2830
812.431	2857
812.573	2922
812.714	2986
812.855	3039
812.997	3066
813.138	3119
813.279	2960
813.421	3013
813.562	2922
813.703	2853
813.845	2880
813.986	2769
814.127	2708
814.268	2804
814.41	2804
814.551	2800
814.692	2910
814.833	2811
814.974	2933
815.115	2941
815.256	2807
815.397	2773
815.539	2861
815.68	2766
815.821	2819
815.962	2960
816.103	2922
816.244	2864
816.385	2876
816.526	2982
816.666	2895
816.807	2746
816.948	2883
817.089	2861
817.23	2845
817.371	2762
817.512	2834
817.653	2834
817.793	2853
817.934	2845
818.075	2975
818.216	2990
818.356	3009
818.497	2876
818.638	2773
818.778	2815
818.919	2815
819.06	2746
819.2	2868
819.341	2819
819.481	2792
819.622	2914
819.762	3047
819.903	3032
820.043	2902
820.184	2902
820.324	2895
820.465	3013
820.605	3001
820.746	3001
820.886	2910
821.026	3108
821.167	3161
821.307	3199
821.447	3275
821.588	3192
821.728	3192
821.868	3180
822.008	3074
822.149	3150
822.289	3203
822.429	3104
822.569	3093
822.709	3180
822.849	3036
822.99	3074
823.13	3154
823.27	3154
823.41	3119
823.55	3097
823.69	3173
823.83	3211
823.97	3089
824.11	2990
824.25	2967
824.389	3066
824.529	3116
824.669	3051
824.809	3226
824.949	3287
825.089	3218
825.228	3154
825.368	3017
825.508	2963
825.648	2944
825.787	3020
825.927	3032
826.067	2982
826.206	2941
826.346	3058
826.485	3081
826.625	3089
826.765	3230
826.904	3226
827.044	2994
827.183	2914
827.323	2876
827.462	2960
827.601	2925
827.741	2906
827.88	2929
828.02	2819
828.159	2933
828.298	3036
828.437	3085
828.577	3070
828.716	3230
828.855	3051
828.994	2929
829.134	2895
829.273	2941
829.412	2876
829.551	2842
829.69	2861
829.829	2990
829.968	3127
830.107	2994
830.246	3039
830.385	2922
830.524	2864
830.663	2807
830.802	2712
830.941	2655
831.08	2659
831.219	2766
831.357	2754
831.496	2948
831.635	2746
831.774	2663
831.913	2659
832.051	2549
832.19	2583
832.329	2655
832.467	2533
832.606	2473
832.744	2549
832.883	2583
833.022	2575
833.16	2602
833.299	2674
833.437	2678
833.576	2716
833.714	2739
833.852	2731
833.991	2773
834.129	2804
834.267	2830
834.406	2788
834.544	2876
834.682	2876
834.821	2864
834.959	3070
835.097	2895
835.235	3024
835.373	2994
835.511	2982
835.65	2960
835.788	2925
835.926	2857
836.064	2792
836.202	2868
836.34	3081
836.478	3127
836.615	3043
836.753	3135
836.891	3218
837.029	3142
837.167	3097
837.305	3051
837.443	3017
837.58	2960
837.718	3116
837.856	3066
837.993	2994
838.131	3104
838.269	3093
838.406	3112
838.544	3077
838.681	2914
838.819	2918
838.956	2849
839.094	2819
839.231	2899
839.369	2998
839.506	3363
839.643	3222
839.781	3036
839.918	2963
840.055	3051
840.193	3062
840.33	3070
840.467	3074
840.604	3157
840.742	3405
840.879	3017
841.016	3047
841.153	3097
841.29	3310
841.427	3294
841.564	3260
841.701	3317
841.838	3222
841.975	3192
842.112	3207
842.249	3055
842.385	3024
842.522	3230
842.659	3051
842.796	3036
842.933	3097
843.069	3032
843.206	3039
843.343	3173
843.479	3119
843.616	3161
843.752	2918
843.889	2868
844.025	3058
844.162	2910
844.298	3036
844.435	2956
844.571	2880
844.708	3066
844.844	3180
844.98	3207
845.117	3188
845.253	3032
845.389	3009
845.525	3097
845.661	3104
845.798	3001
845.934	3097
846.07	3024
846.206	3188
846.342	3294
846.478	3230
846.614	3081
846.75	3055
846.886	3013
847.022	3203
847.158	3081
847.294	3176
847.429	3222
847.565	3188
847.701	3428
847.837	3013
847.972	3020
848.108	3157
848.244	3154
848.379	2952
848.515	2937
848.65	2960
848.786	2944
848.921	2975
849.057	3112
849.192	3127
849.328	3062
849.463	3089
849.598	3074
849.734	3051
849.869	3005
850.004	2887
850.14	2948
850.275	2883
850.41	2830
850.545	2872
850.68	2937
850.815	2922
850.95	2967
851.085	3176
851.22	3093
851.355	3043
851.49	2963
851.625	2982
851.76	3017
851.895	2895
852.03	2929
852.165	2975
852.299	3112
852.434	3165
852.569	3135
852.703	3142
852.838	3218
852.973	3313
853.107	3287
853.242	3154
853.376	3058
853.511	2952
853.645	3009
853.78	3253
853.914	3119
854.048	3097
854.183	3074
854.317	3165
854.451	3302
854.585	3100
854.72	3081
854.854	3199
854.988	3020
855.122	3093
855.256	2982
855.39	3112
855.524	3211
855.658	3165
855.792	3154
855.926	3176
856.06	3207
856.194	3260
856.327	3112
856.461	3051
856.595	3066
856.729	3081
856.862	3188
856.996	3142
857.13	3218
857.263	3249
857.397	3253
857.53	3127
857.664	3184
857.797	3241
857.931	3260
858.064	3188
858.197	3214
858.331	3119
858.464	3081
858.597	2979
858.731	3108
858.864	3135
858.997	3074
859.13	3142
859.263	3173
859.396	3207
859.529	3066
859.662	3043
859.795	3001
859.928	3116
860.061	3222
860.194	3283
860.327	3104
860.46	3081
860.592	3241
860.725	3260
860.858	3211
860.99	3093
861.123	3032
861.256	3017
861.388	3135
861.521	3873
861.653	2975
861.786	2986
861.918	3017
862.05	3077
862.183	3089
862.315	3135
862.447	3207
862.58	3074
862.712	2937
862.844	2872
862.976	3009
863.108	3009
863.24	3313
863.372	2887
863.504	2960
863.636	2948
863.768	3001
863.9	2986
864.032	2933
864.164	2941
864.296	2948
864.428	3116
864.559	3066
864.691	3047
864.823	3017
864.954	3036
865.086	3051
865.217	2998
865.349	2967
865.48	3020
865.612	3013
865.743	3127
865.875	2979
866.006	2914
866.137	2960
866.269	2937
866.4	2910
866.531	2902
866.662	2895
866.793	2895
866.924	2880
867.055	2952
867.186	2906
867.317	2914
867.448	2838
867.579	2842
867.71	2834
867.841	2845
867.972	2899
868.103	2864
868.233	2864
868.364	2872
868.495	2918
868.625	3085
868.756	3199
868.886	2952
869.017	3024
869.147	3165
869.278	3123
869.408	3032
869.539	3009
869.669	3089
869.799	3024
869.929	3116
870.06	3119
870.19	3313
870.32	3291
870.45	3283
870.58	3378
870.71	3435
870.84	3477
870.97	3302
871.1	3226
871.23	3500
871.36	3473
871.489	3306
871.619	3428
871.749	3389
871.879	3412
872.008	3435
872.138	3367
872.267	3260
872.397	3150
872.526	3070
872.656	3013
872.785	3093
872.915	3211
873.044	3249
873.173	3199
873.303	3233
873.432	3211
873.561	3233
873.69	3150
873.819	3154
873.948	3192
874.077	3100
874.206	3051
874.335	3089
874.464	3188
874.593	3344
874.722	3237
874.851	3420
874.979	3317
875.108	3310
875.237	3161
875.365	3161
875.494	3127
875.623	3135
875.751	3108
875.88	3108
876.008	3176
876.136	3226
876.265	3359
876.393	3485
876.521	3401
876.65	3378
876.778	3294
876.906	3245
877.034	3165
877.162	3226
877.29	3135
877.418	3230
877.546	3203
877.674	3195
877.802	3264
877.93	3245
878.058	3154
878.185	3077
878.313	3176
878.441	3188
878.568	3089
878.696	3135
878.824	3222
878.951	3321
879.079	3462
879.206	3606
879.333	3397
879.461	3302
879.588	3325
879.715	3450
879.842	3580
879.97	3370
880.097	3154
880.224	3108
880.351	3184
880.478	3180
880.605	3203
880.732	3146
880.859	3473
880.986	3268
881.112	3310
881.239	3180
881.366	3074
881.493	3055
881.619	3036
881.746	3062
881.872	3058
881.999	3093
882.125	3135
882.252	3211
882.378	3291
882.505	3405
882.631	3279
882.757	3135
882.883	3207
883.01	3222
883.136	3161
883.262	3062
883.388	3131
883.514	3332
883.64	3359
883.766	3325
883.892	3173
884.018	3249
884.143	3397
884.269	3515
884.395	3199
884.52	3157
884.646	3154
884.772	3104
884.897	3043
885.023	3184
885.148	3363
885.274	3397
885.399	3344
885.524	3256
885.65	3260
885.775	3294
885.9	3245
886.025	3397
886.15	3344
886.275	3298
886.4	3207
886.525	3275
886.65	3279
886.775	3283
886.9	3492
887.025	3595
887.149	3393
887.274	3245
887.399	3146
887.523	3188
887.648	3123
887.773	3165
887.897	3351
888.021	3363
888.146	3275
888.27	3370
888.395	3526
888.519	3466
888.643	3439
888.767	3439
888.891	3268
889.015	3253
889.139	3272
889.263	3222
889.387	3367
889.511	3523
889.635	3424
889.759	3279
889.883	3287
890.006	3336
890.13	3500
890.254	3249
890.377	3283
890.501	3173
890.624	3161
890.748	3313
890.871	3184
890.995	3108
891.118	3024
891.241	3203
891.364	3222
891.488	3264
891.611	3165
891.734	3222
891.857	3279
891.98	3260
892.103	3367
892.226	3249
892.349	3253
892.471	3150
892.594	3275
892.717	3264
892.839	3268
892.962	3317
893.085	3382
893.207	3291
893.33	3138
893.452	3203
893.575	3378
893.697	3287
893.819	3500
893.941	3500
894.064	3466
894.186	3287
894.308	3298
894.43	3450
894.552	3549
894.674	3515
894.796	3253
894.918	3332
895.04	3302
895.161	3454
895.283	3435
895.405	3321
895.526	3412
895.648	3450
895.769	3469
895.891	3507
896.012	3492
896.134	3504
896.255	3458
896.376	3488
896.498	3378
896.619	3458
896.74	3409
896.861	3450
896.982	3724
897.103	3861
897.224	3633
897.345	3545
897.466	3462
897.587	3504
897.708	3698
897.828	3557
897.949	3469
898.07	3351
898.19	3428
898.311	3637
898.431	3466
898.552	3542
898.672	3633
898.792	3618
898.913	3538
899.033	3466
899.153	3332
899.273	3245
899.393	3332
899.513	3386
899.633	3317
899.753	3363
899.873	3363
899.993	3450
900.113	3382
900.232	3450
900.352	3389
900.472	3294
900.591	3241
900.711	3332
900.83	3287
900.95	3458
901.069	3523
901.189	3386
901.308	3207
901.427	3131
901.546	3253
901.665	3302
901.784	3363
901.904	3245
902.023	3237
902.141	3043
902.26	3055
902.379	3161
902.498	3138
902.617	3097
902.735	3275
902.854	3245
902.973	3195
903.091	3081
903.21	3055
903.328	3157
903.446	3157
903.565	3188
903.683	3233
903.801	3176
903.919	3275
904.038	3329
904.156	3222
904.274	3359
904.392	3302
904.51	3306
904.627	3397
904.745	3485
904.863	3496
904.981	3294
905.098	3180
905.216	3275
905.334	3317
905.451	3325
905.569	3348
905.686	3469
905.803	3500
905.921	3359
906.038	3416
906.155	3382
906.272	3279
906.389	3393
906.506	3253
906.623	3306
906.74	3317
906.857	3249
906.974	3291
907.091	3485
907.208	3625
907.324	3545
907.441	3420
907.557	3272
907.674	3275
907.79	3253
907.907	3279
908.023	3393
908.139	3435
908.256	3351
908.372	3374
908.488	3374
908.604	3253
908.72	3275
908.836	3306
908.952	3291
909.068	3401
909.184	3534
909.3	3386
909.415	3553
909.531	3526
909.647	3344
909.762	3321
909.878	3287
909.993	3401
910.108	3386
910.224	3401
910.339	3454
910.454	3389
910.57	3302
910.685	3237
910.8	3637
910.915	3587
911.03	3431
911.145	3294
911.259	3313
911.374	3363
911.489	3233
911.604	3241
911.718	3184
911.833	3146
911.947	3036
912.062	3005
912.176	3173
912.291	3230
912.405	3237
912.519	3481
912.633	3515
912.748	3409
912.862	3302
912.976	3184
913.09	3116
913.204	3161
913.318	3253
913.431	3401
913.545	3382
913.659	3401
913.772	3386
913.886	3245
914	3230
914.113	3393
914.226	3401
914.34	3389
914.453	3237
914.566	3431
914.68	3313
914.793	3359
914.906	3192
915.019	3161
915.132	3089
915.245	3180
915.358	3245
915.47	3230
915.583	3298
915.696	3275
915.809	3401
915.921	3443
916.034	3272
916.146	3298
916.259	3260
916.371	3428
916.483	3393
916.595	3306
916.708	3340
916.82	3355
916.932	3363
917.044	3367
917.156	3348
917.268	3275
917.38	3374
917.491	3294
917.603	3409
917.715	3496
917.826	3526
917.938	3386
918.049	3283
918.161	3458
918.272	3587
918.384	3587
918.495	3492
918.606	3389
918.717	3306
918.828	3447
918.939	3458
919.05	3317
919.161	3393
919.272	3203
919.383	3268
919.494	3492
919.604	3743
919.715	3507
919.826	3416
919.936	3485
920.047	3580
920.157	3564
920.267	3781
920.378	3660
920.488	3584
920.598	3789
920.708	3972
920.818	3873
920.928	3835
921.038	4063
921.148	4013
921.258	3740
921.368	3663
921.477	3622
921.587	3576
921.697	3481
921.806	3690
921.916	3595
922.025	3370
922.134	3367
922.244	3332
922.353	3447
922.462	3291
922.571	3237
922.68	3180
922.789	3077
922.898	3169
923.007	3119
923.116	3222
923.224	3192
923.333	3176
923.442	3081
923.55	3104
923.659	3180
923.767	3184
923.876	3188
923.984	3256
924.092	3085
924.201	3233
924.309	3233
924.417	3264
924.525	3180
924.633	3275
924.741	4196
924.849	3070
924.956	3325
925.064	3112
925.172	3043
925.279	3157
925.387	3226
925.494	3199
925.602	3378
925.709	3359
925.816	3241
925.924	3310
926.031	3401
926.138	3355
926.245	3424
926.352	3245
926.459	3412
926.566	3496
926.673	3367
926.779	3260
926.886	3233
926.993	3195
927.099	3127
927.206	3131
927.312	3184
927.419	3272
927.525	3195
927.631	3298
927.737	3195
927.843	3154
927.95	3028
928.056	3184
928.162	3146
928.267	3287
928.373	3770
928.479	3363
928.585	3104
928.69	3245
928.796	3283
928.901	3188
929.007	3028
929.112	3237
929.218	3207
929.323	3169
929.428	3154
929.533	3287
929.638	3131
929.743	3199
929.848	3241
929.953	3230
930.058	3161
930.163	2998
930.267	3051
930.372	3218
930.477	3089
930.581	3378
930.685	3203
930.79	3081
930.894	3161
930.998	3119
931.103	3313
931.207	2963
931.311	2948
931.415	2944
931.519	2811
931.623	2819
