Data from test_V78500241_1431.txt Node
Date: Fri Mar 25 16:25:07 CST 2022
User: usil
Spectrometer: V785-0024
Trigger mode: 0
Integration Time (sec): 4.000000E-1
Scans to average: 1
Nonlinearity correction enabled: false
Boxcar width: 0
Storing dark spectrum: false
XAxis mode: Wavelengths
Number of Pixels in Spectrum: 1024
>>>>>Begin Spectral Data<<<<<
801.071	2906
801.214	2864
801.356	2849
801.499	2872
801.641	2876
801.783	2925
801.926	3043
802.068	2982
802.211	2986
802.353	3024
802.496	2975
802.638	3039
802.78	3024
802.923	3024
803.065	3020
803.208	2880
803.35	2899
803.492	2922
803.635	2944
803.777	2716
803.919	2842
804.061	3165
804.204	2948
804.346	2902
804.488	2872
804.63	3005
804.773	2872
804.915	2895
805.057	3104
805.199	2929
805.341	3001
805.483	3009
805.626	2994
805.768	2914
805.91	3074
806.052	3138
806.194	3032
806.336	3211
806.478	3058
806.62	2952
806.762	2986
806.904	3036
807.046	3176
807.188	2979
807.33	2872
807.472	2979
807.614	2918
807.756	3005
807.898	2925
808.04	2887
808.182	2925
808.324	2914
808.465	2857
808.607	2887
808.749	2788
808.891	2842
809.033	2986
809.174	2960
809.316	2891
809.458	2895
809.6	2811
809.741	2766
809.883	2781
810.025	2876
810.166	2838
810.308	2830
810.45	2834
810.591	2796
810.733	2754
810.875	2849
811.016	2800
811.158	2708
811.299	2777
811.441	2925
811.582	2868
811.724	2819
811.865	2826
812.007	2902
812.148	2868
812.29	2845
812.431	2868
812.573	2929
812.714	2971
812.855	3055
812.997	3013
813.138	3108
813.279	2986
813.421	2975
813.562	2948
813.703	2872
813.845	2864
813.986	2739
814.127	2697
814.268	2811
814.41	2834
814.551	2826
814.692	2819
814.833	2853
814.974	2906
815.115	2963
815.256	2823
815.397	2785
815.539	2891
815.68	2769
815.821	2781
815.962	2944
816.103	2910
816.244	2914
816.385	2876
816.526	2937
816.666	2929
816.807	2750
816.948	2895
817.089	2922
817.23	2853
817.371	2788
817.512	2796
817.653	2842
817.793	2845
817.934	2849
818.075	2956
818.216	2956
818.356	3005
818.497	2887
818.638	2792
818.778	2819
818.919	2777
819.06	2777
819.2	2864
819.341	2804
819.481	2807
819.622	2929
819.762	3135
819.903	3039
820.043	2933
820.184	2902
820.324	2883
820.465	2975
820.605	3036
820.746	3032
820.886	2960
821.026	3100
821.167	3142
821.307	3237
821.447	3272
821.588	3241
821.728	3195
821.868	3203
822.008	3112
822.149	3154
822.289	3226
822.429	3108
822.569	3097
822.709	3165
822.849	2986
822.99	3077
823.13	3161
823.27	3211
823.41	3100
823.55	3135
823.69	3142
823.83	3138
823.97	3112
824.11	3039
824.25	3024
824.389	3081
824.529	3097
824.669	3077
824.809	3173
824.949	3268
825.089	3207
825.228	3161
825.368	2986
825.508	2967
825.648	2971
825.787	3009
825.927	2998
826.067	2952
826.206	2975
826.346	3062
826.485	3070
826.625	3127
826.765	3256
826.904	3188
827.044	2971
827.183	2906
827.323	2895
827.462	2952
827.601	2914
827.741	2922
827.88	2963
828.02	2845
828.159	2948
828.298	3024
828.437	3081
828.577	3058
828.716	3230
828.855	3066
828.994	2975
829.134	2864
829.273	2937
829.412	2899
829.551	2849
829.69	2887
829.829	2963
829.968	3131
830.107	2998
830.246	3005
830.385	2944
830.524	2876
830.663	2792
830.802	2712
830.941	2648
831.08	2632
831.219	2762
831.357	2769
831.496	2929
831.635	2689
831.774	2659
831.913	2644
832.051	2526
832.19	2568
832.329	2686
832.467	2533
832.606	2476
832.744	2564
832.883	2583
833.022	2579
833.16	2636
833.299	2655
833.437	2674
833.576	2651
833.714	2708
833.852	2724
833.991	2785
834.129	2823
834.267	2830
834.406	2788
834.544	2849
834.682	2891
834.821	2864
834.959	3070
835.097	2922
835.235	3036
835.373	2994
835.511	3013
835.65	2952
835.788	2967
835.926	2819
836.064	2807
836.202	2823
836.34	3062
836.478	3142
836.615	3055
836.753	3184
836.891	3173
837.029	3165
837.167	3097
837.305	3074
837.443	3020
837.58	2963
837.718	3089
837.856	3051
837.993	3017
838.131	3119
838.269	3097
838.406	3093
838.544	3074
838.681	2922
838.819	2895
838.956	2804
839.094	2815
839.231	2925
839.369	2979
839.506	3355
839.643	3211
839.781	3009
839.918	2994
840.055	3009
840.193	3055
840.33	2998
840.467	3123
840.604	3123
840.742	3348
840.879	3051
841.016	3020
841.153	3108
841.29	3313
841.427	3264
841.564	3283
841.701	3336
841.838	3176
841.975	3157
842.112	3226
842.249	3077
842.385	3005
842.522	3253
842.659	3100
842.796	3051
842.933	3112
843.069	3036
843.206	3066
843.343	3127
843.479	3112
843.616	3131
843.752	2906
843.889	2830
844.025	3066
844.162	2861
844.298	3047
844.435	2948
844.571	2872
844.708	3074
844.844	3157
844.98	3218
845.117	3173
845.253	3036
845.389	3005
845.525	3081
845.661	3089
845.798	3009
845.934	3077
846.07	3017
846.206	3180
846.342	3329
846.478	3233
846.614	3085
846.75	3028
846.886	2982
847.022	3260
847.158	3108
847.294	3237
847.429	3218
847.565	3218
847.701	3488
847.837	3001
847.972	2994
848.108	3150
848.244	3154
848.379	2914
848.515	2910
848.65	2918
848.786	2990
848.921	3009
849.057	3070
849.192	3173
849.328	3093
849.463	3131
849.598	3051
849.734	3043
849.869	3009
850.004	2922
850.14	2941
850.275	2895
850.41	2815
850.545	2910
850.68	2910
850.815	2956
850.95	2948
851.085	3195
851.22	3066
851.355	3005
851.49	2982
851.625	3001
851.76	3009
851.895	2929
852.03	2891
852.165	3024
852.299	3123
852.434	3161
852.569	3104
852.703	3154
852.838	3249
852.973	3317
853.107	3325
853.242	3165
853.376	3089
853.511	3039
853.645	3028
853.78	3211
853.914	3138
854.048	3097
854.183	3104
854.317	3142
854.451	3256
854.585	3142
854.72	3070
854.854	3199
854.988	3043
855.122	3070
855.256	2948
855.39	3093
855.524	3222
855.658	3214
855.792	3135
855.926	3180
856.06	3237
856.194	3260
856.327	3119
856.461	3066
856.595	3036
856.729	3097
856.862	3180
856.996	3108
857.13	3192
857.263	3226
857.397	3260
857.53	3131
857.664	3165
857.797	3207
857.931	3253
858.064	3176
858.197	3230
858.331	3146
858.464	3047
858.597	3005
858.731	3112
858.864	3142
858.997	3104
859.13	3154
859.263	3173
859.396	3214
859.529	3100
859.662	3081
859.795	3051
859.928	3154
860.061	3302
860.194	3268
860.327	3119
860.46	3085
860.592	3195
860.725	3253
860.858	3241
860.99	3066
861.123	3036
861.256	3085
861.388	3142
861.521	3918
861.653	2990
861.786	2982
861.918	2956
862.05	3074
862.183	3116
862.315	3116
862.447	3184
862.58	3081
862.712	2899
862.844	2902
862.976	2998
863.108	3013
863.24	3291
863.372	2853
863.504	2941
863.636	2937
863.768	3013
863.9	2971
864.032	2899
864.164	2933
864.296	2979
864.428	3070
864.559	3077
864.691	3074
864.823	3077
864.954	3024
865.086	3009
865.217	3009
865.349	2906
865.48	2967
865.612	3024
865.743	3176
865.875	2998
866.006	2952
866.137	2998
866.269	2925
866.4	2925
866.531	2876
866.662	2883
866.793	2895
866.924	2910
867.055	2986
867.186	2948
867.317	2891
867.448	2807
867.579	2838
867.71	2788
867.841	2788
867.972	2902
868.103	2857
868.233	2891
868.364	2849
868.495	2918
868.625	3074
868.756	3192
868.886	2956
869.017	2990
869.147	3146
869.278	3127
869.408	2971
869.539	3017
869.669	3123
869.799	3032
869.929	3135
870.06	3081
870.19	3332
870.32	3279
870.45	3260
870.58	3359
870.71	3424
870.84	3443
870.97	3275
871.1	3241
871.23	3488
871.36	3420
871.489	3340
871.619	3424
871.749	3378
871.879	3443
872.008	3485
872.138	3321
872.267	3249
872.397	3142
872.526	3085
872.656	2998
872.785	3074
872.915	3199
873.044	3321
873.173	3237
873.303	3222
873.432	3230
873.561	3195
873.69	3116
873.819	3169
873.948	3169
874.077	3131
874.206	3051
874.335	3074
874.464	3245
874.593	3359
874.722	3245
874.851	3370
874.979	3332
875.108	3294
875.237	3214
875.365	3127
875.494	3169
875.623	3218
875.751	3093
875.88	3104
876.008	3180
876.136	3195
876.265	3363
876.393	3496
876.521	3424
876.65	3409
876.778	3340
876.906	3226
877.034	3203
877.162	3245
877.29	3169
877.418	3245
877.546	3237
877.674	3214
877.802	3218
877.93	3226
878.058	3154
878.185	3104
878.313	3180
878.441	3218
878.568	3036
878.696	3176
878.824	3199
878.951	3313
879.079	3435
879.206	3610
879.333	3454
879.461	3329
879.588	3340
879.715	3523
879.842	3599
879.97	3412
880.097	3138
880.224	3108
880.351	3192
880.478	3203
880.605	3138
880.732	3188
880.859	3469
880.986	3287
881.112	3291
881.239	3195
881.366	3070
881.493	3020
881.619	2998
881.746	3062
881.872	3085
881.999	3058
882.125	3135
882.252	3207
882.378	3279
882.505	3412
882.631	3306
882.757	3180
882.883	3184
883.01	3218
883.136	3173
883.262	3055
883.388	3119
883.514	3332
883.64	3325
883.766	3287
883.892	3214
884.018	3249
884.143	3439
884.269	3488
884.395	3203
884.52	3161
884.646	3169
884.772	3100
884.897	3127
885.023	3226
885.148	3317
885.274	3420
885.399	3370
885.524	3313
885.65	3275
885.775	3294
885.9	3287
886.025	3435
886.15	3389
886.275	3298
886.4	3253
886.525	3283
886.65	3329
886.775	3241
886.9	3473
887.025	3591
887.149	3431
887.274	3275
887.399	3199
887.523	3207
887.648	3184
887.773	3176
887.897	3344
888.021	3397
888.146	3291
888.27	3435
888.395	3545
888.519	3435
888.643	3416
888.767	3500
888.891	3291
889.015	3226
889.139	3275
889.263	3192
889.387	3412
889.511	3496
889.635	3412
889.759	3321
889.883	3260
890.006	3420
890.13	3469
890.254	3264
890.377	3317
890.501	3211
890.624	3188
890.748	3310
890.871	3184
890.995	3100
891.118	3058
891.241	3173
891.364	3214
891.488	3329
891.611	3192
891.734	3230
891.857	3268
891.98	3249
892.103	3302
892.226	3230
892.349	3165
892.471	3085
892.594	3230
892.717	3294
892.839	3283
892.962	3272
893.085	3351
893.207	3298
893.33	3123
893.452	3195
893.575	3310
893.697	3214
893.819	3450
893.941	3462
894.064	3435
894.186	3253
894.308	3275
894.43	3481
894.552	3534
894.674	3450
894.796	3241
894.918	3317
895.04	3329
895.161	3409
895.283	3409
895.405	3325
895.526	3363
895.648	3409
895.769	3409
895.891	3443
896.012	3454
896.134	3488
896.255	3424
896.376	3359
896.498	3348
896.619	3469
896.74	3367
896.861	3393
896.982	3622
897.103	3850
897.224	3603
897.345	3507
897.466	3393
897.587	3473
897.708	3614
897.828	3542
897.949	3401
898.07	3340
898.19	3424
898.311	3584
898.431	3431
898.552	3507
898.672	3564
898.792	3572
898.913	3545
899.033	3397
899.153	3287
899.273	3253
899.393	3241
899.513	3325
899.633	3325
899.753	3310
899.873	3317
899.993	3351
900.113	3302
900.232	3409
900.352	3351
900.472	3325
900.591	3165
900.711	3313
900.83	3268
900.95	3447
901.069	3485
901.189	3336
901.308	3157
901.427	3127
901.546	3188
901.665	3275
901.784	3306
901.904	3207
902.023	3142
902.141	2990
902.26	2982
902.379	3112
902.498	3066
902.617	3062
902.735	3192
902.854	3226
902.973	3184
903.091	3009
903.21	3058
903.328	3135
903.446	3119
903.565	3055
903.683	3165
903.801	3135
903.919	3272
904.038	3294
904.156	3180
904.274	3279
904.392	3245
904.51	3253
904.627	3340
904.745	3420
904.863	3488
904.981	3230
905.098	3154
905.216	3241
905.334	3256
905.451	3340
905.569	3310
905.686	3450
905.803	3462
905.921	3283
906.038	3378
906.155	3344
906.272	3230
906.389	3332
906.506	3203
906.623	3272
906.74	3218
906.857	3180
906.974	3237
907.091	3450
907.208	3545
907.324	3496
907.441	3370
907.557	3241
907.674	3214
907.79	3195
907.907	3272
908.023	3378
908.139	3344
908.256	3355
908.372	3359
908.488	3378
908.604	3245
908.72	3207
908.836	3268
908.952	3237
909.068	3321
909.184	3462
909.3	3405
909.415	3466
909.531	3447
909.647	3294
909.762	3268
909.878	3226
909.993	3351
910.108	3317
910.224	3401
910.339	3397
910.454	3302
910.57	3268
910.685	3264
910.8	3606
910.915	3511
911.03	3393
911.145	3283
911.259	3275
911.374	3287
911.489	3249
911.604	3203
911.718	3100
911.833	3150
911.947	2986
912.062	2979
912.176	3169
912.291	3195
912.405	3192
912.519	3431
912.633	3473
912.748	3374
912.862	3249
912.976	3161
913.09	3055
913.204	3123
913.318	3203
913.431	3351
913.545	3332
913.659	3389
913.772	3313
913.886	3241
914	3241
914.113	3329
914.226	3405
914.34	3336
914.453	3203
914.566	3435
914.68	3275
914.793	3294
914.906	3131
915.019	3108
915.132	3036
915.245	3180
915.358	3214
915.47	3272
915.583	3256
915.696	3279
915.809	3389
915.921	3443
916.034	3264
916.146	3245
916.259	3199
916.371	3363
916.483	3367
916.595	3256
916.708	3321
916.82	3313
916.932	3283
917.044	3348
917.156	3363
917.268	3245
917.38	3317
917.491	3245
917.603	3348
917.715	3428
917.826	3488
917.938	3355
918.049	3256
918.161	3401
918.272	3519
918.384	3545
918.495	3507
918.606	3310
918.717	3249
918.828	3374
918.939	3424
919.05	3302
919.161	3378
919.272	3165
919.383	3302
919.494	3515
919.604	3648
919.715	3496
919.826	3359
919.936	3412
920.047	3576
920.157	3549
920.267	3759
920.378	3618
920.488	3553
920.598	3751
920.708	3949
920.818	3819
920.928	3846
921.038	4021
921.148	3964
921.258	3717
921.368	3622
921.477	3561
921.587	3526
921.697	3428
921.806	3629
921.916	3454
922.025	3351
922.134	3351
922.244	3287
922.353	3386
922.462	3256
922.571	3253
922.68	3100
922.789	3020
922.898	3097
923.007	3077
923.116	3169
923.224	3131
923.333	3176
923.442	3085
923.55	3070
923.659	3142
923.767	3176
923.876	3123
923.984	3222
924.092	3108
924.201	3214
924.309	3184
924.417	3241
924.525	3195
924.633	3237
924.741	4192
924.849	3028
924.956	3233
925.064	3093
925.172	3039
925.279	3116
925.387	3138
925.494	3165
925.602	3317
925.709	3321
925.816	3184
925.924	3260
926.031	3363
926.138	3317
926.245	3359
926.352	3233
926.459	3397
926.566	3504
926.673	3283
926.779	3283
926.886	3283
926.993	3165
927.099	3119
927.206	3142
927.312	3138
927.419	3249
927.525	3211
927.631	3291
927.737	3161
927.843	3119
927.95	3051
928.056	3127
928.162	3188
928.267	3268
928.373	3930
928.479	3344
928.585	3085
928.69	3207
928.796	3321
928.901	3150
929.007	3108
929.112	3237
929.218	3199
929.323	3195
929.428	3154
929.533	3355
929.638	3192
929.743	3195
929.848	3306
929.953	3237
930.058	3180
930.163	3032
930.267	3097
930.372	3230
930.477	3089
930.581	3386
930.685	3230
930.79	3081
930.894	3184
930.998	3112
931.103	3306
931.207	3024
931.311	2990
931.415	2937
931.519	2826
931.623	2857
