Data from test_V78500241_329.txt Node
Date: Fri Mar 25 16:17:28 CST 2022
User: usil
Spectrometer: V785-0024
Trigger mode: 0
Integration Time (sec): 4.000000E-1
Scans to average: 1
Nonlinearity correction enabled: false
Boxcar width: 0
Storing dark spectrum: false
XAxis mode: Wavelengths
Number of Pixels in Spectrum: 1024
>>>>>Begin Spectral Data<<<<<
801.071	2914
801.214	2948
801.356	2902
801.499	2902
801.641	2864
801.783	2937
801.926	3062
802.068	2933
802.211	2998
802.353	3028
802.496	2967
802.638	2990
802.78	3032
802.923	3081
803.065	3009
803.208	2910
803.35	2929
803.492	2933
803.635	2963
803.777	2731
803.919	2857
804.061	3195
804.204	2937
804.346	2906
804.488	2853
804.63	3024
804.773	2910
804.915	2948
805.057	3077
805.199	2948
805.341	2937
805.483	3043
805.626	3024
805.768	2960
805.91	3081
806.052	3108
806.194	3013
806.336	3222
806.478	3009
806.62	2952
806.762	2971
806.904	3047
807.046	3188
807.188	2967
807.33	2925
807.472	3001
807.614	2899
807.756	2979
807.898	2922
808.04	2891
808.182	2986
808.324	2910
808.465	2861
808.607	2880
808.749	2773
808.891	2849
809.033	2956
809.174	2971
809.316	2864
809.458	2895
809.6	2750
809.741	2769
809.883	2796
810.025	2826
810.166	2815
810.308	2857
810.45	2857
810.591	2777
810.733	2762
810.875	2811
811.016	2788
811.158	2743
811.299	2811
811.441	2883
811.582	2914
811.724	2849
811.865	2823
812.007	2880
812.148	2864
812.29	2838
812.431	2899
812.573	2960
812.714	2948
812.855	3058
812.997	3108
813.138	3150
813.279	2990
813.421	2956
813.562	2967
813.703	2876
813.845	2899
813.986	2769
814.127	2739
814.268	2842
814.41	2804
814.551	2819
814.692	2899
814.833	2800
814.974	2891
815.115	2986
815.256	2834
815.397	2845
815.539	2845
815.68	2781
815.821	2769
815.962	2918
816.103	2956
816.244	2891
816.385	2842
816.526	2967
816.666	2902
816.807	2750
816.948	2922
817.089	2929
817.23	2834
817.371	2785
817.512	2796
817.653	2819
817.793	2857
817.934	2883
818.075	2933
818.216	3005
818.356	3043
818.497	2887
818.638	2792
818.778	2830
818.919	2792
819.06	2804
819.2	2834
819.341	2785
819.481	2800
819.622	2948
819.762	3116
819.903	3066
820.043	2941
820.184	2899
820.324	2914
820.465	3032
820.605	3032
820.746	3013
820.886	2922
821.026	3116
821.167	3154
821.307	3226
821.447	3283
821.588	3253
821.728	3165
821.868	3241
822.008	3093
822.149	3188
822.289	3226
822.429	3089
822.569	3112
822.709	3222
822.849	3070
822.99	3074
823.13	3188
823.27	3222
823.41	3089
823.55	3138
823.69	3131
823.83	3150
823.97	3127
824.11	2963
824.25	3005
824.389	3085
824.529	3127
824.669	3104
824.809	3207
824.949	3253
825.089	3237
825.228	3161
825.368	2979
825.508	2971
825.648	2971
825.787	2967
825.927	3005
826.067	2937
826.206	2971
826.346	3032
826.485	3089
826.625	3119
826.765	3279
826.904	3199
827.044	3001
827.183	2929
827.323	2906
827.462	3001
827.601	2944
827.741	2922
827.88	2963
828.02	2861
828.159	2967
828.298	3032
828.437	3123
828.577	3036
828.716	3249
828.855	3093
828.994	2967
829.134	2899
829.273	2941
829.412	2861
829.551	2849
829.69	2883
829.829	2990
829.968	3150
830.107	3020
830.246	3009
830.385	2922
830.524	2853
830.663	2819
830.802	2693
830.941	2606
831.08	2625
831.219	2743
831.357	2739
831.496	2948
831.635	2724
831.774	2651
831.913	2655
832.051	2564
832.19	2560
832.329	2682
832.467	2556
832.606	2492
832.744	2579
832.883	2571
833.022	2579
833.16	2644
833.299	2667
833.437	2712
833.576	2705
833.714	2716
833.852	2720
833.991	2766
834.129	2819
834.267	2830
834.406	2788
834.544	2883
834.682	2861
834.821	2853
834.959	3058
835.097	2891
835.235	3070
835.373	3009
835.511	3001
835.65	2948
835.788	2933
835.926	2845
836.064	2845
836.202	2830
836.34	3085
836.478	3150
836.615	3039
836.753	3142
836.891	3237
837.029	3184
837.167	3123
837.305	3074
837.443	3032
837.58	2906
837.718	3154
837.856	3032
837.993	3051
838.131	3074
838.269	3097
838.406	3112
838.544	3108
838.681	2929
838.819	2906
838.956	2792
839.094	2826
839.231	2933
839.369	3017
839.506	3382
839.643	3233
839.781	2975
839.918	2979
840.055	3013
840.193	3051
840.33	3055
840.467	3077
840.604	3142
840.742	3393
840.879	3039
841.016	3070
841.153	3112
841.29	3336
841.427	3302
841.564	3272
841.701	3336
841.838	3222
841.975	3192
842.112	3218
842.249	3066
842.385	3062
842.522	3268
842.659	3093
842.796	3039
842.933	3104
843.069	3032
843.206	3043
843.343	3176
843.479	3131
843.616	3131
843.752	2918
843.889	2857
844.025	3100
844.162	2887
844.298	3077
844.435	2971
844.571	2891
844.708	3077
844.844	3199
844.98	3230
845.117	3195
845.253	3024
845.389	3013
845.525	3116
845.661	3097
845.798	2986
845.934	3116
846.07	3055
846.206	3203
846.342	3321
846.478	3230
846.614	3047
846.75	3055
846.886	3013
847.022	3211
847.158	3142
847.294	3184
847.429	3230
847.565	3211
847.701	3447
847.837	3051
847.972	2971
848.108	3157
848.244	3123
848.379	2982
848.515	2910
848.65	2929
848.786	2963
848.921	3043
849.057	3104
849.192	3138
849.328	3097
849.463	3119
849.598	3062
849.734	3043
849.869	2956
850.004	2872
850.14	2975
850.275	2933
850.41	2842
850.545	2887
850.68	2925
850.815	2944
850.95	2967
851.085	3199
851.22	3081
851.355	3055
851.49	2960
851.625	2990
851.76	3009
851.895	2929
852.03	2925
852.165	3017
852.299	3077
852.434	3192
852.569	3188
852.703	3211
852.838	3264
852.973	3306
853.107	3321
853.242	3165
853.376	3135
853.511	2994
853.645	3036
853.78	3241
853.914	3138
854.048	3089
854.183	3142
854.317	3108
854.451	3294
854.585	3116
854.72	3081
854.854	3192
854.988	3062
855.122	3112
855.256	2956
855.39	3100
855.524	3195
855.658	3195
855.792	3157
855.926	3184
856.06	3233
856.194	3245
856.327	3142
856.461	3032
856.595	3093
856.729	3123
856.862	3218
856.996	3180
857.13	3199
857.263	3237
857.397	3264
857.53	3085
857.664	3199
857.797	3195
857.931	3237
858.064	3138
858.197	3245
858.331	3157
858.464	3089
858.597	2994
858.731	3081
858.864	3131
858.997	3104
859.13	3192
859.263	3154
859.396	3165
859.529	3070
859.662	3093
859.795	3024
859.928	3161
860.061	3275
860.194	3317
860.327	3138
860.46	3100
860.592	3233
860.725	3245
860.858	3245
860.99	3085
861.123	3089
861.256	3005
861.388	3131
861.521	3865
861.653	2998
861.786	2990
861.918	2982
862.05	3108
862.183	3100
862.315	3116
862.447	3135
862.58	3081
862.712	2948
862.844	2880
862.976	3047
863.108	2986
863.24	3294
863.372	2891
863.504	2944
863.636	2933
863.768	3005
863.9	2960
864.032	2914
864.164	2967
864.296	2998
864.428	3055
864.559	3089
864.691	3081
864.823	3062
864.954	3024
865.086	3036
865.217	2986
865.349	2948
865.48	2990
865.612	3036
865.743	3154
865.875	2971
866.006	2952
866.137	3013
866.269	2952
866.4	2933
866.531	2937
866.662	2933
866.793	2868
866.924	2891
867.055	2948
867.186	2929
867.317	2895
867.448	2864
867.579	2872
867.71	2876
867.841	2796
867.972	2925
868.103	2914
868.233	2880
868.364	2899
868.495	2914
868.625	3077
868.756	3150
868.886	2960
869.017	2998
869.147	3142
869.278	3173
869.408	3047
869.539	3020
869.669	3100
869.799	3036
869.929	3127
870.06	3127
870.19	3336
870.32	3272
870.45	3355
870.58	3367
870.71	3439
870.84	3447
870.97	3291
871.1	3249
871.23	3488
871.36	3492
871.489	3378
871.619	3409
871.749	3386
871.879	3454
872.008	3511
872.138	3359
872.267	3275
872.397	3135
872.526	3127
872.656	3005
872.785	3085
872.915	3188
873.044	3306
873.173	3241
873.303	3253
873.432	3268
873.561	3211
873.69	3169
873.819	3157
873.948	3180
874.077	3081
874.206	3043
874.335	3097
874.464	3218
874.593	3317
874.722	3256
874.851	3409
874.979	3344
875.108	3321
875.237	3222
875.365	3173
875.494	3180
875.623	3256
875.751	3104
875.88	3116
876.008	3161
876.136	3230
876.265	3363
876.393	3519
876.521	3412
876.65	3401
876.778	3306
876.906	3233
877.034	3195
877.162	3230
877.29	3135
877.418	3283
877.546	3279
877.674	3237
877.802	3230
877.93	3253
878.058	3157
878.185	3119
878.313	3199
878.441	3237
878.568	3039
878.696	3097
878.824	3313
878.951	3272
879.079	3454
879.206	3625
879.333	3454
879.461	3321
879.588	3374
879.715	3504
879.842	3603
879.97	3382
880.097	3180
880.224	3127
880.351	3230
880.478	3237
880.605	3176
880.732	3127
880.859	3500
880.986	3298
881.112	3325
881.239	3188
881.366	3097
881.493	3028
881.619	3024
881.746	3077
881.872	3077
881.999	3116
882.125	3135
882.252	3253
882.378	3294
882.505	3420
882.631	3310
882.757	3161
882.883	3192
883.01	3211
883.136	3150
883.262	3142
883.388	3112
883.514	3344
883.64	3344
883.766	3294
883.892	3180
884.018	3226
884.143	3401
884.269	3545
884.395	3237
884.52	3165
884.646	3173
884.772	3108
884.897	3089
885.023	3195
885.148	3367
885.274	3401
885.399	3397
885.524	3272
885.65	3233
885.775	3298
885.9	3256
886.025	3443
886.15	3329
886.275	3321
886.4	3249
886.525	3298
886.65	3241
886.775	3298
886.9	3473
887.025	3644
887.149	3435
887.274	3245
887.399	3180
887.523	3188
887.648	3154
887.773	3176
887.897	3386
888.021	3386
888.146	3317
888.27	3447
888.395	3485
888.519	3485
888.643	3447
888.767	3454
888.891	3294
889.015	3272
889.139	3256
889.263	3218
889.387	3389
889.511	3526
889.635	3431
889.759	3268
889.883	3279
890.006	3405
890.13	3504
890.254	3283
890.377	3321
890.501	3222
890.624	3192
890.748	3310
890.871	3207
890.995	3108
891.118	3066
891.241	3203
891.364	3230
891.488	3336
891.611	3207
891.734	3203
891.857	3302
891.98	3218
892.103	3344
892.226	3249
892.349	3195
892.471	3161
892.594	3233
892.717	3287
892.839	3241
892.962	3313
893.085	3344
893.207	3302
893.33	3146
893.452	3207
893.575	3370
893.697	3233
893.819	3477
893.941	3534
894.064	3439
894.186	3275
894.308	3268
894.43	3428
894.552	3500
894.674	3443
894.796	3272
894.918	3329
895.04	3256
895.161	3416
895.283	3382
895.405	3336
895.526	3401
895.648	3405
895.769	3428
895.891	3447
896.012	3496
896.134	3401
896.255	3412
896.376	3382
896.498	3378
896.619	3389
896.74	3332
896.861	3370
896.982	3705
897.103	3850
897.224	3599
897.345	3519
897.466	3405
897.587	3462
897.708	3641
897.828	3572
897.949	3431
898.07	3310
898.19	3401
898.311	3614
898.431	3447
898.552	3534
898.672	3584
898.792	3614
898.913	3534
899.033	3428
899.153	3302
899.273	3207
899.393	3245
899.513	3348
899.633	3321
899.753	3340
899.873	3329
899.993	3359
900.113	3310
900.232	3382
900.352	3351
900.472	3268
900.591	3203
900.711	3291
900.83	3291
900.95	3435
901.069	3507
901.189	3355
901.308	3184
901.427	3123
901.546	3214
901.665	3233
901.784	3332
901.904	3218
902.023	3150
902.141	3055
902.26	2982
902.379	3157
902.498	3131
902.617	3051
902.735	3214
902.854	3214
902.973	3233
903.091	3036
903.21	3058
903.328	3161
903.446	3131
903.565	3104
903.683	3207
903.801	3123
903.919	3237
904.038	3294
904.156	3135
904.274	3310
904.392	3237
904.51	3310
904.627	3298
904.745	3435
904.863	3492
904.981	3275
905.098	3142
905.216	3207
905.334	3291
905.451	3355
905.569	3256
905.686	3450
905.803	3435
905.921	3264
906.038	3447
906.155	3359
906.272	3272
906.389	3329
906.506	3222
906.623	3237
906.74	3279
906.857	3192
906.974	3256
907.091	3435
907.208	3572
907.324	3458
907.441	3386
907.557	3253
907.674	3268
907.79	3203
907.907	3287
908.023	3363
908.139	3332
908.256	3359
908.372	3344
908.488	3348
908.604	3291
908.72	3256
908.836	3298
908.952	3222
909.068	3351
909.184	3481
909.3	3393
909.415	3492
909.531	3488
909.647	3272
909.762	3253
909.878	3260
909.993	3344
910.108	3382
910.224	3336
910.339	3424
910.454	3332
910.57	3264
910.685	3245
910.8	3614
910.915	3564
911.03	3428
911.145	3260
911.259	3287
911.374	3321
911.489	3237
911.604	3245
911.718	3135
911.833	3146
911.947	3055
912.062	2941
912.176	3188
912.291	3203
912.405	3199
912.519	3416
912.633	3492
912.748	3378
912.862	3260
912.976	3173
913.09	3062
913.204	3142
913.318	3188
913.431	3340
913.545	3329
913.659	3409
913.772	3370
913.886	3245
914	3180
914.113	3363
914.226	3424
914.34	3409
914.453	3180
914.566	3420
914.68	3272
914.793	3340
914.906	3161
915.019	3108
915.132	3089
915.245	3169
915.358	3195
915.47	3230
915.583	3256
915.696	3298
915.809	3428
915.921	3397
916.034	3275
916.146	3241
916.259	3237
916.371	3405
916.483	3378
916.595	3291
916.708	3351
916.82	3348
916.932	3340
917.044	3367
917.156	3370
917.268	3283
917.38	3291
917.491	3313
917.603	3378
917.715	3469
917.826	3481
917.938	3367
918.049	3272
918.161	3405
918.272	3576
918.384	3591
918.495	3496
918.606	3317
918.717	3317
918.828	3370
918.939	3420
919.05	3294
919.161	3344
919.272	3176
919.383	3283
919.494	3530
919.604	3720
919.715	3439
919.826	3389
919.936	3450
920.047	3584
920.157	3557
920.267	3694
920.378	3576
920.488	3591
920.598	3778
920.708	3934
920.818	3800
920.928	3835
921.038	4071
921.148	3975
921.258	3743
921.368	3629
921.477	3591
921.587	3530
921.697	3431
921.806	3644
921.916	3542
922.025	3359
922.134	3348
922.244	3332
922.353	3431
922.462	3283
922.571	3211
922.68	3089
922.789	3051
922.898	3135
923.007	3081
923.116	3218
923.224	3157
923.333	3165
923.442	3135
923.55	3077
923.659	3161
923.767	3199
923.876	3100
923.984	3233
924.092	3100
924.201	3188
924.309	3214
924.417	3249
924.525	3192
924.633	3230
924.741	4173
924.849	3074
924.956	3264
925.064	3093
925.172	3032
925.279	3112
925.387	3192
925.494	3203
925.602	3344
925.709	3340
925.816	3211
925.924	3313
926.031	3397
926.138	3348
926.245	3359
926.352	3283
926.459	3405
926.566	3477
926.673	3367
926.779	3237
926.886	3226
926.993	3169
927.099	3127
927.206	3097
927.312	3097
927.419	3222
927.525	3199
927.631	3279
927.737	3135
927.843	3108
927.95	3013
928.056	3135
928.162	3173
928.267	3260
928.373	3907
928.479	3310
928.585	3077
928.69	3226
928.796	3275
928.901	3173
929.007	3100
929.112	3195
929.218	3138
929.323	3135
929.428	3169
929.533	3302
929.638	3116
929.743	3192
929.848	3275
929.953	3176
930.058	3138
930.163	3005
930.267	3066
930.372	3218
930.477	3066
930.581	3325
930.685	3176
930.79	3043
930.894	3104
930.998	3112
931.103	3264
931.207	2937
931.311	2952
931.415	2922
931.519	2781
931.623	2762
