Data from test_V78500241_1763.txt Node
Date: Fri Mar 25 16:27:25 CST 2022
User: usil
Spectrometer: V785-0024
Trigger mode: 0
Integration Time (sec): 4.000000E-1
Scans to average: 1
Nonlinearity correction enabled: false
Boxcar width: 0
Storing dark spectrum: false
XAxis mode: Wavelengths
Number of Pixels in Spectrum: 1024
>>>>>Begin Spectral Data<<<<<
801.071	2922
801.214	2944
801.356	2845
801.499	2883
801.641	2864
801.783	2880
801.926	3009
802.068	2994
802.211	2975
802.353	3024
802.496	2956
802.638	2998
802.78	3036
802.923	3066
803.065	2967
803.208	2868
803.35	2895
803.492	2937
803.635	2902
803.777	2758
803.919	2853
804.061	3188
804.204	2922
804.346	2880
804.488	2830
804.63	3005
804.773	2895
804.915	2941
805.057	3032
805.199	2944
805.341	2975
805.483	2998
805.626	2994
805.768	2933
805.91	3074
806.052	3119
806.194	2998
806.336	3207
806.478	3032
806.62	2933
806.762	2960
806.904	3051
807.046	3135
807.188	2982
807.33	2918
807.472	2998
807.614	2895
807.756	2990
807.898	2914
808.04	2895
808.182	2933
808.324	2956
808.465	2887
808.607	2872
808.749	2769
808.891	2868
809.033	2982
809.174	2918
809.316	2891
809.458	2864
809.6	2777
809.741	2743
809.883	2769
810.025	2861
810.166	2876
810.308	2823
810.45	2823
810.591	2788
810.733	2766
810.875	2861
811.016	2792
811.158	2746
811.299	2826
811.441	2944
811.582	2937
811.724	2807
811.865	2849
812.007	2910
812.148	2868
812.29	2842
812.431	2925
812.573	2895
812.714	2960
812.855	2998
812.997	3081
813.138	3108
813.279	3001
813.421	2979
813.562	2944
813.703	2815
813.845	2891
813.986	2758
814.127	2739
814.268	2815
814.41	2823
814.551	2842
814.692	2864
814.833	2838
814.974	2864
815.115	2967
815.256	2819
815.397	2788
815.539	2834
815.68	2788
815.821	2773
815.962	2902
816.103	2937
816.244	2891
816.385	2845
816.526	2941
816.666	2895
816.807	2754
816.948	2838
817.089	2880
817.23	2842
817.371	2773
817.512	2754
817.653	2800
817.793	2826
817.934	2845
818.075	2971
818.216	3009
818.356	3017
818.497	2853
818.638	2792
818.778	2777
818.919	2823
819.06	2727
819.2	2864
819.341	2796
819.481	2788
819.622	2902
819.762	3081
819.903	3028
820.043	2941
820.184	2906
820.324	2922
820.465	3013
820.605	3005
820.746	3024
820.886	2922
821.026	3123
821.167	3135
821.307	3264
821.447	3279
821.588	3199
821.728	3207
821.868	3161
822.008	3070
822.149	3203
822.289	3226
822.429	3100
822.569	3112
822.709	3195
822.849	3039
822.99	3081
823.13	3188
823.27	3184
823.41	3138
823.55	3154
823.69	3142
823.83	3161
823.97	3119
824.11	2963
824.25	3009
824.389	3055
824.529	3119
824.669	3066
824.809	3161
824.949	3275
825.089	3237
825.228	3165
825.368	3017
825.508	2952
825.648	2944
825.787	3001
825.927	2998
826.067	2990
826.206	2952
826.346	3009
826.485	3070
826.625	3089
826.765	3256
826.904	3226
827.044	2994
827.183	2929
827.323	2834
827.462	2952
827.601	2899
827.741	2906
827.88	2937
828.02	2876
828.159	2933
828.298	3024
828.437	3085
828.577	3043
828.716	3237
828.855	3062
828.994	2902
829.134	2902
829.273	2918
829.412	2845
829.551	2861
829.69	2887
829.829	2990
829.968	3112
830.107	3028
830.246	3032
830.385	2933
830.524	2845
830.663	2811
830.802	2716
830.941	2659
831.08	2625
831.219	2796
831.357	2724
831.496	2963
831.635	2689
831.774	2644
831.913	2625
832.051	2533
832.19	2602
832.329	2670
832.467	2537
832.606	2488
832.744	2610
832.883	2575
833.022	2583
833.16	2655
833.299	2686
833.437	2697
833.576	2705
833.714	2746
833.852	2727
833.991	2750
834.129	2857
834.267	2807
834.406	2785
834.544	2883
834.682	2880
834.821	2868
834.959	3039
835.097	2868
835.235	3013
835.373	2971
835.511	3039
835.65	2948
835.788	2952
835.926	2838
836.064	2819
836.202	2815
836.34	3081
836.478	3123
836.615	3017
836.753	3089
836.891	3207
837.029	3123
837.167	3081
837.305	3039
837.443	3047
837.58	2929
837.718	3165
837.856	3055
837.993	2998
838.131	3104
838.269	3108
838.406	3074
838.544	3100
838.681	2941
838.819	2933
838.956	2823
839.094	2823
839.231	2891
839.369	2982
839.506	3348
839.643	3207
839.781	3032
839.918	2925
840.055	3055
840.193	3058
840.33	3089
840.467	3093
840.604	3146
840.742	3386
840.879	3051
841.016	3024
841.153	3100
841.29	3336
841.427	3294
841.564	3233
841.701	3294
841.838	3233
841.975	3169
842.112	3226
842.249	3097
842.385	3043
842.522	3256
842.659	3070
842.796	3081
842.933	3116
843.069	3028
843.206	3013
843.343	3176
843.479	3097
843.616	3116
843.752	2868
843.889	2864
844.025	3055
844.162	2880
844.298	3039
844.435	2941
844.571	2899
844.708	3066
844.844	3173
844.98	3214
845.117	3173
845.253	3024
845.389	3039
845.525	3131
845.661	3085
845.798	3017
845.934	3108
846.07	3055
846.206	3199
846.342	3279
846.478	3260
846.614	3089
846.75	3020
846.886	3009
847.022	3173
847.158	3123
847.294	3203
847.429	3249
847.565	3211
847.701	3507
847.837	3024
847.972	2998
848.108	3173
848.244	3127
848.379	2990
848.515	2937
848.65	2941
848.786	2937
848.921	3028
849.057	3089
849.192	3157
849.328	3077
849.463	3138
849.598	3074
849.734	3005
849.869	2982
850.004	2902
850.14	2952
850.275	2895
850.41	2880
850.545	2864
850.68	2925
850.815	2948
850.95	2971
851.085	3218
851.22	3100
851.355	3028
851.49	2986
851.625	2948
851.76	2990
851.895	2906
852.03	2944
852.165	3017
852.299	3150
852.434	3146
852.569	3093
852.703	3157
852.838	3237
852.973	3355
853.107	3317
853.242	3108
853.376	3100
853.511	3005
853.645	3036
853.78	3241
853.914	3116
854.048	3085
854.183	3097
854.317	3142
854.451	3306
854.585	3169
854.72	3051
854.854	3188
854.988	3066
855.122	3074
855.256	3024
855.39	3077
855.524	3199
855.658	3192
855.792	3150
855.926	3169
856.06	3203
856.194	3211
856.327	3142
856.461	3066
856.595	3070
856.729	3097
856.862	3176
856.996	3146
857.13	3207
857.263	3199
857.397	3268
857.53	3104
857.664	3180
857.797	3211
857.931	3237
858.064	3169
858.197	3184
858.331	3104
858.464	3047
858.597	2986
858.731	3104
858.864	3119
858.997	3062
859.13	3138
859.263	3154
859.396	3184
859.529	3055
859.662	3062
859.795	3051
859.928	3142
860.061	3310
860.194	3260
860.327	3104
860.46	3104
860.592	3268
860.725	3256
860.858	3249
860.99	3070
861.123	3055
861.256	3066
861.388	3123
861.521	3907
861.653	2967
861.786	2960
861.918	2975
862.05	3024
862.183	3081
862.315	3116
862.447	3203
862.58	3074
862.712	2925
862.844	2895
862.976	3017
863.108	2982
863.24	3317
863.372	2880
863.504	2956
863.636	2933
863.768	2998
863.9	2979
864.032	2853
864.164	2933
864.296	2998
864.428	3043
864.559	3051
864.691	3085
864.823	3047
864.954	3032
865.086	3058
865.217	3024
865.349	2975
865.48	2986
865.612	3013
865.743	3142
865.875	2979
866.006	2914
866.137	2994
866.269	2971
866.4	2922
866.531	2891
866.662	2902
866.793	2902
866.924	2887
867.055	2960
867.186	2914
867.317	2864
867.448	2872
867.579	2849
867.71	2864
867.841	2830
867.972	2887
868.103	2899
868.233	2830
868.364	2883
868.495	2887
868.625	3074
868.756	3150
868.886	2967
869.017	3013
869.147	3161
869.278	3165
869.408	3062
869.539	3001
869.669	3093
869.799	3020
869.929	3108
870.06	3100
870.19	3294
870.32	3264
870.45	3317
870.58	3374
870.71	3428
870.84	3409
870.97	3313
871.1	3249
871.23	3447
871.36	3466
871.489	3363
871.619	3409
871.749	3389
871.879	3401
872.008	3496
872.138	3355
872.267	3283
872.397	3138
872.526	3085
872.656	3009
872.785	3077
872.915	3211
873.044	3294
873.173	3218
873.303	3237
873.432	3211
873.561	3241
873.69	3146
873.819	3119
873.948	3192
874.077	3089
874.206	3028
874.335	3097
874.464	3211
874.593	3332
874.722	3230
874.851	3405
874.979	3336
875.108	3298
875.237	3169
875.365	3150
875.494	3108
875.623	3237
875.751	3032
875.88	3108
876.008	3165
876.136	3203
876.265	3351
876.393	3515
876.521	3397
876.65	3382
876.778	3291
876.906	3249
877.034	3199
877.162	3222
877.29	3161
877.418	3256
877.546	3237
877.674	3222
877.802	3211
877.93	3230
878.058	3161
878.185	3123
878.313	3211
878.441	3222
878.568	3108
878.696	3165
878.824	3279
878.951	3279
879.079	3439
879.206	3606
879.333	3439
879.461	3325
879.588	3351
879.715	3439
879.842	3606
879.97	3397
880.097	3188
880.224	3119
880.351	3188
880.478	3176
880.605	3173
880.732	3169
880.859	3500
880.986	3291
881.112	3348
881.239	3176
881.366	3074
881.493	3055
881.619	2979
881.746	3039
881.872	3062
881.999	3116
882.125	3108
882.252	3264
882.378	3298
882.505	3412
882.631	3264
882.757	3142
882.883	3199
883.01	3192
883.136	3169
883.262	3108
883.388	3085
883.514	3317
883.64	3359
883.766	3298
883.892	3195
884.018	3226
884.143	3409
884.269	3553
884.395	3207
884.52	3173
884.646	3169
884.772	3150
884.897	3081
885.023	3199
885.148	3291
885.274	3401
885.399	3344
885.524	3275
885.65	3214
885.775	3294
885.9	3203
886.025	3401
886.15	3344
886.275	3283
886.4	3184
886.525	3268
886.65	3275
886.775	3268
886.9	3469
887.025	3606
887.149	3405
887.274	3264
887.399	3176
887.523	3222
887.648	3176
887.773	3253
887.897	3397
888.021	3382
888.146	3260
888.27	3370
888.395	3507
888.519	3443
888.643	3443
888.767	3454
888.891	3294
889.015	3218
889.139	3291
889.263	3256
889.387	3397
889.511	3462
889.635	3420
889.759	3275
889.883	3302
890.006	3370
890.13	3477
890.254	3313
890.377	3313
890.501	3165
890.624	3146
890.748	3253
890.871	3165
890.995	3070
891.118	3097
891.241	3188
891.364	3195
891.488	3275
891.611	3211
891.734	3222
891.857	3272
891.98	3230
892.103	3325
892.226	3272
892.349	3214
892.471	3116
892.594	3207
892.717	3268
892.839	3249
892.962	3291
893.085	3348
893.207	3237
893.33	3165
893.452	3218
893.575	3336
893.697	3245
893.819	3458
893.941	3496
894.064	3443
894.186	3245
894.308	3245
894.43	3424
894.552	3515
894.674	3466
894.796	3237
894.918	3329
895.04	3279
895.161	3405
895.283	3363
895.405	3279
895.526	3355
895.648	3454
895.769	3409
895.891	3469
896.012	3458
896.134	3454
896.255	3412
896.376	3378
896.498	3348
896.619	3389
896.74	3363
896.861	3363
896.982	3694
897.103	3816
897.224	3637
897.345	3526
897.466	3416
897.587	3504
897.708	3633
897.828	3519
897.949	3420
898.07	3313
898.19	3412
898.311	3610
898.431	3420
898.552	3477
898.672	3549
898.792	3595
898.913	3557
899.033	3386
899.153	3291
899.273	3192
899.393	3279
899.513	3294
899.633	3287
899.753	3313
899.873	3272
899.993	3370
900.113	3336
900.232	3401
900.352	3348
900.472	3264
900.591	3214
900.711	3291
900.83	3180
900.95	3363
901.069	3428
901.189	3340
901.308	3195
901.427	3108
901.546	3161
901.665	3291
901.784	3298
901.904	3214
902.023	3154
902.141	3024
902.26	2967
902.379	3127
902.498	3043
902.617	3043
902.735	3188
902.854	3237
902.973	3161
903.091	3032
903.21	3036
903.328	3085
903.446	3112
903.565	3070
903.683	3150
903.801	3093
903.919	3245
904.038	3291
904.156	3127
904.274	3291
904.392	3253
904.51	3287
904.627	3298
904.745	3397
904.863	3462
904.981	3272
905.098	3154
905.216	3233
905.334	3313
905.451	3321
905.569	3287
905.686	3454
905.803	3443
905.921	3275
906.038	3424
906.155	3370
906.272	3310
906.389	3340
906.506	3241
906.623	3230
906.74	3233
906.857	3211
906.974	3268
907.091	3443
907.208	3591
907.324	3473
907.441	3393
907.557	3249
907.674	3226
907.79	3237
907.907	3306
908.023	3409
908.139	3431
908.256	3370
908.372	3435
908.488	3355
908.604	3321
908.72	3279
908.836	3329
908.952	3332
909.068	3374
909.184	3473
909.3	3420
909.415	3538
909.531	3526
909.647	3310
909.762	3321
909.878	3294
909.993	3412
910.108	3336
910.224	3348
910.339	3439
910.454	3359
910.57	3363
910.685	3291
910.8	3633
910.915	3568
911.03	3458
911.145	3313
911.259	3321
911.374	3325
911.489	3298
911.604	3291
911.718	3169
911.833	3203
911.947	3104
912.062	3009
912.176	3192
912.291	3184
912.405	3241
912.519	3485
912.633	3496
912.748	3389
912.862	3298
912.976	3230
913.09	3089
913.204	3150
913.318	3222
913.431	3370
913.545	3367
913.659	3424
913.772	3351
913.886	3275
914	3226
914.113	3393
914.226	3469
914.34	3412
914.453	3256
914.566	3466
914.68	3302
914.793	3363
914.906	3226
915.019	3093
915.132	3157
915.245	3222
915.358	3256
915.47	3279
915.583	3313
915.696	3302
915.809	3454
915.921	3458
916.034	3279
916.146	3302
916.259	3249
916.371	3435
916.483	3424
916.595	3313
916.708	3348
916.82	3355
916.932	3393
917.044	3317
917.156	3359
917.268	3291
917.38	3332
917.491	3294
917.603	3401
917.715	3526
917.826	3504
917.938	3401
918.049	3291
918.161	3450
918.272	3641
918.384	3568
918.495	3576
918.606	3344
918.717	3287
918.828	3348
918.939	3462
919.05	3317
919.161	3386
919.272	3199
919.383	3275
919.494	3507
919.604	3713
919.715	3511
919.826	3462
919.936	3473
920.047	3637
920.157	3576
920.267	3789
920.378	3576
920.488	3610
920.598	3785
920.708	3975
920.818	3857
920.928	3884
921.038	4059
921.148	3983
921.258	3736
921.368	3606
921.477	3625
921.587	3545
921.697	3507
921.806	3660
921.916	3576
922.025	3367
922.134	3420
922.244	3382
922.353	3454
922.462	3291
922.571	3256
922.68	3127
922.789	3119
922.898	3161
923.007	3150
923.116	3222
923.224	3211
923.333	3218
923.442	3135
923.55	3097
923.659	3157
923.767	3237
923.876	3116
923.984	3249
924.092	3108
924.201	3203
924.309	3253
924.417	3283
924.525	3230
924.633	3298
924.741	4029
924.849	3070
924.956	3306
925.064	3173
925.172	3074
925.279	3138
925.387	3237
925.494	3241
925.602	3389
925.709	3310
925.816	3237
925.924	3340
926.031	3420
926.138	3336
926.245	3401
926.352	3294
926.459	3431
926.566	3523
926.673	3374
926.779	3279
926.886	3310
926.993	3173
927.099	3176
927.206	3146
927.312	3138
927.419	3253
927.525	3283
927.631	3283
927.737	3157
927.843	3195
927.95	3070
928.056	3146
928.162	3173
928.267	3283
928.373	3903
928.479	3329
928.585	3089
928.69	3237
928.796	3340
928.901	3195
929.007	3108
929.112	3241
929.218	3173
929.323	3184
929.428	3195
929.533	3348
929.638	3165
929.743	3184
929.848	3279
929.953	3230
930.058	3165
930.163	3047
930.267	3074
930.372	3192
930.477	3051
930.581	3367
930.685	3199
930.79	3077
930.894	3173
930.998	3127
931.103	3291
931.207	2994
931.311	2975
931.415	2975
931.519	2800
931.623	2857
