Data from test_V78500241_298.txt Node
Date: Fri Mar 25 16:17:16 CST 2022
User: usil
Spectrometer: V785-0024
Trigger mode: 0
Integration Time (sec): 4.000000E-1
Scans to average: 1
Nonlinearity correction enabled: false
Boxcar width: 0
Storing dark spectrum: false
XAxis mode: Wavelengths
Number of Pixels in Spectrum: 1024
>>>>>Begin Spectral Data<<<<<
801.071	2929
801.214	2998
801.356	2891
801.499	2910
801.641	2872
801.783	2868
801.926	3066
802.068	2982
802.211	3036
802.353	3020
802.496	2929
802.638	3013
802.78	2994
802.923	3062
803.065	3024
803.208	2918
803.35	2891
803.492	2956
803.635	2933
803.777	2762
803.919	2838
804.061	3218
804.204	2918
804.346	2906
804.488	2819
804.63	2971
804.773	2880
804.915	2956
805.057	3070
805.199	2925
805.341	2971
805.483	3036
805.626	3020
805.768	2948
805.91	3024
806.052	3112
806.194	3013
806.336	3233
806.478	2998
806.62	2986
806.762	2986
806.904	3062
807.046	3173
807.188	3001
807.33	2929
807.472	2975
807.614	2937
807.756	2963
807.898	2914
808.04	2910
808.182	2948
808.324	2948
808.465	2849
808.607	2899
808.749	2807
808.891	2868
809.033	2982
809.174	2975
809.316	2918
809.458	2899
809.6	2777
809.741	2796
809.883	2777
810.025	2842
810.166	2826
810.308	2853
810.45	2853
810.591	2758
810.733	2777
810.875	2861
811.016	2785
811.158	2773
811.299	2804
811.441	2944
811.582	2880
811.724	2819
811.865	2830
812.007	2922
812.148	2918
812.29	2842
812.431	2910
812.573	2952
812.714	2963
812.855	3020
812.997	3051
813.138	3077
813.279	3020
813.421	2979
813.562	2933
813.703	2876
813.845	2861
813.986	2785
814.127	2720
814.268	2823
814.41	2895
814.551	2811
814.692	2902
814.833	2842
814.974	2853
815.115	2975
815.256	2826
815.397	2800
815.539	2826
815.68	2762
815.821	2800
815.962	2902
816.103	2948
816.244	2849
816.385	2922
816.526	2929
816.666	2925
816.807	2769
816.948	2880
817.089	2914
817.23	2853
817.371	2819
817.512	2785
817.653	2823
817.793	2826
817.934	2906
818.075	2971
818.216	2998
818.356	3032
818.497	2910
818.638	2826
818.778	2788
818.919	2807
819.06	2773
819.2	2887
819.341	2838
819.481	2834
819.622	2899
819.762	3100
819.903	3047
820.043	2933
820.184	2925
820.324	2891
820.465	3070
820.605	3001
820.746	3066
820.886	2937
821.026	3104
821.167	3165
821.307	3249
821.447	3298
821.588	3256
821.728	3192
821.868	3142
822.008	3055
822.149	3192
822.289	3203
822.429	3112
822.569	3066
822.709	3211
822.849	3009
822.99	3085
823.13	3173
823.27	3207
823.41	3123
823.55	3192
823.69	3150
823.83	3195
823.97	3108
824.11	2979
824.25	3028
824.389	3013
824.529	3119
824.669	3074
824.809	3203
824.949	3253
825.089	3211
825.228	3150
825.368	3009
825.508	2956
825.648	2960
825.787	3036
825.927	3009
826.067	2956
826.206	2960
826.346	3070
826.485	3070
826.625	3119
826.765	3237
826.904	3214
827.044	2998
827.183	2941
827.323	2864
827.462	3001
827.601	2902
827.741	2929
827.88	2914
828.02	2861
828.159	2960
828.298	3032
828.437	3116
828.577	3043
828.716	3245
828.855	3089
828.994	2925
829.134	2883
829.273	2910
829.412	2872
829.551	2853
829.69	2887
829.829	2994
829.968	3135
830.107	2994
830.246	3017
830.385	2906
830.524	2830
830.663	2815
830.802	2739
830.941	2625
831.08	2659
831.219	2785
831.357	2746
831.496	2941
831.635	2727
831.774	2655
831.913	2663
832.051	2556
832.19	2587
832.329	2686
832.467	2533
832.606	2495
832.744	2583
832.883	2560
833.022	2583
833.16	2648
833.299	2682
833.437	2667
833.576	2686
833.714	2708
833.852	2754
833.991	2739
834.129	2823
834.267	2834
834.406	2777
834.544	2891
834.682	2880
834.821	2891
834.959	3058
835.097	2891
835.235	3062
835.373	2975
835.511	2998
835.65	2952
835.788	2941
835.926	2819
836.064	2811
836.202	2826
836.34	3081
836.478	3146
836.615	3066
836.753	3173
836.891	3169
837.029	3192
837.167	3085
837.305	3051
837.443	3017
837.58	2994
837.718	3131
837.856	3097
837.993	3062
838.131	3123
838.269	3123
838.406	3104
838.544	3077
838.681	2929
838.819	2910
838.956	2830
839.094	2807
839.231	2918
839.369	3017
839.506	3359
839.643	3157
839.781	2994
839.918	2979
840.055	3020
840.193	3047
840.33	3039
840.467	3093
840.604	3142
840.742	3397
840.879	3039
841.016	3032
841.153	3142
841.29	3306
841.427	3302
841.564	3268
841.701	3313
841.838	3237
841.975	3165
842.112	3199
842.249	3070
842.385	3032
842.522	3317
842.659	3097
842.796	3093
842.933	3108
843.069	3055
843.206	3043
843.343	3161
843.479	3142
843.616	3138
843.752	2914
843.889	2880
844.025	3058
844.162	2876
844.298	3070
844.435	2941
844.571	2914
844.708	3074
844.844	3188
844.98	3241
845.117	3203
845.253	3043
845.389	3043
845.525	3077
845.661	3081
845.798	2994
845.934	3131
846.07	3036
846.206	3188
846.342	3298
846.478	3233
846.614	3081
846.75	3028
846.886	3020
847.022	3241
847.158	3131
847.294	3195
847.429	3237
847.565	3214
847.701	3428
847.837	3058
847.972	2998
848.108	3138
848.244	3131
848.379	3009
848.515	2967
848.65	2914
848.786	2979
848.921	3032
849.057	3100
849.192	3123
849.328	3036
849.463	3081
849.598	3093
849.734	3055
849.869	2982
850.004	2929
850.14	2933
850.275	2883
850.41	2842
850.545	2895
850.68	2960
850.815	2990
850.95	2941
851.085	3173
851.22	3135
851.355	3047
851.49	3001
851.625	2986
851.76	3020
851.895	2910
852.03	2918
852.165	3077
852.299	3108
852.434	3154
852.569	3123
852.703	3142
852.838	3268
852.973	3336
853.107	3348
853.242	3161
853.376	3097
853.511	2971
853.645	3055
853.78	3237
853.914	3138
854.048	3100
854.183	3074
854.317	3123
854.451	3275
854.585	3097
854.72	3100
854.854	3176
854.988	3058
855.122	3085
855.256	2956
855.39	3127
855.524	3275
855.658	3192
855.792	3150
855.926	3230
856.06	3214
856.194	3313
856.327	3150
856.461	3047
856.595	3138
856.729	3097
856.862	3256
856.996	3100
857.13	3211
857.263	3260
857.397	3302
857.53	3131
857.664	3192
857.797	3214
857.931	3230
858.064	3184
858.197	3237
858.331	3100
858.464	3074
858.597	3024
858.731	3089
858.864	3150
858.997	3116
859.13	3119
859.263	3161
859.396	3207
859.529	3058
859.662	3066
859.795	3062
859.928	3131
860.061	3241
860.194	3275
860.327	3135
860.46	3062
860.592	3222
860.725	3237
860.858	3226
860.99	3123
861.123	3024
861.256	3066
861.388	3138
861.521	3896
861.653	3017
861.786	2986
861.918	3005
862.05	3085
862.183	3081
862.315	3138
862.447	3237
862.58	3097
862.712	2967
862.844	2883
862.976	3020
863.108	2979
863.24	3294
863.372	2887
863.504	3009
863.636	2948
863.768	3055
863.9	3005
864.032	2922
864.164	2925
864.296	3005
864.428	3047
864.559	3085
864.691	3089
864.823	3058
864.954	3055
865.086	3077
865.217	2994
865.349	2952
865.48	3009
865.612	3024
865.743	3150
865.875	2971
866.006	2937
866.137	3001
866.269	2956
866.4	2910
866.531	2933
866.662	2864
866.793	2910
866.924	2933
867.055	3009
867.186	2933
867.317	2864
867.448	2861
867.579	2845
867.71	2815
867.841	2857
867.972	2933
868.103	2933
868.233	2906
868.364	2876
868.495	2902
868.625	3051
868.756	3176
868.886	3001
869.017	3020
869.147	3173
869.278	3165
869.408	3039
869.539	3047
869.669	3112
869.799	3036
869.929	3176
870.06	3123
870.19	3336
870.32	3325
870.45	3302
870.58	3370
870.71	3420
870.84	3466
870.97	3279
871.1	3222
871.23	3477
871.36	3462
871.489	3359
871.619	3409
871.749	3454
871.879	3416
872.008	3496
872.138	3374
872.267	3264
872.397	3165
872.526	3116
872.656	2998
872.785	3077
872.915	3226
873.044	3355
873.173	3195
873.303	3253
873.432	3241
873.561	3218
873.69	3165
873.819	3131
873.948	3157
874.077	3093
874.206	3032
874.335	3074
874.464	3222
874.593	3325
874.722	3211
874.851	3431
874.979	3340
875.108	3310
875.237	3188
875.365	3157
875.494	3157
875.623	3249
875.751	3108
875.88	3116
876.008	3203
876.136	3222
876.265	3386
876.393	3496
876.521	3389
876.65	3370
876.778	3298
876.906	3256
877.034	3226
877.162	3233
877.29	3173
877.418	3275
877.546	3249
877.674	3256
877.802	3275
877.93	3230
878.058	3180
878.185	3108
878.313	3199
878.441	3165
878.568	3062
878.696	3157
878.824	3260
878.951	3325
879.079	3462
879.206	3606
879.333	3443
879.461	3351
879.588	3370
879.715	3447
879.842	3641
879.97	3363
880.097	3161
880.224	3123
880.351	3161
880.478	3222
880.605	3154
880.732	3173
880.859	3511
880.986	3329
881.112	3325
881.239	3188
881.366	3062
881.493	3028
881.619	2998
881.746	3043
881.872	3093
881.999	3119
882.125	3146
882.252	3233
882.378	3306
882.505	3397
882.631	3294
882.757	3119
882.883	3195
883.01	3184
883.136	3157
883.262	3089
883.388	3100
883.514	3336
883.64	3351
883.766	3287
883.892	3195
884.018	3233
884.143	3439
884.269	3523
884.395	3195
884.52	3146
884.646	3176
884.772	3142
884.897	3097
885.023	3195
885.148	3325
885.274	3431
885.399	3359
885.524	3233
885.65	3245
885.775	3298
885.9	3264
886.025	3397
886.15	3374
886.275	3317
886.4	3233
886.525	3351
886.65	3230
886.775	3287
886.9	3519
887.025	3667
887.149	3416
887.274	3256
887.399	3165
887.523	3169
887.648	3195
887.773	3203
887.897	3386
888.021	3416
888.146	3313
888.27	3428
888.395	3526
888.519	3477
888.643	3439
888.767	3504
888.891	3294
889.015	3222
889.139	3291
889.263	3253
889.387	3416
889.511	3519
889.635	3416
889.759	3260
889.883	3302
890.006	3382
890.13	3504
890.254	3268
890.377	3313
890.501	3237
890.624	3165
890.748	3272
890.871	3135
890.995	3112
891.118	3066
891.241	3195
891.364	3233
891.488	3310
891.611	3184
891.734	3260
891.857	3256
891.98	3249
892.103	3340
892.226	3283
892.349	3203
892.471	3100
892.594	3222
892.717	3302
892.839	3272
892.962	3283
893.085	3306
893.207	3291
893.33	3176
893.452	3245
893.575	3344
893.697	3226
893.819	3469
893.941	3500
894.064	3431
894.186	3249
894.308	3279
894.43	3481
894.552	3523
894.674	3477
894.796	3245
894.918	3367
895.04	3344
895.161	3447
895.283	3359
895.405	3283
895.526	3336
895.648	3393
895.769	3401
895.891	3443
896.012	3458
896.134	3439
896.255	3420
896.376	3386
896.498	3359
896.619	3450
896.74	3382
896.861	3370
896.982	3660
897.103	3857
897.224	3625
897.345	3526
897.466	3378
897.587	3526
897.708	3591
897.828	3549
897.949	3473
898.07	3359
898.19	3412
898.311	3587
898.431	3454
898.552	3515
898.672	3595
898.792	3557
898.913	3553
899.033	3397
899.153	3306
899.273	3207
899.393	3230
899.513	3313
899.633	3313
899.753	3340
899.873	3279
899.993	3420
900.113	3325
900.232	3378
900.352	3306
900.472	3260
900.591	3226
900.711	3317
900.83	3260
900.95	3420
901.069	3523
901.189	3355
901.308	3199
901.427	3165
901.546	3176
901.665	3272
901.784	3344
901.904	3230
902.023	3142
902.141	3020
902.26	3024
902.379	3131
902.498	3066
902.617	3070
902.735	3207
902.854	3241
902.973	3188
903.091	3062
903.21	3055
903.328	3154
903.446	3089
903.565	3146
903.683	3207
903.801	3104
903.919	3264
904.038	3260
904.156	3142
904.274	3287
904.392	3226
904.51	3298
904.627	3370
904.745	3473
904.863	3488
904.981	3249
905.098	3173
905.216	3230
905.334	3279
905.451	3351
905.569	3283
905.686	3435
905.803	3447
905.921	3291
906.038	3401
906.155	3351
906.272	3260
906.389	3367
906.506	3233
906.623	3291
906.74	3291
906.857	3176
906.974	3283
907.091	3450
907.208	3603
907.324	3492
907.441	3401
907.557	3237
907.674	3241
907.79	3241
907.907	3256
908.023	3420
908.139	3367
908.256	3306
908.372	3389
908.488	3370
908.604	3283
908.72	3199
908.836	3268
908.952	3306
909.068	3321
909.184	3488
909.3	3389
909.415	3515
909.531	3500
909.647	3283
909.762	3268
909.878	3264
909.993	3359
910.108	3332
910.224	3363
910.339	3477
910.454	3344
910.57	3283
910.685	3222
910.8	3564
910.915	3526
911.03	3454
911.145	3264
911.259	3279
911.374	3321
911.489	3192
911.604	3211
911.718	3119
911.833	3165
911.947	3043
912.062	2998
912.176	3165
912.291	3192
912.405	3157
912.519	3435
912.633	3469
912.748	3329
912.862	3260
912.976	3154
913.09	3055
913.204	3157
913.318	3180
913.431	3332
913.545	3321
913.659	3409
913.772	3302
913.886	3176
914	3165
914.113	3367
914.226	3378
914.34	3382
914.453	3222
914.566	3428
914.68	3329
914.793	3294
914.906	3199
915.019	3108
915.132	3089
915.245	3165
915.358	3214
915.47	3279
915.583	3230
915.696	3291
915.809	3405
915.921	3443
916.034	3237
916.146	3264
916.259	3214
916.371	3370
916.483	3370
916.595	3256
916.708	3329
916.82	3382
916.932	3359
917.044	3351
917.156	3355
917.268	3249
917.38	3310
917.491	3313
917.603	3355
917.715	3477
917.826	3458
917.938	3393
918.049	3325
918.161	3439
918.272	3549
918.384	3564
918.495	3530
918.606	3317
918.717	3272
918.828	3367
918.939	3428
919.05	3329
919.161	3321
919.272	3176
919.383	3310
919.494	3469
919.604	3690
919.715	3492
919.826	3405
919.936	3428
920.047	3595
920.157	3564
920.267	3770
920.378	3633
920.488	3553
920.598	3797
920.708	3918
920.818	3785
920.928	3793
921.038	4078
921.148	3983
921.258	3690
921.368	3644
921.477	3572
921.587	3538
921.697	3462
921.806	3641
921.916	3519
922.025	3336
922.134	3351
922.244	3310
922.353	3477
922.462	3260
922.571	3249
922.68	3108
922.789	3070
922.898	3131
923.007	3112
923.116	3222
923.224	3180
923.333	3203
923.442	3116
923.55	3135
923.659	3161
923.767	3249
923.876	3097
923.984	3233
924.092	3058
924.201	3211
924.309	3256
924.417	3249
924.525	3203
924.633	3260
924.741	4139
924.849	3043
924.956	3310
925.064	3119
925.172	3039
925.279	3127
925.387	3222
925.494	3188
925.602	3370
925.709	3344
925.816	3218
925.924	3306
926.031	3351
926.138	3329
926.245	3348
926.352	3264
926.459	3431
926.566	3496
926.673	3275
926.779	3241
926.886	3272
926.993	3150
927.099	3112
927.206	3150
927.312	3108
927.419	3256
927.525	3211
927.631	3275
927.737	3150
927.843	3116
927.95	3047
928.056	3123
928.162	3176
928.267	3245
928.373	3896
928.479	3363
928.585	3020
928.69	3195
928.796	3279
928.901	3161
929.007	3058
929.112	3211
929.218	3188
929.323	3150
929.428	3131
929.533	3317
929.638	3093
929.743	3165
929.848	3279
929.953	3211
930.058	3157
930.163	2952
930.267	3028
930.372	3180
930.477	3055
930.581	3283
930.685	3195
930.79	3074
930.894	3135
930.998	3100
931.103	3260
931.207	2925
931.311	2933
931.415	2922
931.519	2800
931.623	2845
