Data from test_V78500241_215.txt Node
Date: Fri Mar 25 16:16:41 CST 2022
User: usil
Spectrometer: V785-0024
Trigger mode: 0
Integration Time (sec): 4.000000E-1
Scans to average: 1
Nonlinearity correction enabled: false
Boxcar width: 0
Storing dark spectrum: false
XAxis mode: Wavelengths
Number of Pixels in Spectrum: 1024
>>>>>Begin Spectral Data<<<<<
801.071	2929
801.214	2952
801.356	2853
801.499	2910
801.641	2887
801.783	2956
801.926	3062
802.068	2967
802.211	3001
802.353	3043
802.496	2971
802.638	3028
802.78	3017
802.923	3074
803.065	2952
803.208	2914
803.35	2937
803.492	2925
803.635	2922
803.777	2807
803.919	2804
804.061	3218
804.204	2952
804.346	2914
804.488	2845
804.63	2998
804.773	2891
804.915	2944
805.057	3116
805.199	2960
805.341	2986
805.483	3043
805.626	2979
805.768	2952
805.91	3085
806.052	3131
806.194	3058
806.336	3203
806.478	3039
806.62	2990
806.762	2986
806.904	3089
807.046	3192
807.188	2982
807.33	2910
807.472	2975
807.614	2895
807.756	2998
807.898	2941
808.04	2922
808.182	2998
808.324	2941
808.465	2910
808.607	2902
808.749	2785
808.891	2861
809.033	2948
809.174	2994
809.316	2883
809.458	2910
809.6	2792
809.741	2777
809.883	2773
810.025	2876
810.166	2842
810.308	2845
810.45	2872
810.591	2781
810.733	2785
810.875	2815
811.016	2800
811.158	2766
811.299	2785
811.441	2933
811.582	2910
811.724	2811
811.865	2823
812.007	2948
812.148	2868
812.29	2853
812.431	2883
812.573	2967
812.714	2979
812.855	3081
812.997	3047
813.138	3135
813.279	3024
813.421	3009
813.562	2948
813.703	2914
813.845	2887
813.986	2792
814.127	2766
814.268	2826
814.41	2834
814.551	2876
814.692	2853
814.833	2815
814.974	2887
815.115	2971
815.256	2826
815.397	2830
815.539	2872
815.68	2766
815.821	2819
815.962	2952
816.103	2925
816.244	2895
816.385	2891
816.526	2994
816.666	2971
816.807	2739
816.948	2918
817.089	2906
817.23	2861
817.371	2796
817.512	2823
817.653	2861
817.793	2834
817.934	2883
818.075	2960
818.216	3017
818.356	3047
818.497	2895
818.638	2777
818.778	2823
818.919	2785
819.06	2781
819.2	2906
819.341	2781
819.481	2819
819.622	2925
819.762	3074
819.903	3009
820.043	2948
820.184	2876
820.324	2876
820.465	3009
820.605	2975
820.746	3017
820.886	2956
821.026	3100
821.167	3192
821.307	3253
821.447	3264
821.588	3241
821.728	3233
821.868	3218
822.008	3108
822.149	3195
822.289	3222
822.429	3104
822.569	3097
822.709	3176
822.849	3013
822.99	3066
823.13	3169
823.27	3203
823.41	3093
823.55	3135
823.69	3192
823.83	3199
823.97	3123
824.11	3017
824.25	3043
824.389	3062
824.529	3112
824.669	3051
824.809	3214
824.949	3268
825.089	3260
825.228	3173
825.368	3081
825.508	2963
825.648	3001
825.787	2986
825.927	3005
826.067	2967
826.206	2971
826.346	3043
826.485	3077
826.625	3123
826.765	3272
826.904	3214
827.044	2982
827.183	2918
827.323	2868
827.462	2998
827.601	2895
827.741	2918
827.88	2941
828.02	2853
828.159	2956
828.298	3036
828.437	3123
828.577	3032
828.716	3241
828.855	3104
828.994	2948
829.134	2902
829.273	2906
829.412	2902
829.551	2902
829.69	2883
829.829	2967
829.968	3119
830.107	2998
830.246	3024
830.385	2914
830.524	2857
830.663	2830
830.802	2758
830.941	2674
831.08	2678
831.219	2758
831.357	2746
831.496	2883
831.635	2727
831.774	2686
831.913	2689
832.051	2549
832.19	2575
832.329	2682
832.467	2545
832.606	2530
832.744	2602
832.883	2587
833.022	2590
833.16	2682
833.299	2712
833.437	2720
833.576	2735
833.714	2731
833.852	2720
833.991	2807
834.129	2887
834.267	2868
834.406	2826
834.544	2876
834.682	2868
834.821	2872
834.959	3066
835.097	2910
835.235	3055
835.373	2975
835.511	3043
835.65	2948
835.788	2975
835.926	2830
836.064	2815
836.202	2853
836.34	3131
836.478	3188
836.615	3097
836.753	3135
836.891	3233
837.029	3184
837.167	3112
837.305	3062
837.443	3066
837.58	2952
837.718	3176
837.856	3066
837.993	3043
838.131	3123
838.269	3097
838.406	3142
838.544	3081
838.681	2948
838.819	2941
838.956	2823
839.094	2830
839.231	2933
839.369	3005
839.506	3374
839.643	3211
839.781	3055
839.918	2956
840.055	3047
840.193	3020
840.33	3085
840.467	3093
840.604	3184
840.742	3431
840.879	3066
841.016	3017
841.153	3131
841.29	3344
841.427	3294
841.564	3264
841.701	3336
841.838	3249
841.975	3180
842.112	3180
842.249	3077
842.385	3039
842.522	3233
842.659	3074
842.796	3051
842.933	3077
843.069	3043
843.206	3013
843.343	3188
843.479	3112
843.616	3146
843.752	2891
843.889	2887
844.025	3081
844.162	2891
844.298	3112
844.435	2929
844.571	2941
844.708	3055
844.844	3226
844.98	3264
845.117	3237
845.253	3043
845.389	3001
845.525	3074
845.661	3070
845.798	3032
845.934	3135
846.07	3074
846.206	3237
846.342	3348
846.478	3214
846.614	3093
846.75	3062
846.886	3036
847.022	3241
847.158	3116
847.294	3184
847.429	3241
847.565	3222
847.701	3481
847.837	3013
847.972	3009
848.108	3180
848.244	3188
848.379	3013
848.515	2925
848.65	2929
848.786	2956
848.921	3039
849.057	3112
849.192	3180
849.328	3047
849.463	3104
849.598	3085
849.734	3028
849.869	2960
850.004	2887
850.14	2963
850.275	2941
850.41	2853
850.545	2899
850.68	2925
850.815	2918
850.95	2963
851.085	3169
851.22	3116
851.355	3058
851.49	2963
851.625	3005
851.76	3013
851.895	2967
852.03	2941
852.165	3058
852.299	3157
852.434	3207
852.569	3116
852.703	3176
852.838	3294
852.973	3344
853.107	3287
853.242	3169
853.376	3093
853.511	3017
853.645	3047
853.78	3230
853.914	3131
854.048	3093
854.183	3085
854.317	3161
854.451	3310
854.585	3108
854.72	3104
854.854	3241
854.988	3032
855.122	3097
855.256	2982
855.39	3127
855.524	3207
855.658	3199
855.792	3157
855.926	3188
856.06	3195
856.194	3272
856.327	3161
856.461	3085
856.595	3138
856.729	3085
856.862	3195
856.996	3180
857.13	3176
857.263	3218
857.397	3302
857.53	3081
857.664	3195
857.797	3214
857.931	3237
858.064	3150
858.197	3245
858.331	3165
858.464	3085
858.597	3001
858.731	3112
858.864	3157
858.997	3081
859.13	3184
859.263	3207
859.396	3218
859.529	3100
859.662	3074
859.795	3032
859.928	3150
860.061	3291
860.194	3272
860.327	3119
860.46	3100
860.592	3199
860.725	3283
860.858	3245
860.99	3119
861.123	3085
861.256	3081
861.388	3146
861.521	3884
861.653	3017
861.786	2982
861.918	3043
862.05	3070
862.183	3131
862.315	3119
862.447	3222
862.58	3089
862.712	2960
862.844	2883
862.976	3039
863.108	3036
863.24	3348
863.372	2880
863.504	2963
863.636	3005
863.768	2990
863.9	2960
864.032	2895
864.164	2922
864.296	3024
864.428	3055
864.559	3112
864.691	3100
864.823	3055
864.954	3062
865.086	3066
865.217	2986
865.349	2937
865.48	2971
865.612	3047
865.743	3165
865.875	2979
866.006	2944
866.137	3001
866.269	2929
866.4	2914
866.531	2918
866.662	2883
866.793	2944
866.924	2899
867.055	2967
867.186	2914
867.317	2891
867.448	2876
867.579	2872
867.71	2826
867.841	2861
867.972	2902
868.103	2891
868.233	2906
868.364	2876
868.495	2948
868.625	3074
868.756	3146
868.886	2994
869.017	3009
869.147	3184
869.278	3154
869.408	3089
869.539	3070
869.669	3135
869.799	3062
869.929	3123
870.06	3123
870.19	3313
870.32	3287
870.45	3317
870.58	3401
870.71	3450
870.84	3439
870.97	3294
871.1	3253
871.23	3523
871.36	3389
871.489	3321
871.619	3420
871.749	3428
871.879	3439
872.008	3428
872.138	3359
872.267	3272
872.397	3165
872.526	3097
872.656	2971
872.785	3135
872.915	3249
873.044	3306
873.173	3256
873.303	3275
873.432	3253
873.561	3264
873.69	3138
873.819	3150
873.948	3184
874.077	3119
874.206	3043
874.335	3097
874.464	3230
874.593	3355
874.722	3260
874.851	3386
874.979	3340
875.108	3332
875.237	3188
875.365	3161
875.494	3150
875.623	3249
875.751	3081
875.88	3135
876.008	3157
876.136	3268
876.265	3351
876.393	3515
876.521	3447
876.65	3431
876.778	3363
876.906	3237
877.034	3237
877.162	3241
877.29	3176
877.418	3264
877.546	3260
877.674	3214
877.802	3237
877.93	3233
878.058	3176
878.185	3112
878.313	3180
878.441	3226
878.568	3085
878.696	3169
878.824	3264
878.951	3310
879.079	3500
879.206	3663
879.333	3435
879.461	3367
879.588	3378
879.715	3466
879.842	3644
879.97	3382
880.097	3180
880.224	3180
880.351	3241
880.478	3226
880.605	3180
880.732	3203
880.859	3485
880.986	3325
881.112	3325
881.239	3207
881.366	3127
881.493	3051
881.619	3028
881.746	3097
881.872	3146
881.999	3119
882.125	3135
882.252	3264
882.378	3313
882.505	3401
882.631	3256
882.757	3127
882.883	3237
883.01	3272
883.136	3211
883.262	3123
883.388	3093
883.514	3298
883.64	3355
883.766	3348
883.892	3195
884.018	3230
884.143	3450
884.269	3553
884.395	3207
884.52	3211
884.646	3195
884.772	3146
884.897	3077
885.023	3188
885.148	3302
885.274	3428
885.399	3401
885.524	3310
885.65	3249
885.775	3294
885.9	3253
886.025	3454
886.15	3363
886.275	3317
886.4	3256
886.525	3313
886.65	3268
886.775	3283
886.9	3477
887.025	3629
887.149	3397
887.274	3241
887.399	3161
887.523	3203
887.648	3211
887.773	3222
887.897	3431
888.021	3389
888.146	3306
888.27	3462
888.395	3549
888.519	3443
888.643	3466
888.767	3462
888.891	3321
889.015	3226
889.139	3291
889.263	3241
889.387	3424
889.511	3545
889.635	3450
889.759	3310
889.883	3313
890.006	3363
890.13	3473
890.254	3272
890.377	3332
890.501	3241
890.624	3173
890.748	3325
890.871	3188
890.995	3097
891.118	3085
891.241	3226
891.364	3230
891.488	3332
891.611	3165
891.734	3256
891.857	3306
891.98	3226
892.103	3374
892.226	3264
892.349	3226
892.471	3161
892.594	3237
892.717	3298
892.839	3279
892.962	3283
893.085	3363
893.207	3287
893.33	3154
893.452	3226
893.575	3313
893.697	3237
893.819	3481
893.941	3504
894.064	3428
894.186	3279
894.308	3264
894.43	3431
894.552	3538
894.674	3469
894.796	3298
894.918	3294
895.04	3306
895.161	3439
895.283	3428
895.405	3355
895.526	3382
895.648	3454
895.769	3435
895.891	3454
896.012	3443
896.134	3515
896.255	3382
896.376	3401
896.498	3374
896.619	3439
896.74	3374
896.861	3428
896.982	3690
897.103	3819
897.224	3557
897.345	3519
897.466	3405
897.587	3481
897.708	3618
897.828	3568
897.949	3466
898.07	3329
898.19	3416
898.311	3599
898.431	3458
898.552	3526
898.672	3648
898.792	3618
898.913	3557
899.033	3409
899.153	3268
899.273	3211
899.393	3283
899.513	3336
899.633	3340
899.753	3294
899.873	3351
899.993	3409
900.113	3329
900.232	3409
900.352	3355
900.472	3275
900.591	3203
900.711	3283
900.83	3268
900.95	3458
901.069	3519
901.189	3359
901.308	3203
901.427	3123
901.546	3199
901.665	3256
901.784	3348
901.904	3233
902.023	3169
902.141	3020
902.26	2990
902.379	3131
902.498	3089
902.617	3089
902.735	3214
902.854	3230
902.973	3203
903.091	3077
903.21	3081
903.328	3142
903.446	3077
903.565	3135
903.683	3214
903.801	3138
903.919	3272
904.038	3287
904.156	3195
904.274	3272
904.392	3287
904.51	3256
904.627	3389
904.745	3439
904.863	3454
904.981	3233
905.098	3176
905.216	3230
905.334	3287
905.451	3306
905.569	3321
905.686	3424
905.803	3458
905.921	3294
906.038	3431
906.155	3355
906.272	3310
906.389	3351
906.506	3218
906.623	3279
906.74	3249
906.857	3207
906.974	3279
907.091	3412
907.208	3584
907.324	3481
907.441	3424
907.557	3233
907.674	3226
907.79	3230
907.907	3291
908.023	3389
908.139	3351
908.256	3332
908.372	3393
908.488	3393
908.604	3283
908.72	3211
908.836	3279
908.952	3306
909.068	3302
909.184	3496
909.3	3382
909.415	3485
909.531	3507
909.647	3264
909.762	3298
909.878	3241
909.993	3359
910.108	3348
910.224	3374
910.339	3416
910.454	3367
910.57	3275
910.685	3230
910.8	3663
910.915	3557
911.03	3469
911.145	3207
911.259	3332
911.374	3321
911.489	3272
911.604	3218
911.718	3119
911.833	3161
911.947	3013
912.062	2998
912.176	3180
912.291	3188
912.405	3230
912.519	3431
912.633	3439
912.748	3374
912.862	3279
912.976	3207
913.09	3077
913.204	3165
913.318	3195
913.431	3329
913.545	3397
913.659	3412
913.772	3332
913.886	3218
914	3188
914.113	3367
914.226	3386
914.34	3370
914.453	3237
914.566	3416
914.68	3310
914.793	3325
914.906	3169
915.019	3131
915.132	3066
915.245	3173
915.358	3184
915.47	3253
915.583	3283
915.696	3291
915.809	3416
915.921	3439
916.034	3237
916.146	3233
916.259	3218
916.371	3393
916.483	3424
916.595	3287
916.708	3298
916.82	3336
916.932	3344
917.044	3370
917.156	3374
917.268	3291
917.38	3291
917.491	3298
917.603	3386
917.715	3485
917.826	3435
917.938	3389
918.049	3260
918.161	3485
918.272	3576
918.384	3603
918.495	3526
918.606	3351
918.717	3298
918.828	3393
918.939	3378
919.05	3332
919.161	3409
919.272	3169
919.383	3264
919.494	3492
919.604	3713
919.715	3481
919.826	3424
919.936	3477
920.047	3561
920.157	3561
920.267	3743
920.378	3641
920.488	3595
920.598	3778
920.708	3926
920.818	3816
920.928	3861
921.038	4025
921.148	4032
921.258	3717
921.368	3618
921.477	3580
921.587	3534
921.697	3431
921.806	3641
921.916	3549
922.025	3367
922.134	3393
922.244	3317
922.353	3424
922.462	3283
922.571	3214
922.68	3142
922.789	3081
922.898	3165
923.007	3127
923.116	3226
923.224	3173
923.333	3230
923.442	3100
923.55	3093
923.659	3165
923.767	3226
923.876	3127
923.984	3256
924.092	3119
924.201	3207
924.309	3233
924.417	3233
924.525	3199
924.633	3253
924.741	4185
924.849	3055
924.956	3291
925.064	3127
925.172	3077
925.279	3112
925.387	3226
925.494	3226
925.602	3363
925.709	3321
925.816	3214
925.924	3317
926.031	3386
926.138	3306
926.245	3374
926.352	3294
926.459	3439
926.566	3462
926.673	3363
926.779	3268
926.886	3226
926.993	3157
927.099	3131
927.206	3127
927.312	3135
927.419	3268
927.525	3195
927.631	3298
927.737	3157
927.843	3135
927.95	2982
928.056	3142
928.162	3142
928.267	3253
928.373	3903
928.479	3317
928.585	3081
928.69	3241
928.796	3279
928.901	3173
929.007	3074
929.112	3195
929.218	3203
929.323	3119
929.428	3184
929.533	3332
929.638	3131
929.743	3207
929.848	3272
929.953	3226
930.058	3154
930.163	3032
930.267	3051
930.372	3211
930.477	3051
930.581	3317
930.685	3176
930.79	3024
930.894	3142
930.998	3108
931.103	3313
931.207	2982
931.311	2933
931.415	2937
931.519	2788
931.623	2807
