Data from test_V78500241_1689.txt Node
Date: Fri Mar 25 16:26:54 CST 2022
User: usil
Spectrometer: V785-0024
Trigger mode: 0
Integration Time (sec): 4.000000E-1
Scans to average: 1
Nonlinearity correction enabled: false
Boxcar width: 0
Storing dark spectrum: false
XAxis mode: Wavelengths
Number of Pixels in Spectrum: 1024
>>>>>Begin Spectral Data<<<<<
801.071	2906
801.214	2914
801.356	2857
801.499	2857
801.641	2849
801.783	2941
801.926	3001
802.068	2975
802.211	2967
802.353	3036
802.496	2941
802.638	2990
802.78	3005
802.923	3058
803.065	2975
803.208	2918
803.35	2895
803.492	2902
803.635	2925
803.777	2788
803.919	2880
804.061	3161
804.204	2963
804.346	2914
804.488	2842
804.63	2982
804.773	2861
804.915	2902
805.057	3051
805.199	2933
805.341	2956
805.483	3036
805.626	3005
805.768	2944
805.91	3089
806.052	3112
806.194	3001
806.336	3150
806.478	2990
806.62	2963
806.762	2933
806.904	3055
807.046	3123
807.188	2998
807.33	2899
807.472	2994
807.614	2918
807.756	2952
807.898	2914
808.04	2857
808.182	2967
808.324	2922
808.465	2872
808.607	2838
808.749	2792
808.891	2853
809.033	2960
809.174	2967
809.316	2891
809.458	2925
809.6	2773
809.741	2746
809.883	2773
810.025	2853
810.166	2842
810.308	2830
810.45	2838
810.591	2766
810.733	2743
810.875	2842
811.016	2746
811.158	2735
811.299	2785
811.441	2922
811.582	2880
811.724	2830
811.865	2826
812.007	2944
812.148	2838
812.29	2811
812.431	2883
812.573	2925
812.714	2948
812.855	3062
812.997	3036
813.138	3116
813.279	2994
813.421	2963
813.562	2960
813.703	2864
813.845	2857
813.986	2807
814.127	2727
814.268	2785
814.41	2830
814.551	2788
814.692	2887
814.833	2826
814.974	2906
815.115	2906
815.256	2815
815.397	2815
815.539	2861
815.68	2750
815.821	2796
815.962	2925
816.103	2933
816.244	2857
816.385	2834
816.526	2925
816.666	2891
816.807	2712
816.948	2872
817.089	2918
817.23	2857
817.371	2758
817.512	2781
817.653	2864
817.793	2800
817.934	2872
818.075	2933
818.216	2941
818.356	3017
818.497	2880
818.638	2792
818.778	2807
818.919	2773
819.06	2735
819.2	2849
819.341	2785
819.481	2807
819.622	2929
819.762	3085
819.903	3009
820.043	2899
820.184	2895
820.324	2883
820.465	3005
820.605	3001
820.746	3013
820.886	2910
821.026	3097
821.167	3131
821.307	3207
821.447	3260
821.588	3260
821.728	3214
821.868	3142
822.008	3089
822.149	3165
822.289	3218
822.429	3089
822.569	3062
822.709	3188
822.849	3005
822.99	3066
823.13	3173
823.27	3226
823.41	3104
823.55	3135
823.69	3157
823.83	3188
823.97	3089
824.11	3032
824.25	3017
824.389	3036
824.529	3119
824.669	3089
824.809	3192
824.949	3245
825.089	3230
825.228	3192
825.368	2979
825.508	2979
825.648	2937
825.787	3017
825.927	2998
826.067	2982
826.206	2963
826.346	3077
826.485	3093
826.625	3108
826.765	3310
826.904	3260
827.044	3047
827.183	2982
827.323	2902
827.462	2990
827.601	2956
827.741	2960
827.88	3017
828.02	2868
828.159	2990
828.298	3062
828.437	3138
828.577	3043
828.716	3294
828.855	3135
828.994	2956
829.134	2910
829.273	2906
829.412	2952
829.551	2922
829.69	2956
829.829	3047
829.968	3154
830.107	3104
830.246	3097
830.385	2941
830.524	2895
830.663	2872
830.802	2781
830.941	2667
831.08	2686
831.219	2815
831.357	2766
831.496	2990
831.635	2773
831.774	2693
831.913	2724
832.051	2606
832.19	2598
832.329	2670
832.467	2587
832.606	2545
832.744	2625
832.883	2617
833.022	2617
833.16	2693
833.299	2754
833.437	2716
833.576	2739
833.714	2781
833.852	2758
833.991	2838
834.129	2899
834.267	2849
834.406	2853
834.544	2883
834.682	2899
834.821	2876
834.959	3116
835.097	2922
835.235	3051
835.373	3039
835.511	3055
835.65	2998
835.788	3009
835.926	2880
836.064	2834
836.202	2914
836.34	3116
836.478	3184
836.615	3093
836.753	3154
836.891	3214
837.029	3211
837.167	3138
837.305	3108
837.443	3051
837.58	3013
837.718	3161
837.856	3104
837.993	3017
838.131	3176
838.269	3127
838.406	3127
838.544	3093
838.681	2944
838.819	2952
838.956	2826
839.094	2845
839.231	2963
839.369	3043
839.506	3409
839.643	3287
839.781	3032
839.918	2960
840.055	3081
840.193	3077
840.33	3089
840.467	3123
840.604	3173
840.742	3435
840.879	3085
841.016	3062
841.153	3161
841.29	3378
841.427	3355
841.564	3294
841.701	3340
841.838	3226
841.975	3211
842.112	3249
842.249	3104
842.385	3047
842.522	3253
842.659	3070
842.796	3074
842.933	3142
843.069	3047
843.206	3093
843.343	3222
843.479	3146
843.616	3192
843.752	2922
843.889	2880
844.025	3116
844.162	2941
844.298	3081
844.435	2990
844.571	2944
844.708	3085
844.844	3256
844.98	3249
845.117	3260
845.253	3081
845.389	3039
845.525	3127
845.661	3127
845.798	3039
845.934	3150
846.07	3074
846.206	3241
846.342	3340
846.478	3256
846.614	3108
846.75	3100
846.886	3062
847.022	3279
847.158	3173
847.294	3207
847.429	3291
847.565	3241
847.701	3515
847.837	3043
847.972	3055
848.108	3154
848.244	3211
848.379	2990
848.515	2956
848.65	2982
848.786	2986
848.921	3001
849.057	3123
849.192	3180
849.328	3112
849.463	3161
849.598	3077
849.734	3043
849.869	3005
850.004	2944
850.14	2986
850.275	2933
850.41	2883
850.545	2895
850.68	2956
850.815	3001
850.95	3009
851.085	3237
851.22	3142
851.355	3047
851.49	3009
851.625	3024
851.76	3043
851.895	2971
852.03	2956
852.165	3051
852.299	3119
852.434	3188
852.569	3188
852.703	3192
852.838	3268
852.973	3359
853.107	3332
853.242	3173
853.376	3138
853.511	2990
853.645	3074
853.78	3260
853.914	3165
854.048	3157
854.183	3116
854.317	3157
854.451	3348
854.585	3211
854.72	3127
854.854	3249
854.988	3089
855.122	3112
855.256	3028
855.39	3119
855.524	3298
855.658	3211
855.792	3165
855.926	3230
856.06	3264
856.194	3313
856.327	3150
856.461	3055
856.595	3097
856.729	3135
856.862	3245
856.996	3165
857.13	3169
857.263	3211
857.397	3294
857.53	3142
857.664	3245
857.797	3253
857.931	3306
858.064	3195
858.197	3211
858.331	3154
858.464	3077
858.597	3039
858.731	3165
858.864	3142
858.997	3112
859.13	3207
859.263	3233
859.396	3245
859.529	3093
859.662	3100
859.795	3062
859.928	3176
860.061	3321
860.194	3313
860.327	3157
860.46	3123
860.592	3245
860.725	3294
860.858	3268
860.99	3089
861.123	3055
861.256	3074
861.388	3169
861.521	3857
861.653	3009
861.786	3009
861.918	3028
862.05	3097
862.183	3093
862.315	3176
862.447	3214
862.58	3142
862.712	2952
862.844	2902
862.976	3039
863.108	2990
863.24	3447
863.372	2906
863.504	3020
863.636	3009
863.768	3036
863.9	3028
864.032	2948
864.164	2971
864.296	3032
864.428	3093
864.559	3138
864.691	3074
864.823	3089
864.954	3070
865.086	3051
865.217	3028
865.349	2975
865.48	3020
865.612	3020
865.743	3161
865.875	3017
866.006	2922
866.137	3017
866.269	2967
866.4	2944
866.531	2952
866.662	2914
866.793	2929
866.924	2899
867.055	2994
867.186	2948
867.317	2883
867.448	2861
867.579	2883
867.71	2887
867.841	2815
867.972	2922
868.103	2937
868.233	2914
868.364	2899
868.495	2948
868.625	3123
868.756	3199
868.886	3013
869.017	3036
869.147	3165
869.278	3203
869.408	3043
869.539	3051
869.669	3112
869.799	3051
869.929	3154
870.06	3051
870.19	3287
870.32	3302
870.45	3325
870.58	3393
870.71	3447
870.84	3443
870.97	3317
871.1	3268
871.23	3466
871.36	3500
871.489	3389
871.619	3431
871.749	3435
871.879	3428
872.008	3530
872.138	3389
872.267	3306
872.397	3150
872.526	3097
872.656	3070
872.785	3097
872.915	3245
873.044	3321
873.173	3264
873.303	3237
873.432	3245
873.561	3260
873.69	3165
873.819	3180
873.948	3233
874.077	3097
874.206	3055
874.335	3085
874.464	3249
874.593	3332
874.722	3260
874.851	3370
874.979	3386
875.108	3287
875.237	3233
875.365	3188
875.494	3188
875.623	3233
875.751	3135
875.88	3135
876.008	3253
876.136	3275
876.265	3412
876.393	3534
876.521	3401
876.65	3386
876.778	3302
876.906	3313
877.034	3230
877.162	3211
877.29	3199
877.418	3279
877.546	3306
877.674	3275
877.802	3233
877.93	3245
878.058	3146
878.185	3112
878.313	3233
878.441	3241
878.568	3108
878.696	3184
878.824	3294
878.951	3329
879.079	3477
879.206	3644
879.333	3458
879.461	3336
879.588	3382
879.715	3504
879.842	3587
879.97	3409
880.097	3207
880.224	3131
880.351	3211
880.478	3237
880.605	3207
880.732	3192
880.859	3515
880.986	3329
881.112	3332
881.239	3226
881.366	3127
881.493	3062
881.619	3058
881.746	3116
881.872	3127
881.999	3108
882.125	3173
882.252	3264
882.378	3302
882.505	3450
882.631	3317
882.757	3150
882.883	3272
883.01	3218
883.136	3165
883.262	3112
883.388	3108
883.514	3329
883.64	3386
883.766	3329
883.892	3184
884.018	3249
884.143	3405
884.269	3587
884.395	3207
884.52	3176
884.646	3195
884.772	3116
884.897	3093
885.023	3245
885.148	3321
885.274	3428
885.399	3401
885.524	3302
885.65	3287
885.775	3336
885.9	3245
886.025	3481
886.15	3397
886.275	3294
886.4	3260
886.525	3313
886.65	3313
886.775	3291
886.9	3485
887.025	3622
887.149	3443
887.274	3272
887.399	3230
887.523	3222
887.648	3256
887.773	3214
887.897	3401
888.021	3439
888.146	3302
888.27	3428
888.395	3595
888.519	3466
888.643	3458
888.767	3492
888.891	3325
889.015	3283
889.139	3291
889.263	3275
889.387	3386
889.511	3519
889.635	3443
889.759	3291
889.883	3336
890.006	3363
890.13	3511
890.254	3287
890.377	3344
890.501	3195
890.624	3211
890.748	3306
890.871	3214
890.995	3127
891.118	3077
891.241	3188
891.364	3226
891.488	3306
891.611	3176
891.734	3218
891.857	3325
891.98	3233
892.103	3344
892.226	3306
892.349	3264
892.471	3165
892.594	3233
892.717	3291
892.839	3249
892.962	3294
893.085	3382
893.207	3317
893.33	3138
893.452	3195
893.575	3374
893.697	3256
893.819	3466
893.941	3523
894.064	3454
894.186	3294
894.308	3268
894.43	3435
894.552	3557
894.674	3454
894.796	3233
894.918	3313
895.04	3272
895.161	3435
895.283	3397
895.405	3363
895.526	3382
895.648	3447
895.769	3416
895.891	3477
896.012	3519
896.134	3496
896.255	3450
896.376	3397
896.498	3359
896.619	3454
896.74	3367
896.861	3393
896.982	3690
897.103	3861
897.224	3549
897.345	3500
897.466	3481
897.587	3507
897.708	3633
897.828	3561
897.949	3443
898.07	3321
898.19	3420
898.311	3625
898.431	3462
898.552	3526
898.672	3633
898.792	3557
898.913	3542
899.033	3428
899.153	3332
899.273	3211
899.393	3283
899.513	3291
899.633	3317
899.753	3344
899.873	3340
899.993	3416
900.113	3359
900.232	3409
900.352	3348
900.472	3272
900.591	3222
900.711	3317
900.83	3294
900.95	3431
901.069	3466
901.189	3363
901.308	3131
901.427	3131
901.546	3211
901.665	3287
901.784	3344
901.904	3226
902.023	3188
902.141	2994
902.26	3013
902.379	3161
902.498	3089
902.617	3074
902.735	3195
902.854	3253
902.973	3207
903.091	3062
903.21	3089
903.328	3150
903.446	3104
903.565	3108
903.683	3176
903.801	3093
903.919	3218
904.038	3291
904.156	3119
904.274	3287
904.392	3268
904.51	3294
904.627	3329
904.745	3447
904.863	3530
904.981	3241
905.098	3146
905.216	3188
905.334	3279
905.451	3310
905.569	3306
905.686	3420
905.803	3458
905.921	3283
906.038	3439
906.155	3386
906.272	3241
906.389	3382
906.506	3230
906.623	3230
906.74	3275
906.857	3214
906.974	3256
907.091	3412
907.208	3580
907.324	3488
907.441	3370
907.557	3233
907.674	3245
907.79	3233
907.907	3283
908.023	3363
908.139	3374
908.256	3325
908.372	3367
908.488	3370
908.604	3268
908.72	3260
908.836	3287
908.952	3275
909.068	3325
909.184	3439
909.3	3416
909.415	3511
909.531	3515
909.647	3264
909.762	3310
909.878	3294
909.993	3351
910.108	3313
910.224	3348
910.339	3447
910.454	3359
910.57	3325
910.685	3211
910.8	3530
910.915	3542
911.03	3462
911.145	3256
911.259	3264
911.374	3310
911.489	3256
911.604	3192
911.718	3100
911.833	3127
911.947	3013
912.062	3005
912.176	3173
912.291	3184
912.405	3222
912.519	3431
912.633	3443
912.748	3306
912.862	3287
912.976	3150
913.09	3081
913.204	3142
913.318	3245
913.431	3363
913.545	3317
913.659	3435
913.772	3332
913.886	3192
914	3226
914.113	3340
914.226	3450
914.34	3351
914.453	3195
914.566	3389
914.68	3310
914.793	3325
914.906	3150
915.019	3112
915.132	3066
915.245	3150
915.358	3218
915.47	3237
915.583	3249
915.696	3268
915.809	3405
915.921	3424
916.034	3199
916.146	3264
916.259	3188
916.371	3393
916.483	3344
916.595	3256
916.708	3355
916.82	3359
916.932	3340
917.044	3332
917.156	3302
917.268	3245
917.38	3253
917.491	3325
917.603	3382
917.715	3431
917.826	3477
917.938	3363
918.049	3275
918.161	3405
918.272	3557
918.384	3618
918.495	3492
918.606	3329
918.717	3260
918.828	3424
918.939	3393
919.05	3291
919.161	3393
919.272	3192
919.383	3294
919.494	3492
919.604	3694
919.715	3477
919.826	3359
919.936	3454
920.047	3568
920.157	3564
920.267	3747
920.378	3587
920.488	3549
920.598	3770
920.708	3953
920.818	3835
920.928	3819
921.038	4029
921.148	4010
921.258	3713
921.368	3610
921.477	3572
921.587	3526
921.697	3462
921.806	3610
921.916	3561
922.025	3348
922.134	3378
922.244	3310
922.353	3397
922.462	3272
922.571	3260
922.68	3127
922.789	3081
922.898	3104
923.007	3100
923.116	3249
923.224	3176
923.333	3176
923.442	3104
923.55	3089
923.659	3119
923.767	3279
923.876	3097
923.984	3233
924.092	3070
924.201	3199
924.309	3230
924.417	3230
924.525	3195
924.633	3230
924.741	3994
924.849	3070
924.956	3264
925.064	3077
925.172	3020
925.279	3127
925.387	3199
925.494	3211
925.602	3344
925.709	3332
925.816	3176
925.924	3264
926.031	3386
926.138	3298
926.245	3367
926.352	3241
926.459	3401
926.566	3477
926.673	3329
926.779	3218
926.886	3214
926.993	3138
927.099	3085
927.206	3127
927.312	3100
927.419	3241
927.525	3211
927.631	3256
927.737	3138
927.843	3131
927.95	3036
928.056	3123
928.162	3180
928.267	3275
928.373	3880
928.479	3294
928.585	3058
928.69	3207
928.796	3272
928.901	3184
929.007	3039
929.112	3203
929.218	3203
929.323	3161
929.428	3146
929.533	3317
929.638	3077
929.743	3180
929.848	3222
929.953	3203
930.058	3119
930.163	2994
930.267	3058
930.372	3195
930.477	3066
930.581	3310
930.685	3169
930.79	3070
930.894	3097
930.998	3112
931.103	3264
931.207	2933
931.311	2956
931.415	2933
931.519	2788
931.623	2781
