Data from test_V78500241_2014.txt Node
Date: Fri Mar 25 16:29:09 CST 2022
User: usil
Spectrometer: V785-0024
Trigger mode: 0
Integration Time (sec): 4.000000E-1
Scans to average: 1
Nonlinearity correction enabled: false
Boxcar width: 0
Storing dark spectrum: false
XAxis mode: Wavelengths
Number of Pixels in Spectrum: 1024
>>>>>Begin Spectral Data<<<<<
801.071	2956
801.214	2918
801.356	2857
801.499	2876
801.641	2880
801.783	2933
801.926	3058
802.068	2975
802.211	2979
802.353	3024
802.496	2967
802.638	3017
802.78	3055
802.923	3074
803.065	3001
803.208	2861
803.35	2929
803.492	2956
803.635	2925
803.777	2716
803.919	2868
804.061	3207
804.204	2979
804.346	2887
804.488	2815
804.63	2952
804.773	2857
804.915	2883
805.057	3100
805.199	2941
805.341	2990
805.483	3036
805.626	2986
805.768	2952
805.91	3032
806.052	3119
806.194	3009
806.336	3237
806.478	3005
806.62	2963
806.762	2952
806.904	2994
807.046	3180
807.188	2998
807.33	2887
807.472	2937
807.614	2861
807.756	2960
807.898	2925
808.04	2872
808.182	2960
808.324	2963
808.465	2868
808.607	2864
808.749	2785
808.891	2845
809.033	2967
809.174	2979
809.316	2910
809.458	2876
809.6	2773
809.741	2735
809.883	2766
810.025	2849
810.166	2838
810.308	2872
810.45	2838
810.591	2807
810.733	2777
810.875	2868
811.016	2762
811.158	2754
811.299	2792
811.441	2887
811.582	2876
811.724	2819
811.865	2811
812.007	2891
812.148	2842
812.29	2845
812.431	2891
812.573	2918
812.714	2902
812.855	3024
812.997	3085
813.138	3131
813.279	3009
813.421	2941
813.562	2956
813.703	2895
813.845	2876
813.986	2766
814.127	2754
814.268	2773
814.41	2853
814.551	2804
814.692	2861
814.833	2823
814.974	2899
815.115	2906
815.256	2815
815.397	2792
815.539	2826
815.68	2766
815.821	2766
815.962	2918
816.103	2902
816.244	2880
816.385	2883
816.526	2952
816.666	2887
816.807	2754
816.948	2857
817.089	2895
817.23	2823
817.371	2750
817.512	2766
817.653	2849
817.793	2834
817.934	2887
818.075	2960
818.216	2944
818.356	3043
818.497	2891
818.638	2746
818.778	2823
818.919	2819
819.06	2743
819.2	2861
819.341	2811
819.481	2807
819.622	2933
819.762	3138
819.903	3051
820.043	2937
820.184	2872
820.324	2872
820.465	3001
820.605	2975
820.746	3009
820.886	2925
821.026	3085
821.167	3142
821.307	3237
821.447	3211
821.588	3188
821.728	3203
821.868	3192
822.008	3093
822.149	3169
822.289	3173
822.429	3074
822.569	3093
822.709	3157
822.849	3051
822.99	3051
823.13	3184
823.27	3207
823.41	3093
823.55	3142
823.69	3146
823.83	3184
823.97	3112
824.11	3028
824.25	2979
824.389	3062
824.529	3085
824.669	3051
824.809	3188
824.949	3199
825.089	3203
825.228	3184
825.368	3058
825.508	2922
825.648	2960
825.787	3013
825.927	2994
826.067	2979
826.206	2956
826.346	3055
826.485	3081
826.625	3100
826.765	3275
826.904	3211
827.044	2982
827.183	2937
827.323	2872
827.462	2990
827.601	2891
827.741	2902
827.88	2952
828.02	2826
828.159	2948
828.298	3036
828.437	3119
828.577	3020
828.716	3230
828.855	3062
828.994	2872
829.134	2872
829.273	2914
829.412	2872
829.551	2883
829.69	2902
829.829	2994
829.968	3077
830.107	3001
830.246	3013
830.385	2922
830.524	2842
830.663	2796
830.802	2731
830.941	2651
831.08	2667
831.219	2762
831.357	2724
831.496	2944
831.635	2731
831.774	2594
831.913	2636
832.051	2552
832.19	2552
832.329	2682
832.467	2514
832.606	2457
832.744	2579
832.883	2602
833.022	2602
833.16	2644
833.299	2667
833.437	2640
833.576	2697
833.714	2705
833.852	2727
833.991	2754
834.129	2804
834.267	2811
834.406	2758
834.544	2864
834.682	2872
834.821	2861
834.959	3028
835.097	2883
835.235	3017
835.373	2979
835.511	3017
835.65	2944
835.788	2937
835.926	2861
836.064	2788
836.202	2826
836.34	3077
836.478	3127
836.615	3058
836.753	3116
836.891	3241
837.029	3188
837.167	3127
837.305	3051
837.443	3017
837.58	2967
837.718	3108
837.856	3051
837.993	3047
838.131	3112
838.269	3108
838.406	3093
838.544	3077
838.681	2918
838.819	2918
838.956	2796
839.094	2785
839.231	2864
839.369	3005
839.506	3317
839.643	3195
839.781	3005
839.918	2982
840.055	3017
840.193	2994
840.33	3047
840.467	3070
840.604	3135
840.742	3378
840.879	3032
841.016	3028
841.153	3062
841.29	3317
841.427	3245
841.564	3298
841.701	3279
841.838	3199
841.975	3154
842.112	3214
842.249	3108
842.385	3024
842.522	3230
842.659	3058
842.796	3077
842.933	3119
843.069	3032
843.206	3036
843.343	3180
843.479	3112
843.616	3085
843.752	2895
843.889	2845
844.025	3074
844.162	2857
844.298	3077
844.435	2956
844.571	2895
844.708	3062
844.844	3161
844.98	3207
845.117	3188
845.253	3043
845.389	2960
845.525	3112
845.661	3100
845.798	3020
845.934	3119
846.07	3043
846.206	3264
846.342	3264
846.478	3249
846.614	3081
846.75	3058
846.886	3020
847.022	3237
847.158	3123
847.294	3176
847.429	3256
847.565	3214
847.701	3473
847.837	3081
847.972	2990
848.108	3176
848.244	3116
848.379	2986
848.515	2982
848.65	2914
848.786	2952
848.921	2986
849.057	3100
849.192	3112
849.328	3055
849.463	3108
849.598	3062
849.734	2994
849.869	2990
850.004	2918
850.14	2944
850.275	2918
850.41	2830
850.545	2891
850.68	2910
850.815	2937
850.95	2937
851.085	3211
851.22	3077
851.355	3047
851.49	2956
851.625	3013
851.76	3032
851.895	2941
852.03	2925
852.165	3009
852.299	3089
852.434	3180
852.569	3157
852.703	3184
852.838	3226
852.973	3325
853.107	3317
853.242	3161
853.376	3077
853.511	2960
853.645	3081
853.78	3188
853.914	3104
854.048	3062
854.183	3070
854.317	3119
854.451	3275
854.585	3112
854.72	3112
854.854	3256
854.988	3028
855.122	3070
855.256	2979
855.39	3085
855.524	3260
855.658	3180
855.792	3093
855.926	3169
856.06	3222
856.194	3203
856.327	3142
856.461	3085
856.595	3066
856.729	3062
856.862	3161
856.996	3180
857.13	3165
857.263	3237
857.397	3287
857.53	3097
857.664	3150
857.797	3241
857.931	3237
858.064	3176
858.197	3195
858.331	3127
858.464	3070
858.597	3051
858.731	3127
858.864	3070
858.997	3066
859.13	3135
859.263	3184
859.396	3173
859.529	3043
859.662	3093
859.795	3001
859.928	3123
860.061	3222
860.194	3268
860.327	3119
860.46	3112
860.592	3233
860.725	3233
860.858	3237
860.99	3108
861.123	3001
861.256	3070
861.388	3138
861.521	3819
861.653	3039
861.786	2963
861.918	2994
862.05	3043
862.183	3089
862.315	3161
862.447	3192
862.58	3074
862.712	2944
862.844	2891
862.976	3001
863.108	2979
863.24	3317
863.372	2891
863.504	2944
863.636	2910
863.768	3028
863.9	2944
864.032	2891
864.164	2933
864.296	3024
864.428	3085
864.559	3127
864.691	3070
864.823	3036
864.954	2960
865.086	3005
865.217	2967
865.349	2960
865.48	2975
865.612	3024
865.743	3112
865.875	2967
866.006	2918
866.137	2986
866.269	2922
866.4	2956
866.531	2941
866.662	2922
866.793	2872
866.924	2910
867.055	2963
867.186	2918
867.317	2887
867.448	2834
867.579	2864
867.71	2819
867.841	2815
867.972	2876
868.103	2876
868.233	2876
868.364	2845
868.495	2853
868.625	3055
868.756	3165
868.886	2990
869.017	2982
869.147	3157
869.278	3131
869.408	3036
869.539	3055
869.669	3093
869.799	3009
869.929	3104
870.06	3131
870.19	3313
870.32	3268
870.45	3332
870.58	3321
870.71	3428
870.84	3469
870.97	3249
871.1	3237
871.23	3481
871.36	3428
871.489	3336
871.619	3389
871.749	3409
871.879	3454
872.008	3488
872.138	3389
872.267	3268
872.397	3138
872.526	3093
872.656	3020
872.785	3017
872.915	3241
873.044	3317
873.173	3180
873.303	3245
873.432	3260
873.561	3218
873.69	3161
873.819	3138
873.948	3176
874.077	3077
874.206	3009
874.335	3097
874.464	3214
874.593	3310
874.722	3233
874.851	3389
874.979	3321
875.108	3298
875.237	3195
875.365	3138
875.494	3161
875.623	3230
875.751	3093
875.88	3081
876.008	3195
876.136	3230
876.265	3389
876.393	3477
876.521	3412
876.65	3412
876.778	3291
876.906	3226
877.034	3203
877.162	3203
877.29	3192
877.418	3230
877.546	3173
877.674	3195
877.802	3256
877.93	3237
878.058	3100
878.185	3074
878.313	3207
878.441	3218
878.568	3047
878.696	3108
878.824	3218
878.951	3302
879.079	3454
879.206	3622
879.333	3409
879.461	3287
879.588	3321
879.715	3488
879.842	3572
879.97	3351
880.097	3180
880.224	3112
880.351	3150
880.478	3222
880.605	3207
880.732	3173
880.859	3458
880.986	3329
881.112	3279
881.239	3184
881.366	3051
881.493	3058
881.619	3013
881.746	3058
881.872	3074
881.999	3081
882.125	3131
882.252	3253
882.378	3256
882.505	3397
882.631	3260
882.757	3138
882.883	3233
883.01	3188
883.136	3169
883.262	3108
883.388	3116
883.514	3283
883.64	3351
883.766	3310
883.892	3154
884.018	3176
884.143	3351
884.269	3561
884.395	3192
884.52	3188
884.646	3161
884.772	3108
884.897	3100
885.023	3214
885.148	3321
885.274	3397
885.399	3367
885.524	3233
885.65	3226
885.775	3294
885.9	3249
886.025	3405
886.15	3393
886.275	3291
886.4	3241
886.525	3317
886.65	3283
886.775	3264
886.9	3473
887.025	3644
887.149	3401
887.274	3241
887.399	3218
887.523	3195
887.648	3165
887.773	3180
887.897	3351
888.021	3386
888.146	3283
888.27	3424
888.395	3553
888.519	3416
888.643	3466
888.767	3416
888.891	3283
889.015	3241
889.139	3294
889.263	3275
889.387	3355
889.511	3473
889.635	3405
889.759	3260
889.883	3283
890.006	3351
890.13	3481
890.254	3279
890.377	3329
890.501	3241
890.624	3222
890.748	3233
890.871	3176
890.995	3119
891.118	3032
891.241	3199
891.364	3195
891.488	3275
891.611	3165
891.734	3184
891.857	3291
891.98	3199
892.103	3344
892.226	3230
892.349	3195
892.471	3077
892.594	3176
892.717	3253
892.839	3253
892.962	3268
893.085	3321
893.207	3268
893.33	3123
893.452	3199
893.575	3310
893.697	3233
893.819	3420
893.941	3511
894.064	3435
894.186	3275
894.308	3256
894.43	3397
894.552	3504
894.674	3435
894.796	3237
894.918	3283
895.04	3287
895.161	3439
895.283	3378
895.405	3291
895.526	3340
895.648	3401
895.769	3389
895.891	3462
896.012	3450
896.134	3435
896.255	3374
896.376	3348
896.498	3321
896.619	3424
896.74	3386
896.861	3401
896.982	3652
897.103	3850
897.224	3614
897.345	3488
897.466	3409
897.587	3519
897.708	3644
897.828	3545
897.949	3439
898.07	3321
898.19	3431
898.311	3576
898.431	3443
898.552	3534
898.672	3584
898.792	3557
898.913	3545
899.033	3412
899.153	3287
899.273	3237
899.393	3287
899.513	3313
899.633	3325
899.753	3355
899.873	3332
899.993	3435
900.113	3340
900.232	3409
900.352	3348
900.472	3279
900.591	3218
900.711	3298
900.83	3249
900.95	3412
901.069	3511
901.189	3351
901.308	3180
901.427	3131
901.546	3211
901.665	3329
901.784	3363
901.904	3237
902.023	3184
902.141	3089
902.26	3017
902.379	3131
902.498	3119
902.617	3119
902.735	3253
902.854	3298
902.973	3245
903.091	3097
903.21	3104
903.328	3180
903.446	3173
903.565	3146
903.683	3256
903.801	3211
903.919	3283
904.038	3317
904.156	3237
904.274	3321
904.392	3291
904.51	3317
904.627	3340
904.745	3504
904.863	3511
904.981	3317
905.098	3203
905.216	3283
905.334	3355
905.451	3325
905.569	3351
905.686	3504
905.803	3458
905.921	3325
906.038	3435
906.155	3416
906.272	3336
906.389	3332
906.506	3275
906.623	3283
906.74	3294
906.857	3214
906.974	3272
907.091	3507
907.208	3587
907.324	3515
907.441	3405
907.557	3291
907.674	3272
907.79	3214
907.907	3332
908.023	3397
908.139	3447
908.256	3363
908.372	3397
908.488	3367
908.604	3287
908.72	3317
908.836	3340
908.952	3321
909.068	3359
909.184	3492
909.3	3443
909.415	3553
909.531	3500
909.647	3317
909.762	3340
909.878	3264
909.993	3405
910.108	3363
910.224	3382
910.339	3485
910.454	3378
910.57	3340
910.685	3294
910.8	3652
910.915	3561
911.03	3462
911.145	3279
911.259	3313
911.374	3336
911.489	3279
911.604	3249
911.718	3150
911.833	3161
911.947	3043
912.062	3051
912.176	3192
912.291	3226
912.405	3233
912.519	3447
912.633	3488
912.748	3386
912.862	3310
912.976	3207
913.09	3104
913.204	3157
913.318	3241
913.431	3367
913.545	3393
913.659	3443
913.772	3367
913.886	3279
914	3260
914.113	3382
914.226	3401
914.34	3412
914.453	3260
914.566	3412
914.68	3332
914.793	3310
914.906	3195
915.019	3173
915.132	3100
915.245	3214
915.358	3226
915.47	3275
915.583	3256
915.696	3283
915.809	3458
915.921	3466
916.034	3291
916.146	3268
916.259	3188
916.371	3416
916.483	3412
916.595	3313
916.708	3363
916.82	3367
916.932	3344
917.044	3374
917.156	3336
917.268	3275
917.38	3310
917.491	3348
917.603	3389
917.715	3462
917.826	3492
917.938	3420
918.049	3302
918.161	3488
918.272	3606
918.384	3599
918.495	3519
918.606	3344
918.717	3294
918.828	3401
918.939	3431
919.05	3336
919.161	3420
919.272	3214
919.383	3332
919.494	3485
919.604	3705
919.715	3511
919.826	3458
919.936	3496
920.047	3625
920.157	3606
920.267	3793
920.378	3644
920.488	3591
920.598	3812
920.708	4013
920.818	3838
920.928	3873
921.038	4048
921.148	4025
921.258	3728
921.368	3652
921.477	3603
921.587	3576
921.697	3454
921.806	3667
921.916	3553
922.025	3389
922.134	3374
922.244	3348
922.353	3454
922.462	3275
922.571	3226
922.68	3127
922.789	3119
922.898	3176
923.007	3131
923.116	3233
923.224	3233
923.333	3203
923.442	3127
923.55	3119
923.659	3199
923.767	3226
923.876	3165
923.984	3264
924.092	3108
924.201	3264
924.309	3230
924.417	3313
924.525	3218
924.633	3294
924.741	4223
924.849	3062
924.956	3306
925.064	3127
925.172	3043
925.279	3119
925.387	3226
925.494	3233
925.602	3348
925.709	3367
925.816	3249
925.924	3313
926.031	3370
926.138	3336
926.245	3351
926.352	3291
926.459	3469
926.566	3488
926.673	3332
926.779	3310
926.886	3283
926.993	3161
927.099	3169
927.206	3192
927.312	3154
927.419	3260
927.525	3256
927.631	3306
927.737	3161
927.843	3154
927.95	3051
928.056	3180
928.162	3176
928.267	3298
928.373	3884
928.479	3355
928.585	3100
928.69	3218
928.796	3275
928.901	3161
929.007	3051
929.112	3214
929.218	3192
929.323	3165
929.428	3161
929.533	3321
929.638	3131
929.743	3184
929.848	3313
929.953	3245
930.058	3180
930.163	3036
930.267	3070
930.372	3230
930.477	3051
930.581	3336
930.685	3154
930.79	3089
930.894	3154
930.998	3119
931.103	3294
931.207	2994
931.311	2990
931.415	2963
931.519	2766
931.623	2830
