Data from test_V78500241_934.txt Node
Date: Fri Mar 25 16:21:40 CST 2022
User: usil
Spectrometer: V785-0024
Trigger mode: 0
Integration Time (sec): 4.000000E-1
Scans to average: 1
Nonlinearity correction enabled: false
Boxcar width: 0
Storing dark spectrum: false
XAxis mode: Wavelengths
Number of Pixels in Spectrum: 1024
>>>>>Begin Spectral Data<<<<<
801.071	2929
801.214	2944
801.356	2922
801.499	2910
801.641	2906
801.783	2929
801.926	3051
802.068	3005
802.211	3028
802.353	3055
802.496	2929
802.638	3020
802.78	3005
802.923	3081
803.065	2982
803.208	2925
803.35	2933
803.492	2929
803.635	2948
803.777	2785
803.919	2880
804.061	3214
804.204	2971
804.346	2887
804.488	2853
804.63	3001
804.773	2864
804.915	2887
805.057	3039
805.199	2925
805.341	2956
805.483	3081
805.626	3020
805.768	2952
805.91	3104
806.052	3074
806.194	3017
806.336	3199
806.478	3017
806.62	2933
806.762	2967
806.904	3036
807.046	3135
807.188	2979
807.33	2929
807.472	2982
807.614	2902
807.756	2975
807.898	2872
808.04	2925
808.182	2941
808.324	2975
808.465	2853
808.607	2857
808.749	2785
808.891	2845
809.033	2956
809.174	2986
809.316	2861
809.458	2902
809.6	2766
809.741	2762
809.883	2807
810.025	2849
810.166	2857
810.308	2834
810.45	2842
810.591	2781
810.733	2731
810.875	2849
811.016	2781
811.158	2739
811.299	2811
811.441	2914
811.582	2887
811.724	2838
811.865	2781
812.007	2906
812.148	2868
812.29	2845
812.431	2918
812.573	2922
812.714	2933
812.855	3020
812.997	3036
813.138	3127
813.279	3005
813.421	2967
813.562	2933
813.703	2853
813.845	2861
813.986	2739
814.127	2758
814.268	2800
814.41	2815
814.551	2804
814.692	2887
814.833	2830
814.974	2887
815.115	2944
815.256	2807
815.397	2823
815.539	2815
815.68	2781
815.821	2830
815.962	2906
816.103	2963
816.244	2861
816.385	2845
816.526	2925
816.666	2929
816.807	2762
816.948	2902
817.089	2906
817.23	2857
817.371	2788
817.512	2758
817.653	2838
817.793	2819
817.934	2902
818.075	2963
818.216	2990
818.356	3020
818.497	2891
818.638	2766
818.778	2864
818.919	2773
819.06	2724
819.2	2883
819.341	2785
819.481	2823
819.622	2937
819.762	3135
819.903	3043
820.043	2914
820.184	2937
820.324	2910
820.465	3024
820.605	3024
820.746	3036
820.886	2948
821.026	3119
821.167	3195
821.307	3264
821.447	3291
821.588	3245
821.728	3226
821.868	3192
822.008	3085
822.149	3249
822.289	3233
822.429	3077
822.569	3077
822.709	3192
822.849	3051
822.99	3135
823.13	3199
823.27	3218
823.41	3138
823.55	3207
823.69	3169
823.83	3226
823.97	3112
824.11	3047
824.25	3036
824.389	3123
824.529	3169
824.669	3127
824.809	3226
824.949	3233
825.089	3233
825.228	3184
825.368	3070
825.508	3009
825.648	3013
825.787	3051
825.927	3055
826.067	3024
826.206	3001
826.346	3066
826.485	3089
826.625	3169
826.765	3310
826.904	3214
827.044	3051
827.183	2986
827.323	2941
827.462	3001
827.601	2948
827.741	2982
827.88	2990
828.02	2899
828.159	3005
828.298	3047
828.437	3165
828.577	3108
828.716	3310
828.855	3123
828.994	2956
829.134	2929
829.273	2952
829.412	2876
829.551	2895
829.69	2925
829.829	3047
829.968	3180
830.107	3043
830.246	3062
830.385	2967
830.524	2925
830.663	2887
830.802	2750
830.941	2708
831.08	2705
831.219	2800
831.357	2773
831.496	3001
831.635	2766
831.774	2686
831.913	2682
832.051	2583
832.19	2598
832.329	2724
832.467	2594
832.606	2503
832.744	2594
832.883	2583
833.022	2610
833.16	2712
833.299	2705
833.437	2724
833.576	2727
833.714	2781
833.852	2727
833.991	2815
834.129	2864
834.267	2853
834.406	2811
834.544	2910
834.682	2906
834.821	2887
834.959	3104
835.097	2918
835.235	3142
835.373	3062
835.511	3047
835.65	2971
835.788	3036
835.926	2861
836.064	2849
836.202	2880
836.34	3093
836.478	3188
836.615	3093
836.753	3195
836.891	3264
837.029	3195
837.167	3131
837.305	3112
837.443	3089
837.58	2990
837.718	3180
837.856	3089
837.993	3036
838.131	3199
838.269	3112
838.406	3135
838.544	3097
838.681	2971
838.819	2963
838.956	2857
839.094	2857
839.231	2975
839.369	3062
839.506	3401
839.643	3222
839.781	3070
839.918	2994
840.055	3070
840.193	3089
840.33	3097
840.467	3138
840.604	3150
840.742	3412
840.879	3074
841.016	3104
841.153	3146
841.29	3329
841.427	3306
841.564	3325
841.701	3355
841.838	3237
841.975	3211
842.112	3241
842.249	3100
842.385	3077
842.522	3291
842.659	3123
842.796	3093
842.933	3138
843.069	3104
843.206	3077
843.343	3180
843.479	3119
843.616	3165
843.752	2895
843.889	2883
844.025	3119
844.162	2891
844.298	3097
844.435	2971
844.571	2933
844.708	3112
844.844	3233
844.98	3245
845.117	3199
845.253	3077
845.389	3024
845.525	3119
845.661	3135
845.798	3055
845.934	3161
846.07	3062
846.206	3211
846.342	3313
846.478	3203
846.614	3108
846.75	3058
846.886	3039
847.022	3272
847.158	3150
847.294	3226
847.429	3260
847.565	3218
847.701	3507
847.837	3070
847.972	3043
848.108	3188
848.244	3195
848.379	3020
848.515	2971
848.65	2941
848.786	2975
848.921	3009
849.057	3119
849.192	3157
849.328	3150
849.463	3112
849.598	3085
849.734	3074
849.869	2998
850.004	2929
850.14	3001
850.275	2956
850.41	2861
850.545	2941
850.68	2952
850.815	2998
850.95	2956
851.085	3230
851.22	3131
851.355	3051
851.49	2990
851.625	2998
851.76	3070
851.895	2952
852.03	2937
852.165	3097
852.299	3112
852.434	3241
852.569	3161
852.703	3203
852.838	3291
852.973	3389
853.107	3389
853.242	3127
853.376	3127
853.511	2986
853.645	3116
853.78	3279
853.914	3150
854.048	3135
854.183	3112
854.317	3154
854.451	3302
854.585	3154
854.72	3108
854.854	3230
854.988	3047
855.122	3154
855.256	3039
855.39	3123
855.524	3260
855.658	3188
855.792	3157
855.926	3173
856.06	3237
856.194	3279
856.327	3199
856.461	3127
856.595	3112
856.729	3142
856.862	3249
856.996	3154
857.13	3184
857.263	3249
857.397	3317
857.53	3135
857.664	3226
857.797	3203
857.931	3294
858.064	3135
858.197	3249
858.331	3135
858.464	3127
858.597	3058
858.731	3146
858.864	3150
858.997	3138
859.13	3211
859.263	3165
859.396	3203
859.529	3097
859.662	3089
859.795	3066
859.928	3218
860.061	3321
860.194	3317
860.327	3135
860.46	3165
860.592	3313
860.725	3253
860.858	3291
860.99	3116
861.123	3081
861.256	3097
861.388	3154
861.521	3842
861.653	3032
861.786	3009
861.918	2994
862.05	3093
862.183	3123
862.315	3192
862.447	3241
862.58	3104
862.712	2986
862.844	2906
862.976	3051
863.108	3009
863.24	3435
863.372	2910
863.504	2998
863.636	2960
863.768	3066
863.9	2971
864.032	2918
864.164	2956
864.296	3055
864.428	3127
864.559	3116
864.691	3112
864.823	3081
864.954	3093
865.086	3074
865.217	3013
865.349	2960
865.48	2994
865.612	3062
865.743	3173
865.875	3024
866.006	2948
866.137	2963
866.269	2971
866.4	2994
866.531	2956
866.662	2902
866.793	2880
866.924	2922
867.055	2994
867.186	2918
867.317	2883
867.448	2872
867.579	2868
867.71	2845
867.841	2807
867.972	2925
868.103	2933
868.233	2937
868.364	2918
868.495	2941
868.625	3077
868.756	3165
868.886	2994
869.017	3058
869.147	3138
869.278	3176
869.408	3085
869.539	3020
869.669	3104
869.799	3062
869.929	3184
870.06	3138
870.19	3336
870.32	3313
870.45	3306
870.58	3397
870.71	3500
870.84	3477
870.97	3310
871.1	3241
871.23	3477
871.36	3473
871.489	3344
871.619	3401
871.749	3389
871.879	3439
872.008	3523
872.138	3397
872.267	3291
872.397	3165
872.526	3089
872.656	3047
872.785	3100
872.915	3226
873.044	3313
873.173	3241
873.303	3279
873.432	3256
873.561	3241
873.69	3157
873.819	3157
873.948	3192
874.077	3131
874.206	3024
874.335	3123
874.464	3226
874.593	3374
874.722	3241
874.851	3401
874.979	3363
875.108	3329
875.237	3188
875.365	3165
875.494	3157
875.623	3249
875.751	3093
875.88	3100
876.008	3211
876.136	3256
876.265	3378
876.393	3496
876.521	3431
876.65	3420
876.778	3370
876.906	3268
877.034	3203
877.162	3287
877.29	3199
877.418	3291
877.546	3306
877.674	3272
877.802	3237
877.93	3249
878.058	3169
878.185	3077
878.313	3192
878.441	3211
878.568	3070
878.696	3176
878.824	3298
878.951	3294
879.079	3412
879.206	3637
879.333	3466
879.461	3325
879.588	3378
879.715	3496
879.842	3610
879.97	3401
880.097	3138
880.224	3123
880.351	3188
880.478	3188
880.605	3226
880.732	3192
880.859	3462
880.986	3260
881.112	3355
881.239	3226
881.366	3108
881.493	3032
881.619	3005
881.746	3058
881.872	3097
881.999	3089
882.125	3169
882.252	3268
882.378	3287
882.505	3416
882.631	3294
882.757	3169
882.883	3214
883.01	3207
883.136	3154
883.262	3104
883.388	3138
883.514	3302
883.64	3393
883.766	3317
883.892	3176
884.018	3256
884.143	3431
884.269	3526
884.395	3211
884.52	3184
884.646	3169
884.772	3108
884.897	3116
885.023	3233
885.148	3336
885.274	3450
885.399	3374
885.524	3241
885.65	3260
885.775	3336
885.9	3283
886.025	3420
886.15	3340
886.275	3351
886.4	3294
886.525	3275
886.65	3249
886.775	3313
886.9	3523
887.025	3652
887.149	3409
887.274	3275
887.399	3195
887.523	3211
887.648	3154
887.773	3233
887.897	3359
888.021	3389
888.146	3306
888.27	3443
888.395	3557
888.519	3443
888.643	3458
888.767	3454
888.891	3367
889.015	3241
889.139	3310
889.263	3268
889.387	3412
889.511	3515
889.635	3412
889.759	3264
889.883	3264
890.006	3416
890.13	3458
890.254	3264
890.377	3348
890.501	3207
890.624	3207
890.748	3340
890.871	3184
890.995	3135
891.118	3116
891.241	3218
891.364	3230
891.488	3355
891.611	3169
891.734	3211
891.857	3298
891.98	3287
892.103	3336
892.226	3268
892.349	3214
892.471	3127
892.594	3272
892.717	3279
892.839	3275
892.962	3329
893.085	3393
893.207	3310
893.33	3214
893.452	3237
893.575	3321
893.697	3298
893.819	3496
893.941	3523
894.064	3477
894.186	3268
894.308	3283
894.43	3431
894.552	3542
894.674	3477
894.796	3241
894.918	3321
895.04	3279
895.161	3439
895.283	3405
895.405	3317
895.526	3397
895.648	3412
895.769	3389
895.891	3458
896.012	3481
896.134	3523
896.255	3447
896.376	3386
896.498	3374
896.619	3412
896.74	3386
896.861	3393
896.982	3690
897.103	3880
897.224	3625
897.345	3534
897.466	3450
897.587	3500
897.708	3686
897.828	3572
897.949	3458
898.07	3306
898.19	3424
898.311	3599
898.431	3424
898.552	3500
898.672	3599
898.792	3622
898.913	3515
899.033	3420
899.153	3275
899.273	3207
899.393	3256
899.513	3336
899.633	3336
899.753	3355
899.873	3313
899.993	3367
900.113	3359
900.232	3420
900.352	3363
900.472	3348
900.591	3230
900.711	3329
900.83	3249
900.95	3439
901.069	3492
901.189	3378
901.308	3161
901.427	3127
901.546	3211
901.665	3279
901.784	3302
901.904	3214
902.023	3131
902.141	3024
902.26	2944
902.379	3135
902.498	3074
902.617	3024
902.735	3192
902.854	3253
902.973	3230
903.091	3077
903.21	3055
903.328	3142
903.446	3119
903.565	3104
903.683	3192
903.801	3169
903.919	3226
904.038	3294
904.156	3154
904.274	3294
904.392	3237
904.51	3287
904.627	3329
904.745	3466
904.863	3500
904.981	3226
905.098	3146
905.216	3249
905.334	3275
905.451	3302
905.569	3321
905.686	3416
905.803	3416
905.921	3279
906.038	3393
906.155	3378
906.272	3287
906.389	3344
906.506	3233
906.623	3249
906.74	3226
906.857	3184
906.974	3249
907.091	3420
907.208	3584
907.324	3462
907.441	3336
907.557	3260
907.674	3214
907.79	3218
907.907	3272
908.023	3378
908.139	3363
908.256	3344
908.372	3386
908.488	3313
908.604	3302
908.72	3237
908.836	3275
908.952	3260
909.068	3329
909.184	3492
909.3	3397
909.415	3507
909.531	3443
909.647	3245
909.762	3317
909.878	3237
909.993	3420
910.108	3382
910.224	3336
910.339	3443
910.454	3351
910.57	3317
910.685	3230
910.8	3587
910.915	3549
911.03	3466
911.145	3260
911.259	3256
911.374	3317
911.489	3214
911.604	3230
911.718	3108
911.833	3123
911.947	3036
912.062	2986
912.176	3192
912.291	3233
912.405	3233
912.519	3401
912.633	3488
912.748	3351
912.862	3272
912.976	3146
913.09	3066
913.204	3138
913.318	3222
913.431	3374
913.545	3355
913.659	3367
913.772	3332
913.886	3218
914	3214
914.113	3382
914.226	3397
914.34	3344
914.453	3218
914.566	3447
914.68	3275
914.793	3317
914.906	3142
915.019	3135
915.132	3081
915.245	3142
915.358	3233
915.47	3226
915.583	3268
915.696	3302
915.809	3412
915.921	3443
916.034	3294
916.146	3241
916.259	3218
916.371	3348
916.483	3332
916.595	3249
916.708	3306
916.82	3313
916.932	3291
917.044	3363
917.156	3374
917.268	3226
917.38	3272
917.491	3275
917.603	3393
917.715	3412
917.826	3447
917.938	3393
918.049	3268
918.161	3374
918.272	3576
918.384	3542
918.495	3473
918.606	3317
918.717	3302
918.828	3370
918.939	3412
919.05	3313
919.161	3348
919.272	3142
919.383	3291
919.494	3504
919.604	3701
919.715	3519
919.826	3416
919.936	3507
920.047	3580
920.157	3519
920.267	3774
920.378	3682
920.488	3553
920.598	3732
920.708	3953
920.818	3835
920.928	3774
921.038	4051
921.148	4013
921.258	3713
921.368	3652
921.477	3614
921.587	3595
921.697	3447
921.806	3622
921.916	3545
922.025	3329
922.134	3370
922.244	3332
922.353	3439
922.462	3264
922.571	3249
922.68	3119
922.789	3089
922.898	3169
923.007	3135
923.116	3222
923.224	3184
923.333	3192
923.442	3047
923.55	3074
923.659	3142
923.767	3195
923.876	3142
923.984	3230
924.092	3108
924.201	3176
924.309	3195
924.417	3279
924.525	3195
924.633	3260
924.741	4219
924.849	3039
924.956	3249
925.064	3081
925.172	3074
925.279	3123
925.387	3176
925.494	3157
925.602	3370
925.709	3355
925.816	3211
925.924	3306
926.031	3424
926.138	3348
926.245	3336
926.352	3275
926.459	3370
926.566	3435
926.673	3302
926.779	3241
926.886	3260
926.993	3157
927.099	3173
927.206	3093
927.312	3131
927.419	3264
927.525	3207
927.631	3226
927.737	3123
927.843	3123
927.95	3039
928.056	3131
928.162	3146
928.267	3218
928.373	3865
928.479	3272
928.585	3074
928.69	3176
928.796	3268
928.901	3131
929.007	3039
929.112	3184
929.218	3184
929.323	3157
929.428	3173
929.533	3317
929.638	3085
929.743	3192
929.848	3272
929.953	3226
930.058	3154
930.163	2986
930.267	3028
930.372	3195
930.477	3058
930.581	3329
930.685	3211
930.79	3070
930.894	3085
930.998	3123
931.103	3313
931.207	2967
931.311	2941
931.415	2948
931.519	2762
931.623	2826
