Data from test_V78500241_1536.txt Node
Date: Fri Mar 25 16:25:50 CST 2022
User: usil
Spectrometer: V785-0024
Trigger mode: 0
Integration Time (sec): 4.000000E-1
Scans to average: 1
Nonlinearity correction enabled: false
Boxcar width: 0
Storing dark spectrum: false
XAxis mode: Wavelengths
Number of Pixels in Spectrum: 1024
>>>>>Begin Spectral Data<<<<<
801.071	2887
801.214	2929
801.356	2876
801.499	2891
801.641	2910
801.783	2941
801.926	3039
802.068	2929
802.211	2986
802.353	3039
802.496	2937
802.638	2971
802.78	3017
802.923	3093
803.065	3017
803.208	2872
803.35	2967
803.492	2967
803.635	2944
803.777	2773
803.919	2880
804.061	3192
804.204	2925
804.346	2868
804.488	2883
804.63	2990
804.773	2899
804.915	2918
805.057	3089
805.199	2956
805.341	2998
805.483	3047
805.626	2994
805.768	2952
805.91	3047
806.052	3108
806.194	3051
806.336	3199
806.478	3013
806.62	2948
806.762	2960
806.904	3024
807.046	3146
807.188	2937
807.33	2902
807.472	3024
807.614	2914
807.756	2960
807.898	2922
808.04	2872
808.182	2956
808.324	2952
808.465	2883
808.607	2891
808.749	2777
808.891	2849
809.033	2990
809.174	2944
809.316	2864
809.458	2887
809.6	2800
809.741	2785
809.883	2781
810.025	2864
810.166	2872
810.308	2872
810.45	2815
810.591	2743
810.733	2735
810.875	2845
811.016	2800
811.158	2769
811.299	2823
811.441	2906
811.582	2868
811.724	2815
811.865	2872
812.007	2906
812.148	2876
812.29	2853
812.431	2883
812.573	2971
812.714	2963
812.855	3024
812.997	3047
813.138	3127
813.279	2975
813.421	2982
813.562	2937
813.703	2918
813.845	2899
813.986	2792
814.127	2762
814.268	2811
814.41	2830
814.551	2788
814.692	2849
814.833	2796
814.974	2910
815.115	2925
815.256	2834
815.397	2815
815.539	2834
815.68	2769
815.821	2819
815.962	2910
816.103	2948
816.244	2868
816.385	2887
816.526	2979
816.666	2922
816.807	2762
816.948	2887
817.089	2887
817.23	2895
817.371	2769
817.512	2785
817.653	2807
817.793	2804
817.934	2868
818.075	2967
818.216	2998
818.356	3009
818.497	2902
818.638	2777
818.778	2842
818.919	2826
819.06	2735
819.2	2902
819.341	2826
819.481	2777
819.622	2925
819.762	3066
819.903	3051
820.043	2906
820.184	2864
820.324	2887
820.465	3036
820.605	2982
820.746	3039
820.886	2960
821.026	3089
821.167	3173
821.307	3253
821.447	3272
821.588	3218
821.728	3195
821.868	3169
822.008	3097
822.149	3176
822.289	3165
822.429	3077
822.569	3062
822.709	3180
822.849	3047
822.99	3020
823.13	3161
823.27	3184
823.41	3097
823.55	3135
823.69	3150
823.83	3146
823.97	3081
824.11	3024
824.25	2986
824.389	3055
824.529	3108
824.669	3005
824.809	3195
824.949	3218
825.089	3199
825.228	3123
825.368	3005
825.508	2975
825.648	2982
825.787	3017
825.927	3020
826.067	2944
826.206	2937
826.346	3028
826.485	3081
826.625	3119
826.765	3253
826.904	3214
827.044	2975
827.183	2902
827.323	2838
827.462	2979
827.601	2895
827.741	2933
827.88	2960
828.02	2834
828.159	2975
828.298	3005
828.437	3085
828.577	2998
828.716	3233
828.855	3089
828.994	2910
829.134	2849
829.273	2918
829.412	2902
829.551	2838
829.69	2880
829.829	2975
829.968	3119
830.107	3017
830.246	3009
830.385	2937
830.524	2914
830.663	2804
830.802	2701
830.941	2644
831.08	2648
831.219	2739
831.357	2735
831.496	2933
831.635	2689
831.774	2625
831.913	2682
832.051	2545
832.19	2556
832.329	2678
832.467	2518
832.606	2499
832.744	2590
832.883	2590
833.022	2579
833.16	2678
833.299	2674
833.437	2689
833.576	2705
833.714	2746
833.852	2708
833.991	2735
834.129	2815
834.267	2807
834.406	2758
834.544	2849
834.682	2834
834.821	2868
834.959	3081
835.097	2887
835.235	3043
835.373	3005
835.511	3024
835.65	2956
835.788	2941
835.926	2826
836.064	2781
836.202	2815
836.34	3131
836.478	3157
836.615	3028
836.753	3157
836.891	3199
837.029	3161
837.167	3085
837.305	3043
837.443	3032
837.58	2948
837.718	3123
837.856	3024
837.993	3039
838.131	3138
838.269	3074
838.406	3093
838.544	3077
838.681	2941
838.819	2925
838.956	2781
839.094	2834
839.231	2895
839.369	3005
839.506	3344
839.643	3207
839.781	2967
839.918	2941
840.055	3062
840.193	3047
840.33	3032
840.467	3085
840.604	3131
840.742	3405
840.879	3020
841.016	2994
841.153	3135
841.29	3313
841.427	3294
841.564	3268
841.701	3329
841.838	3195
841.975	3150
842.112	3203
842.249	3017
842.385	3043
842.522	3268
842.659	3074
842.796	3051
842.933	3104
843.069	3039
843.206	3028
843.343	3138
843.479	3093
843.616	3112
843.752	2925
843.889	2834
844.025	3039
844.162	2899
844.298	3074
844.435	2933
844.571	2910
844.708	3051
844.844	3146
844.98	3214
845.117	3192
845.253	3055
845.389	2975
845.525	3112
845.661	3135
845.798	2994
845.934	3108
846.07	3032
846.206	3207
846.342	3306
846.478	3245
846.614	3100
846.75	3036
846.886	3036
847.022	3253
847.158	3138
847.294	3180
847.429	3230
847.565	3192
847.701	3454
847.837	2990
847.972	2990
848.108	3165
848.244	3161
848.379	2963
848.515	2918
848.65	2922
848.786	2975
848.921	3051
849.057	3089
849.192	3138
849.328	3085
849.463	3100
849.598	3058
849.734	3032
849.869	2937
850.004	2906
850.14	2990
850.275	2883
850.41	2823
850.545	2857
850.68	2929
850.815	2986
850.95	2971
851.085	3199
851.22	3135
851.355	3009
851.49	3005
851.625	2982
851.76	3013
851.895	2975
852.03	2887
852.165	3028
852.299	3131
852.434	3161
852.569	3112
852.703	3207
852.838	3245
852.973	3325
853.107	3340
853.242	3135
853.376	3104
853.511	2994
853.645	3005
853.78	3253
853.914	3135
854.048	3112
854.183	3123
854.317	3157
854.451	3241
854.585	3112
854.72	3081
854.854	3211
854.988	3036
855.122	3055
855.256	2967
855.39	3112
855.524	3207
855.658	3150
855.792	3142
855.926	3176
856.06	3249
856.194	3218
856.327	3157
856.461	3085
856.595	3074
856.729	3089
856.862	3211
856.996	3135
857.13	3214
857.263	3218
857.397	3272
857.53	3131
857.664	3195
857.797	3233
857.931	3226
858.064	3173
858.197	3218
858.331	3157
858.464	3085
858.597	3013
858.731	3104
858.864	3108
858.997	3081
859.13	3116
859.263	3180
859.396	3173
859.529	3085
859.662	3032
859.795	3066
859.928	3142
860.061	3253
860.194	3294
860.327	3116
860.46	3051
860.592	3233
860.725	3218
860.858	3249
860.99	3081
861.123	3047
861.256	3039
861.388	3180
861.521	3873
861.653	3024
861.786	2956
861.918	3001
862.05	3070
862.183	3108
862.315	3138
862.447	3195
862.58	3108
862.712	2986
862.844	2883
862.976	3005
863.108	2998
863.24	3279
863.372	2864
863.504	2944
863.636	2952
863.768	3001
863.9	2971
864.032	2887
864.164	2960
864.296	3013
864.428	3070
864.559	3097
864.691	3081
864.823	3074
864.954	3036
865.086	3055
865.217	2994
865.349	2941
865.48	2986
865.612	3024
865.743	3123
865.875	2952
866.006	2937
866.137	2956
866.269	2910
866.4	2914
866.531	2914
866.662	2872
866.793	2883
866.924	2899
867.055	2971
867.186	2948
867.317	2887
867.448	2830
867.579	2842
867.71	2838
867.841	2838
867.972	2910
868.103	2895
868.233	2891
868.364	2918
868.495	2944
868.625	3077
868.756	3142
868.886	2922
869.017	3005
869.147	3157
869.278	3135
869.408	3043
869.539	3024
869.669	3066
869.799	3062
869.929	3135
870.06	3097
870.19	3336
870.32	3275
870.45	3306
870.58	3363
870.71	3420
870.84	3473
870.97	3287
871.1	3253
871.23	3488
871.36	3477
871.489	3317
871.619	3367
871.749	3397
871.879	3409
872.008	3447
872.138	3348
872.267	3222
872.397	3199
872.526	3093
872.656	2994
872.785	3081
872.915	3218
873.044	3306
873.173	3199
873.303	3241
873.432	3222
873.561	3249
873.69	3135
873.819	3116
873.948	3169
874.077	3085
874.206	3036
874.335	3077
874.464	3192
874.593	3359
874.722	3275
874.851	3420
874.979	3348
875.108	3344
875.237	3180
875.365	3108
875.494	3150
875.623	3268
875.751	3039
875.88	3097
876.008	3180
876.136	3218
876.265	3321
876.393	3526
876.521	3420
876.65	3401
876.778	3329
876.906	3241
877.034	3195
877.162	3176
877.29	3127
877.418	3272
877.546	3275
877.674	3226
877.802	3245
877.93	3233
878.058	3161
878.185	3104
878.313	3192
878.441	3199
878.568	3077
878.696	3116
878.824	3260
878.951	3287
879.079	3454
879.206	3591
879.333	3424
879.461	3298
879.588	3336
879.715	3488
879.842	3606
879.97	3332
880.097	3176
880.224	3123
880.351	3192
880.478	3218
880.605	3195
880.732	3173
880.859	3519
880.986	3283
881.112	3325
881.239	3203
881.366	3070
881.493	3036
881.619	3028
881.746	3081
881.872	3097
881.999	3127
882.125	3112
882.252	3226
882.378	3275
882.505	3420
882.631	3287
882.757	3142
882.883	3199
883.01	3203
883.136	3169
883.262	3070
883.388	3119
883.514	3317
883.64	3359
883.766	3275
883.892	3165
884.018	3256
884.143	3409
884.269	3526
884.395	3157
884.52	3138
884.646	3123
884.772	3146
884.897	3100
885.023	3188
885.148	3329
885.274	3386
885.399	3351
885.524	3275
885.65	3249
885.775	3283
885.9	3291
886.025	3450
886.15	3336
886.275	3302
886.4	3241
886.525	3291
886.65	3279
886.775	3268
886.9	3492
887.025	3625
887.149	3386
887.274	3283
887.399	3188
887.523	3165
887.648	3192
887.773	3253
887.897	3405
888.021	3401
888.146	3294
888.27	3439
888.395	3519
888.519	3439
888.643	3462
888.767	3458
888.891	3287
889.015	3249
889.139	3306
889.263	3233
889.387	3363
889.511	3538
889.635	3450
889.759	3268
889.883	3253
890.006	3370
890.13	3477
890.254	3264
890.377	3302
890.501	3169
890.624	3176
890.748	3325
890.871	3180
890.995	3097
891.118	3070
891.241	3188
891.364	3214
891.488	3317
891.611	3161
891.734	3207
891.857	3260
891.98	3275
892.103	3306
892.226	3283
892.349	3211
892.471	3089
892.594	3237
892.717	3279
892.839	3249
892.962	3275
893.085	3298
893.207	3302
893.33	3165
893.452	3233
893.575	3351
893.697	3233
893.819	3492
893.941	3500
894.064	3431
894.186	3268
894.308	3275
894.43	3447
894.552	3523
894.674	3507
894.796	3268
894.918	3291
895.04	3291
895.161	3435
895.283	3367
895.405	3306
895.526	3363
895.648	3416
895.769	3401
895.891	3389
896.012	3469
896.134	3443
896.255	3351
896.376	3340
896.498	3359
896.619	3412
896.74	3393
896.861	3397
896.982	3644
897.103	3827
897.224	3587
897.345	3450
897.466	3397
897.587	3454
897.708	3629
897.828	3587
897.949	3420
898.07	3306
898.19	3405
898.311	3603
898.431	3424
898.552	3507
898.672	3618
898.792	3553
898.913	3515
899.033	3405
899.153	3268
899.273	3222
899.393	3310
899.513	3313
899.633	3329
899.753	3355
899.873	3275
899.993	3351
900.113	3340
900.232	3386
900.352	3370
900.472	3302
900.591	3165
900.711	3294
900.83	3302
900.95	3409
901.069	3507
901.189	3332
901.308	3176
901.427	3077
901.546	3188
901.665	3279
901.784	3321
901.904	3226
902.023	3123
902.141	3009
902.26	2971
902.379	3108
902.498	3066
902.617	3066
902.735	3241
902.854	3233
902.973	3176
903.091	3032
903.21	3062
903.328	3146
903.446	3161
903.565	3066
903.683	3199
903.801	3154
903.919	3245
904.038	3279
904.156	3180
904.274	3287
904.392	3218
904.51	3272
904.627	3325
904.745	3447
904.863	3504
904.981	3245
905.098	3176
905.216	3226
905.334	3310
905.451	3302
905.569	3306
905.686	3355
905.803	3435
905.921	3302
906.038	3412
906.155	3389
906.272	3279
906.389	3310
906.506	3245
906.623	3230
906.74	3268
906.857	3245
906.974	3253
907.091	3443
907.208	3526
907.324	3443
907.441	3386
907.557	3230
907.674	3188
907.79	3226
907.907	3298
908.023	3374
908.139	3374
908.256	3351
908.372	3397
908.488	3351
908.604	3272
908.72	3275
908.836	3268
908.952	3287
909.068	3306
909.184	3477
909.3	3416
909.415	3530
909.531	3462
909.647	3283
909.762	3310
909.878	3291
909.993	3363
910.108	3351
910.224	3340
910.339	3405
910.454	3344
910.57	3298
910.685	3268
910.8	3610
910.915	3462
911.03	3447
911.145	3241
911.259	3302
911.374	3313
911.489	3268
911.604	3176
911.718	3093
911.833	3150
911.947	3020
912.062	2975
912.176	3169
912.291	3222
912.405	3245
912.519	3412
912.633	3477
912.748	3332
912.862	3272
912.976	3195
913.09	3058
913.204	3135
913.318	3211
913.431	3340
913.545	3340
913.659	3393
913.772	3317
913.886	3214
914	3195
914.113	3386
914.226	3405
914.34	3389
914.453	3245
914.566	3367
914.68	3313
914.793	3272
914.906	3142
915.019	3135
915.132	3062
915.245	3169
915.358	3173
915.47	3218
915.583	3264
915.696	3298
915.809	3393
915.921	3401
916.034	3233
916.146	3260
916.259	3203
916.371	3344
916.483	3321
916.595	3253
916.708	3329
916.82	3321
916.932	3340
917.044	3336
917.156	3367
917.268	3260
917.38	3272
917.491	3302
917.603	3374
917.715	3447
917.826	3428
917.938	3374
918.049	3268
918.161	3389
918.272	3561
918.384	3553
918.495	3488
918.606	3313
918.717	3283
918.828	3397
918.939	3401
919.05	3291
919.161	3378
919.272	3173
919.383	3279
919.494	3496
919.604	3682
919.715	3519
919.826	3397
919.936	3428
920.047	3595
920.157	3534
920.267	3747
920.378	3629
920.488	3614
920.598	3759
920.708	3918
920.818	3804
920.928	3812
921.038	4040
921.148	3972
921.258	3724
921.368	3622
921.477	3580
921.587	3469
921.697	3481
921.806	3584
921.916	3488
922.025	3367
922.134	3386
922.244	3321
922.353	3428
922.462	3253
922.571	3214
922.68	3108
922.789	3085
922.898	3192
923.007	3112
923.116	3203
923.224	3161
923.333	3173
923.442	3112
923.55	3119
923.659	3165
923.767	3211
923.876	3100
923.984	3226
924.092	3093
924.201	3176
924.309	3192
924.417	3256
924.525	3180
924.633	3222
924.741	4207
924.849	3032
924.956	3272
925.064	3104
925.172	3024
925.279	3085
925.387	3214
925.494	3169
925.602	3336
925.709	3329
925.816	3214
925.924	3268
926.031	3378
926.138	3275
926.245	3382
926.352	3233
926.459	3405
926.566	3435
926.673	3359
926.779	3222
926.886	3268
926.993	3157
927.099	3116
927.206	3123
927.312	3089
927.419	3233
927.525	3218
927.631	3264
927.737	3150
927.843	3131
927.95	2982
928.056	3100
928.162	3203
928.267	3245
928.373	3808
928.479	3310
928.585	3081
928.69	3256
928.796	3260
928.901	3165
929.007	3028
929.112	3192
929.218	3150
929.323	3127
929.428	3165
929.533	3313
929.638	3100
929.743	3138
929.848	3237
929.953	3226
930.058	3135
930.163	2994
930.267	3055
930.372	3188
930.477	3036
930.581	3302
930.685	3184
930.79	3047
930.894	3108
930.998	3108
931.103	3260
931.207	2986
931.311	2925
931.415	2914
931.519	2769
931.623	2826
