Data from test_V78500241_597.txt Node
Date: Fri Mar 25 16:19:20 CST 2022
User: usil
Spectrometer: V785-0024
Trigger mode: 0
Integration Time (sec): 4.000000E-1
Scans to average: 1
Nonlinearity correction enabled: false
Boxcar width: 0
Storing dark spectrum: false
XAxis mode: Wavelengths
Number of Pixels in Spectrum: 1024
>>>>>Begin Spectral Data<<<<<
801.071	2910
801.214	2925
801.356	2876
801.499	2887
801.641	2891
801.783	2941
801.926	3028
802.068	2971
802.211	3020
802.353	3036
802.496	2918
802.638	3020
802.78	3036
802.923	3100
803.065	3017
803.208	2887
803.35	2895
803.492	2956
803.635	2906
803.777	2762
803.919	2842
804.061	3214
804.204	2929
804.346	2933
804.488	2853
804.63	2986
804.773	2883
804.915	2929
805.057	3077
805.199	2944
805.341	2967
805.483	3032
805.626	2994
805.768	2967
805.91	3077
806.052	3112
806.194	3051
806.336	3233
806.478	3024
806.62	2952
806.762	2956
806.904	3032
807.046	3146
807.188	3009
807.33	2914
807.472	2998
807.614	2899
807.756	2986
807.898	2902
808.04	2861
808.182	3020
808.324	2933
808.465	2876
808.607	2899
808.749	2830
808.891	2838
809.033	2982
809.174	2937
809.316	2876
809.458	2853
809.6	2758
809.741	2781
809.883	2792
810.025	2823
810.166	2845
810.308	2872
810.45	2849
810.591	2777
810.733	2735
810.875	2842
811.016	2743
811.158	2731
811.299	2838
811.441	2933
811.582	2868
811.724	2811
811.865	2819
812.007	2929
812.148	2880
812.29	2819
812.431	2929
812.573	2933
812.714	2948
812.855	3047
812.997	3036
813.138	3138
813.279	3005
813.421	2990
813.562	2941
813.703	2861
813.845	2902
813.986	2766
814.127	2735
814.268	2815
814.41	2804
814.551	2781
814.692	2861
814.833	2785
814.974	2887
815.115	2918
815.256	2834
815.397	2826
815.539	2880
815.68	2743
815.821	2777
815.962	2899
816.103	2925
816.244	2895
816.385	2842
816.526	2960
816.666	2933
816.807	2724
816.948	2891
817.089	2906
817.23	2864
817.371	2766
817.512	2758
817.653	2815
817.793	2845
817.934	2887
818.075	2967
818.216	2967
818.356	2982
818.497	2887
818.638	2796
818.778	2788
818.919	2792
819.06	2754
819.2	2857
819.341	2819
819.481	2754
819.622	2922
819.762	3112
819.903	3024
820.043	2914
820.184	2914
820.324	2922
820.465	3020
820.605	3013
820.746	3024
820.886	2929
821.026	3112
821.167	3184
821.307	3222
821.447	3287
821.588	3241
821.728	3233
821.868	3142
822.008	3100
822.149	3161
822.289	3245
822.429	3077
822.569	3085
822.709	3188
822.849	3028
822.99	3043
823.13	3123
823.27	3199
823.41	3104
823.55	3157
823.69	3157
823.83	3203
823.97	3070
824.11	3017
824.25	2994
824.389	3036
824.529	3154
824.669	3070
824.809	3199
824.949	3230
825.089	3264
825.228	3142
825.368	2975
825.508	2956
825.648	2963
825.787	2986
825.927	2982
826.067	2979
826.206	2922
826.346	3062
826.485	3100
826.625	3089
826.765	3241
826.904	3211
827.044	3009
827.183	2952
827.323	2887
827.462	3020
827.601	2910
827.741	2895
827.88	2994
828.02	2830
828.159	2971
828.298	3020
828.437	3077
828.577	3051
828.716	3253
828.855	3108
828.994	2906
829.134	2864
829.273	2910
829.412	2842
829.551	2868
829.69	2872
829.829	2982
829.968	3165
830.107	3005
830.246	3005
830.385	2902
830.524	2864
830.663	2853
830.802	2750
830.941	2670
831.08	2640
831.219	2754
831.357	2777
831.496	2929
831.635	2735
831.774	2674
831.913	2651
832.051	2560
832.19	2571
832.329	2667
832.467	2522
832.606	2495
832.744	2560
832.883	2575
833.022	2594
833.16	2640
833.299	2670
833.437	2678
833.576	2705
833.714	2731
833.852	2712
833.991	2724
834.129	2815
834.267	2800
834.406	2762
834.544	2887
834.682	2899
834.821	2845
834.959	3047
835.097	2883
835.235	3081
835.373	3001
835.511	3032
835.65	2952
835.788	2933
835.926	2788
836.064	2785
836.202	2868
836.34	3036
836.478	3123
836.615	3039
836.753	3165
836.891	3211
837.029	3154
837.167	3142
837.305	3089
837.443	3028
837.58	2960
837.718	3131
837.856	3036
837.993	3001
838.131	3116
838.269	3123
838.406	3097
838.544	3093
838.681	2922
838.819	2914
838.956	2769
839.094	2845
839.231	2902
839.369	3036
839.506	3382
839.643	3222
839.781	3028
839.918	2975
840.055	3017
840.193	3058
840.33	3085
840.467	3062
840.604	3146
840.742	3386
840.879	3055
841.016	3047
841.153	3085
841.29	3351
841.427	3264
841.564	3275
841.701	3306
841.838	3211
841.975	3203
842.112	3173
842.249	3097
842.385	3062
842.522	3237
842.659	3039
842.796	3066
842.933	3093
843.069	3036
843.206	3043
843.343	3142
843.479	3077
843.616	3100
843.752	2910
843.889	2868
844.025	3074
844.162	2853
844.298	3051
844.435	2952
844.571	2925
844.708	3070
844.844	3173
844.98	3230
845.117	3188
845.253	3036
845.389	3005
845.525	3093
845.661	3089
845.798	2994
845.934	3093
846.07	3020
846.206	3222
846.342	3344
846.478	3226
846.614	3119
846.75	3066
846.886	2986
847.022	3256
847.158	3131
847.294	3195
847.429	3226
847.565	3161
847.701	3492
847.837	3024
847.972	3005
848.108	3157
848.244	3138
848.379	2967
848.515	2933
848.65	2933
848.786	2925
848.921	2971
849.057	3051
849.192	3188
849.328	3039
849.463	3123
849.598	3047
849.734	3062
849.869	2967
850.004	2910
850.14	2986
850.275	2918
850.41	2838
850.545	2880
850.68	2902
850.815	2948
850.95	2929
851.085	3188
851.22	3123
851.355	3013
851.49	2998
851.625	3013
851.76	3001
851.895	2952
852.03	2902
852.165	3043
852.299	3123
852.434	3150
852.569	3127
852.703	3176
852.838	3260
852.973	3298
853.107	3348
853.242	3112
853.376	3055
853.511	2967
853.645	3032
853.78	3214
853.914	3074
854.048	3077
854.183	3093
854.317	3146
854.451	3272
854.585	3127
854.72	3108
854.854	3184
854.988	3058
855.122	3070
855.256	2982
855.39	3112
855.524	3230
855.658	3169
855.792	3173
855.926	3154
856.06	3218
856.194	3264
856.327	3123
856.461	3043
856.595	3070
856.729	3108
856.862	3214
856.996	3173
857.13	3165
857.263	3245
857.397	3245
857.53	3154
857.664	3161
857.797	3222
857.931	3237
858.064	3157
858.197	3211
858.331	3142
858.464	3112
858.597	3001
858.731	3108
858.864	3165
858.997	3062
859.13	3195
859.263	3138
859.396	3203
859.529	3108
859.662	3070
859.795	3062
859.928	3138
860.061	3241
860.194	3291
860.327	3119
860.46	3089
860.592	3245
860.725	3275
860.858	3241
860.99	3074
861.123	3085
861.256	3074
861.388	3123
861.521	3629
861.653	3001
861.786	2998
861.918	2967
862.05	3036
862.183	3104
862.315	3100
862.447	3169
862.58	3097
862.712	2918
862.844	2819
862.976	3024
863.108	2975
863.24	3412
863.372	2861
863.504	2944
863.636	2929
863.768	2998
863.9	2971
864.032	2906
864.164	2971
864.296	2990
864.428	3100
864.559	3100
864.691	3081
864.823	3108
864.954	3047
865.086	3051
865.217	2975
865.349	2922
865.48	2975
865.612	3005
865.743	3146
865.875	2956
866.006	2960
866.137	2982
866.269	2906
866.4	2948
866.531	2899
866.662	2910
866.793	2887
866.924	2891
867.055	2967
867.186	2914
867.317	2868
867.448	2826
867.579	2834
867.71	2845
867.841	2826
867.972	2887
868.103	2895
868.233	2887
868.364	2853
868.495	2910
868.625	3062
868.756	3154
868.886	2998
869.017	3024
869.147	3199
869.278	3169
869.408	3032
869.539	3047
869.669	3085
869.799	3024
869.929	3165
870.06	3093
870.19	3317
870.32	3260
870.45	3336
870.58	3367
870.71	3450
870.84	3458
870.97	3272
871.1	3241
871.23	3454
871.36	3439
871.489	3355
871.619	3397
871.749	3401
871.879	3443
872.008	3458
872.138	3351
872.267	3245
872.397	3081
872.526	3138
872.656	3024
872.785	3123
872.915	3214
873.044	3298
873.173	3218
873.303	3218
873.432	3199
873.561	3207
873.69	3135
873.819	3176
873.948	3211
874.077	3058
874.206	3036
874.335	3047
874.464	3192
874.593	3329
874.722	3222
874.851	3359
874.979	3355
875.108	3287
875.237	3199
875.365	3157
875.494	3180
875.623	3279
875.751	3070
875.88	3116
876.008	3203
876.136	3226
876.265	3370
876.393	3477
876.521	3378
876.65	3378
876.778	3329
876.906	3241
877.034	3173
877.162	3211
877.29	3127
877.418	3233
877.546	3249
877.674	3218
877.802	3192
877.93	3241
878.058	3138
878.185	3089
878.313	3188
878.441	3233
878.568	3055
878.696	3131
878.824	3264
878.951	3306
879.079	3439
879.206	3561
879.333	3454
879.461	3359
879.588	3378
879.715	3431
879.842	3595
879.97	3382
880.097	3123
880.224	3116
880.351	3154
880.478	3222
880.605	3188
880.732	3207
880.859	3466
880.986	3325
881.112	3325
881.239	3146
881.366	3081
881.493	3043
881.619	2979
881.746	3066
881.872	3058
881.999	3070
882.125	3180
882.252	3237
882.378	3291
882.505	3401
882.631	3249
882.757	3161
882.883	3233
883.01	3211
883.136	3161
883.262	3062
883.388	3138
883.514	3294
883.64	3378
883.766	3317
883.892	3127
884.018	3256
884.143	3447
884.269	3488
884.395	3211
884.52	3165
884.646	3112
884.772	3150
884.897	3119
885.023	3199
885.148	3321
885.274	3389
885.399	3374
885.524	3272
885.65	3226
885.775	3302
885.9	3272
886.025	3428
886.15	3351
886.275	3294
886.4	3272
886.525	3317
886.65	3287
886.775	3253
886.9	3488
887.025	3622
887.149	3386
887.274	3241
887.399	3180
887.523	3188
887.648	3203
887.773	3188
887.897	3397
888.021	3420
888.146	3275
888.27	3424
888.395	3534
888.519	3431
888.643	3469
888.767	3473
888.891	3302
889.015	3241
889.139	3279
889.263	3249
889.387	3397
889.511	3504
889.635	3447
889.759	3230
889.883	3329
890.006	3359
890.13	3530
890.254	3294
890.377	3344
890.501	3199
890.624	3207
890.748	3291
890.871	3135
890.995	3108
891.118	3055
891.241	3214
891.364	3226
891.488	3298
891.611	3207
891.734	3184
891.857	3253
891.98	3226
892.103	3351
892.226	3291
892.349	3195
892.471	3104
892.594	3268
892.717	3256
892.839	3218
892.962	3302
893.085	3370
893.207	3283
893.33	3157
893.452	3207
893.575	3359
893.697	3214
893.819	3481
893.941	3507
894.064	3439
894.186	3245
894.308	3287
894.43	3401
894.552	3572
894.674	3507
894.796	3256
894.918	3291
895.04	3272
895.161	3435
895.283	3428
895.405	3302
895.526	3332
895.648	3447
895.769	3443
895.891	3450
896.012	3481
896.134	3435
896.255	3462
896.376	3416
896.498	3359
896.619	3401
896.74	3351
896.861	3435
896.982	3682
897.103	3812
897.224	3595
897.345	3507
897.466	3424
897.587	3485
897.708	3614
897.828	3534
897.949	3431
898.07	3321
898.19	3370
898.311	3564
898.431	3473
898.552	3515
898.672	3595
898.792	3587
898.913	3511
899.033	3412
899.153	3287
899.273	3207
899.393	3336
899.513	3313
899.633	3291
899.753	3355
899.873	3275
899.993	3382
900.113	3340
900.232	3344
900.352	3306
900.472	3321
900.591	3214
900.711	3294
900.83	3233
900.95	3416
901.069	3523
901.189	3329
901.308	3173
901.427	3138
901.546	3161
901.665	3306
901.784	3325
901.904	3173
902.023	3116
902.141	2990
902.26	3024
902.379	3104
902.498	3066
902.617	3020
902.735	3218
902.854	3211
902.973	3184
903.091	3039
903.21	3062
903.328	3138
903.446	3104
903.565	3108
903.683	3184
903.801	3116
903.919	3237
904.038	3291
904.156	3199
904.274	3256
904.392	3245
904.51	3268
904.627	3317
904.745	3416
904.863	3519
904.981	3283
905.098	3222
905.216	3199
905.334	3313
905.451	3287
905.569	3287
905.686	3420
905.803	3462
905.921	3310
906.038	3401
906.155	3359
906.272	3272
906.389	3321
906.506	3241
906.623	3272
906.74	3260
906.857	3207
906.974	3226
907.091	3405
907.208	3549
907.324	3504
907.441	3431
907.557	3256
907.674	3256
907.79	3195
907.907	3260
908.023	3363
908.139	3397
908.256	3325
908.372	3378
908.488	3340
908.604	3218
908.72	3256
908.836	3313
908.952	3260
909.068	3336
909.184	3473
909.3	3389
909.415	3511
909.531	3488
909.647	3253
909.762	3294
909.878	3241
909.993	3344
910.108	3332
910.224	3359
910.339	3389
910.454	3325
910.57	3317
910.685	3222
910.8	3564
910.915	3545
911.03	3454
911.145	3291
911.259	3264
911.374	3279
911.489	3268
911.604	3230
911.718	3138
911.833	3150
911.947	3055
912.062	2986
912.176	3173
912.291	3195
912.405	3207
912.519	3416
912.633	3485
912.748	3325
912.862	3275
912.976	3192
913.09	3043
913.204	3165
913.318	3192
913.431	3306
913.545	3348
913.659	3416
913.772	3348
913.886	3218
914	3199
914.113	3348
914.226	3409
914.34	3374
914.453	3249
914.566	3428
914.68	3279
914.793	3302
914.906	3154
915.019	3093
915.132	3070
915.245	3161
915.358	3203
915.47	3237
915.583	3233
915.696	3268
915.809	3374
915.921	3428
916.034	3245
916.146	3245
916.259	3245
916.371	3386
916.483	3405
916.595	3268
916.708	3336
916.82	3317
916.932	3325
917.044	3351
917.156	3325
917.268	3268
917.38	3272
917.491	3287
917.603	3325
917.715	3485
917.826	3481
917.938	3416
918.049	3279
918.161	3439
918.272	3568
918.384	3587
918.495	3477
918.606	3332
918.717	3245
918.828	3378
918.939	3412
919.05	3325
919.161	3370
919.272	3195
919.383	3302
919.494	3523
919.604	3694
919.715	3469
919.826	3397
919.936	3504
920.047	3549
920.157	3557
920.267	3720
920.378	3614
920.488	3538
920.598	3755
920.708	3896
920.818	3838
920.928	3850
921.038	4036
921.148	3964
921.258	3701
921.368	3641
921.477	3637
921.587	3542
921.697	3469
921.806	3637
921.916	3545
922.025	3374
922.134	3355
922.244	3298
922.353	3409
922.462	3272
922.571	3249
922.68	3089
922.789	3104
922.898	3104
923.007	3074
923.116	3230
923.224	3184
923.333	3195
923.442	3123
923.55	3089
923.659	3169
923.767	3226
923.876	3108
923.984	3264
924.092	3123
924.201	3207
924.309	3222
924.417	3256
924.525	3180
924.633	3226
924.741	4036
924.849	3039
924.956	3279
925.064	3131
925.172	3028
925.279	3070
925.387	3211
925.494	3214
925.602	3325
925.709	3283
925.816	3176
925.924	3294
926.031	3412
926.138	3294
926.245	3367
926.352	3245
926.459	3412
926.566	3439
926.673	3321
926.779	3253
926.886	3283
926.993	3135
927.099	3097
927.206	3093
927.312	3112
927.419	3260
927.525	3226
927.631	3237
927.737	3123
927.843	3112
927.95	3013
928.056	3161
928.162	3188
928.267	3272
928.373	3728
928.479	3302
928.585	3077
928.69	3203
928.796	3317
928.901	3165
929.007	3047
929.112	3192
929.218	3165
929.323	3161
929.428	3165
929.533	3336
929.638	3093
929.743	3142
929.848	3214
929.953	3199
930.058	3131
930.163	3009
930.267	3039
930.372	3214
930.477	3039
930.581	3279
930.685	3176
930.79	3062
930.894	3077
930.998	3112
931.103	3294
931.207	2922
931.311	2937
931.415	2918
931.519	2735
931.623	2853
