Data from test_V78500241_228.txt Node
Date: Fri Mar 25 16:16:47 CST 2022
User: usil
Spectrometer: V785-0024
Trigger mode: 0
Integration Time (sec): 4.000000E-1
Scans to average: 1
Nonlinearity correction enabled: false
Boxcar width: 0
Storing dark spectrum: false
XAxis mode: Wavelengths
Number of Pixels in Spectrum: 1024
>>>>>Begin Spectral Data<<<<<
801.071	2960
801.214	3009
801.356	2902
801.499	2929
801.641	2937
801.783	2971
801.926	3097
802.068	3009
802.211	3036
802.353	3093
802.496	2998
802.638	3028
802.78	3051
802.923	3108
803.065	3058
803.208	2956
803.35	2979
803.492	2963
803.635	2979
803.777	2807
803.919	2891
804.061	3233
804.204	2967
804.346	2944
804.488	2853
804.63	3013
804.773	2918
804.915	2929
805.057	3104
805.199	2956
805.341	2986
805.483	3097
805.626	3058
805.768	3020
805.91	3127
806.052	3161
806.194	3081
806.336	3230
806.478	3055
806.62	2963
806.762	2998
806.904	3100
807.046	3192
807.188	2994
807.33	2952
807.472	3024
807.614	2902
807.756	3001
807.898	2960
808.04	2910
808.182	2986
808.324	2975
808.465	2910
808.607	2902
808.749	2845
808.891	2902
809.033	3013
809.174	2986
809.316	2914
809.458	2902
809.6	2785
809.741	2811
809.883	2777
810.025	2887
810.166	2902
810.308	2845
810.45	2880
810.591	2792
810.733	2807
810.875	2838
811.016	2815
811.158	2800
811.299	2853
811.441	2941
811.582	2952
811.724	2838
811.865	2876
812.007	2922
812.148	2899
812.29	2880
812.431	2872
812.573	2929
812.714	2956
812.855	3066
812.997	3058
813.138	3161
813.279	3036
813.421	2998
813.562	2971
813.703	2918
813.845	2929
813.986	2804
814.127	2731
814.268	2868
814.41	2872
814.551	2826
814.692	2895
814.833	2853
814.974	2937
815.115	2963
815.256	2853
815.397	2815
815.539	2906
815.68	2819
815.821	2826
815.962	2982
816.103	2948
816.244	2899
816.385	2902
816.526	2982
816.666	2960
816.807	2777
816.948	2910
817.089	2929
817.23	2876
817.371	2807
817.512	2823
817.653	2834
817.793	2838
817.934	2918
818.075	2960
818.216	3074
818.356	3017
818.497	2876
818.638	2804
818.778	2842
818.919	2800
819.06	2758
819.2	2895
819.341	2838
819.481	2815
819.622	2948
819.762	3116
819.903	3081
820.043	2948
820.184	2880
820.324	2914
820.465	3039
820.605	3036
820.746	3051
820.886	2952
821.026	3157
821.167	3161
821.307	3287
821.447	3294
821.588	3253
821.728	3233
821.868	3214
822.008	3093
822.149	3195
822.289	3237
822.429	3077
822.569	3100
822.709	3192
822.849	3051
822.99	3081
823.13	3169
823.27	3211
823.41	3127
823.55	3169
823.69	3157
823.83	3214
823.97	3104
824.11	3009
824.25	3005
824.389	3081
824.529	3116
824.669	3116
824.809	3230
824.949	3306
825.089	3249
825.228	3184
825.368	3001
825.508	2994
825.648	2971
825.787	3017
825.927	3017
826.067	2994
826.206	2994
826.346	3051
826.485	3089
826.625	3116
826.765	3306
826.904	3211
827.044	2971
827.183	2963
827.323	2899
827.462	2994
827.601	2960
827.741	2929
827.88	2967
828.02	2895
828.159	3005
828.298	3074
828.437	3131
828.577	3093
828.716	3245
828.855	3112
828.994	2937
829.134	2876
829.273	2918
829.412	2880
829.551	2880
829.69	2914
829.829	3017
829.968	3135
830.107	3005
830.246	3051
830.385	2937
830.524	2876
830.663	2811
830.802	2777
830.941	2705
831.08	2686
831.219	2773
831.357	2796
831.496	2990
831.635	2758
831.774	2651
831.913	2689
832.051	2583
832.19	2575
832.329	2735
832.467	2579
832.606	2488
832.744	2602
832.883	2617
833.022	2594
833.16	2693
833.299	2724
833.437	2693
833.576	2697
833.714	2750
833.852	2727
833.991	2785
834.129	2880
834.267	2830
834.406	2815
834.544	2902
834.682	2849
834.821	2861
834.959	3051
835.097	2872
835.235	3100
835.373	3028
835.511	3024
835.65	2990
835.788	2944
835.926	2857
836.064	2834
836.202	2842
836.34	3112
836.478	3169
836.615	3062
836.753	3173
836.891	3264
837.029	3165
837.167	3097
837.305	3074
837.443	3047
837.58	3013
837.718	3104
837.856	3097
837.993	3024
838.131	3116
838.269	3150
838.406	3104
838.544	3097
838.681	2937
838.819	2941
838.956	2849
839.094	2838
839.231	2952
839.369	3043
839.506	3363
839.643	3188
839.781	3028
839.918	3024
840.055	3062
840.193	3074
840.33	3097
840.467	3104
840.604	3127
840.742	3397
840.879	3039
841.016	3081
841.153	3127
841.29	3378
841.427	3321
841.564	3287
841.701	3294
841.838	3245
841.975	3173
842.112	3222
842.249	3104
842.385	3074
842.522	3298
842.659	3108
842.796	3104
842.933	3104
843.069	3066
843.206	3028
843.343	3203
843.479	3142
843.616	3161
843.752	2922
843.889	2876
844.025	3127
844.162	2902
844.298	3100
844.435	2960
844.571	2933
844.708	3093
844.844	3203
844.98	3233
845.117	3207
845.253	3081
845.389	2994
845.525	3116
845.661	3108
845.798	3028
845.934	3131
846.07	3077
846.206	3188
846.342	3348
846.478	3241
846.614	3116
846.75	3074
846.886	3032
847.022	3272
847.158	3169
847.294	3173
847.429	3260
847.565	3230
847.701	3485
847.837	3036
847.972	3047
848.108	3173
848.244	3142
848.379	3005
848.515	2941
848.65	2956
848.786	2967
848.921	2994
849.057	3131
849.192	3192
849.328	3070
849.463	3123
849.598	3081
849.734	3070
849.869	2952
850.004	2929
850.14	2967
850.275	2910
850.41	2880
850.545	2887
850.68	2941
850.815	2948
850.95	2986
851.085	3214
851.22	3100
851.355	3047
851.49	2960
851.625	3017
851.76	3013
851.895	2918
852.03	2925
852.165	3066
852.299	3154
852.434	3195
852.569	3123
852.703	3203
852.838	3272
852.973	3340
853.107	3359
853.242	3131
853.376	3055
853.511	2982
853.645	3070
853.78	3249
853.914	3135
854.048	3116
854.183	3089
854.317	3157
854.451	3321
854.585	3127
854.72	3081
854.854	3226
854.988	3066
855.122	3116
855.256	2990
855.39	3138
855.524	3226
855.658	3222
855.792	3176
855.926	3226
856.06	3230
856.194	3226
856.327	3169
856.461	3077
856.595	3142
856.729	3135
856.862	3222
856.996	3199
857.13	3207
857.263	3233
857.397	3249
857.53	3154
857.664	3218
857.797	3260
857.931	3249
858.064	3184
858.197	3230
858.331	3131
858.464	3119
858.597	3043
858.731	3138
858.864	3135
858.997	3085
859.13	3131
859.263	3165
859.396	3226
859.529	3081
859.662	3066
859.795	3039
859.928	3154
860.061	3332
860.194	3268
860.327	3150
860.46	3119
860.592	3241
860.725	3275
860.858	3321
860.99	3123
861.123	3085
861.256	3070
861.388	3154
861.521	3857
861.653	3020
861.786	2971
861.918	3013
862.05	3089
862.183	3127
862.315	3154
862.447	3207
862.58	3123
862.712	2979
862.844	2914
862.976	3028
863.108	3039
863.24	3340
863.372	2868
863.504	2937
863.636	2902
863.768	3032
863.9	2952
864.032	2906
864.164	2975
864.296	3036
864.428	3108
864.559	3146
864.691	3104
864.823	3043
864.954	3039
865.086	3017
865.217	2986
865.349	2944
865.48	2982
865.612	3009
865.743	3157
865.875	2990
866.006	2910
866.137	2990
866.269	2941
866.4	2933
866.531	2948
866.662	2933
866.793	2918
866.924	2925
867.055	3005
867.186	2933
867.317	2906
867.448	2819
867.579	2891
867.71	2883
867.841	2834
867.972	2944
868.103	2941
868.233	2918
868.364	2895
868.495	2925
868.625	3081
868.756	3173
868.886	2990
869.017	3013
869.147	3184
869.278	3157
869.408	3062
869.539	3013
869.669	3093
869.799	3043
869.929	3131
870.06	3142
870.19	3351
870.32	3298
870.45	3291
870.58	3401
870.71	3435
870.84	3443
870.97	3332
871.1	3268
871.23	3496
871.36	3443
871.489	3386
871.619	3428
871.749	3416
871.879	3454
872.008	3454
872.138	3367
872.267	3283
872.397	3131
872.526	3119
872.656	3001
872.785	3119
872.915	3253
873.044	3310
873.173	3275
873.303	3279
873.432	3249
873.561	3249
873.69	3173
873.819	3131
873.948	3241
874.077	3116
874.206	2994
874.335	3089
874.464	3241
874.593	3325
874.722	3264
874.851	3378
874.979	3389
875.108	3367
875.237	3211
875.365	3157
875.494	3138
875.623	3268
875.751	3100
875.88	3112
876.008	3214
876.136	3218
876.265	3382
876.393	3473
876.521	3409
876.65	3393
876.778	3344
876.906	3203
877.034	3230
877.162	3245
877.29	3188
877.418	3245
877.546	3237
877.674	3264
877.802	3237
877.93	3237
878.058	3154
878.185	3135
878.313	3214
878.441	3237
878.568	3070
878.696	3154
878.824	3241
878.951	3306
879.079	3473
879.206	3618
879.333	3401
879.461	3336
879.588	3363
879.715	3481
879.842	3587
879.97	3374
880.097	3184
880.224	3112
880.351	3188
880.478	3203
880.605	3214
880.732	3161
880.859	3488
880.986	3344
881.112	3348
881.239	3195
881.366	3123
881.493	3051
881.619	3032
881.746	3077
881.872	3097
881.999	3104
882.125	3169
882.252	3256
882.378	3287
882.505	3420
882.631	3256
882.757	3188
882.883	3233
883.01	3245
883.136	3214
883.262	3089
883.388	3100
883.514	3298
883.64	3367
883.766	3321
883.892	3176
884.018	3218
884.143	3416
884.269	3561
884.395	3199
884.52	3176
884.646	3188
884.772	3116
884.897	3093
885.023	3207
885.148	3340
885.274	3431
885.399	3405
885.524	3256
885.65	3279
885.775	3298
885.9	3275
886.025	3458
886.15	3420
886.275	3310
886.4	3218
886.525	3313
886.65	3294
886.775	3275
886.9	3492
887.025	3660
887.149	3447
887.274	3260
887.399	3203
887.523	3199
887.648	3195
887.773	3226
887.897	3389
888.021	3382
888.146	3336
888.27	3424
888.395	3545
888.519	3424
888.643	3458
888.767	3435
888.891	3272
889.015	3249
889.139	3313
889.263	3249
889.387	3393
889.511	3557
889.635	3439
889.759	3306
889.883	3313
890.006	3405
890.13	3500
890.254	3275
890.377	3344
890.501	3211
890.624	3180
890.748	3294
890.871	3222
890.995	3104
891.118	3066
891.241	3173
891.364	3226
891.488	3313
891.611	3195
891.734	3214
891.857	3268
891.98	3222
892.103	3332
892.226	3317
892.349	3226
892.471	3112
892.594	3237
892.717	3291
892.839	3283
892.962	3291
893.085	3348
893.207	3287
893.33	3176
893.452	3222
893.575	3344
893.697	3226
893.819	3496
893.941	3511
894.064	3477
894.186	3287
894.308	3268
894.43	3439
894.552	3561
894.674	3492
894.796	3317
894.918	3256
895.04	3329
895.161	3412
895.283	3401
895.405	3272
895.526	3336
895.648	3439
895.769	3420
895.891	3466
896.012	3515
896.134	3477
896.255	3412
896.376	3401
896.498	3351
896.619	3439
896.74	3389
896.861	3397
896.982	3679
897.103	3819
897.224	3614
897.345	3519
897.466	3477
897.587	3485
897.708	3663
897.828	3557
897.949	3443
898.07	3348
898.19	3420
898.311	3599
898.431	3477
898.552	3488
898.672	3599
898.792	3591
898.913	3530
899.033	3443
899.153	3302
899.273	3260
899.393	3306
899.513	3329
899.633	3370
899.753	3344
899.873	3340
899.993	3351
900.113	3336
900.232	3378
900.352	3351
900.472	3279
900.591	3249
900.711	3325
900.83	3275
900.95	3420
901.069	3485
901.189	3359
901.308	3135
901.427	3157
901.546	3146
901.665	3344
901.784	3302
901.904	3237
902.023	3138
902.141	3028
902.26	3032
902.379	3131
902.498	3089
902.617	3039
902.735	3275
902.854	3279
902.973	3226
903.091	3020
903.21	3093
903.328	3131
903.446	3119
903.565	3093
903.683	3203
903.801	3150
903.919	3230
904.038	3340
904.156	3195
904.274	3283
904.392	3249
904.51	3302
904.627	3370
904.745	3466
904.863	3507
904.981	3237
905.098	3173
905.216	3211
905.334	3317
905.451	3325
905.569	3348
905.686	3420
905.803	3450
905.921	3332
906.038	3435
906.155	3370
906.272	3264
906.389	3310
906.506	3203
906.623	3291
906.74	3291
906.857	3241
906.974	3272
907.091	3469
907.208	3591
907.324	3504
907.441	3378
907.557	3253
907.674	3260
907.79	3230
907.907	3294
908.023	3382
908.139	3382
908.256	3367
908.372	3420
908.488	3344
908.604	3253
908.72	3245
908.836	3264
908.952	3298
909.068	3313
909.184	3481
909.3	3405
909.415	3492
909.531	3454
909.647	3294
909.762	3283
909.878	3245
909.993	3355
910.108	3332
910.224	3359
910.339	3443
910.454	3374
910.57	3294
910.685	3283
910.8	3584
910.915	3545
911.03	3454
911.145	3329
911.259	3279
911.374	3321
911.489	3260
911.604	3279
911.718	3150
911.833	3138
911.947	3028
912.062	2998
912.176	3203
912.291	3203
912.405	3161
912.519	3409
912.633	3469
912.748	3313
912.862	3233
912.976	3192
913.09	3047
913.204	3150
913.318	3214
913.431	3272
913.545	3386
913.659	3378
913.772	3374
913.886	3241
914	3207
914.113	3329
914.226	3412
914.34	3401
914.453	3184
914.566	3428
914.68	3268
914.793	3313
914.906	3112
915.019	3112
915.132	3104
915.245	3180
915.358	3226
915.47	3203
915.583	3287
915.696	3287
915.809	3443
915.921	3447
916.034	3222
916.146	3249
916.259	3245
916.371	3389
916.483	3363
916.595	3306
916.708	3348
916.82	3340
916.932	3370
917.044	3359
917.156	3336
917.268	3253
917.38	3306
917.491	3294
917.603	3340
917.715	3439
917.826	3450
917.938	3378
918.049	3260
918.161	3462
918.272	3603
918.384	3610
918.495	3469
918.606	3325
918.717	3313
918.828	3397
918.939	3393
919.05	3306
919.161	3348
919.272	3165
919.383	3298
919.494	3477
919.604	3690
919.715	3485
919.826	3412
919.936	3466
920.047	3610
920.157	3549
920.267	3740
920.378	3648
920.488	3618
920.598	3800
920.708	3968
920.818	3842
920.928	3831
921.038	4006
921.148	3975
921.258	3686
921.368	3610
921.477	3591
921.587	3564
921.697	3473
921.806	3660
921.916	3553
922.025	3393
922.134	3378
922.244	3348
922.353	3409
922.462	3275
922.571	3253
922.68	3138
922.789	3085
922.898	3154
923.007	3119
923.116	3211
923.224	3176
923.333	3233
923.442	3116
923.55	3112
923.659	3154
923.767	3233
923.876	3093
923.984	3245
924.092	3112
924.201	3211
924.309	3237
924.417	3291
924.525	3180
924.633	3287
924.741	4181
924.849	3074
924.956	3275
925.064	3081
925.172	3062
925.279	3154
925.387	3188
925.494	3192
925.602	3393
925.709	3340
925.816	3218
925.924	3340
926.031	3382
926.138	3348
926.245	3370
926.352	3283
926.459	3424
926.566	3469
926.673	3272
926.779	3283
926.886	3237
926.993	3176
927.099	3157
927.206	3081
927.312	3077
927.419	3230
927.525	3226
927.631	3287
927.737	3146
927.843	3131
927.95	3017
928.056	3142
928.162	3161
928.267	3226
928.373	3876
928.479	3325
928.585	3116
928.69	3256
928.796	3291
928.901	3195
929.007	3051
929.112	3192
929.218	3207
929.323	3176
929.428	3176
929.533	3313
929.638	3142
929.743	3203
929.848	3268
929.953	3218
930.058	3127
930.163	2998
930.267	3032
930.372	3218
930.477	3066
930.581	3302
930.685	3169
930.79	3081
930.894	3131
930.998	3077
931.103	3344
931.207	2975
931.311	2902
931.415	2960
931.519	2788
931.623	2777
