Data from test_V78500241_60.txt Node
Date: Fri Mar 25 16:15:37 CST 2022
User: usil
Spectrometer: V785-0024
Trigger mode: 0
Integration Time (sec): 4.000000E-1
Scans to average: 1
Nonlinearity correction enabled: false
Boxcar width: 0
Storing dark spectrum: false
XAxis mode: Wavelengths
Number of Pixels in Spectrum: 1024
>>>>>Begin Spectral Data<<<<<
801.071	2948
801.214	2963
801.356	2914
801.499	2914
801.641	2918
801.783	2967
801.926	3062
802.068	2998
802.211	3028
802.353	3097
802.496	2975
802.638	3077
802.78	3070
802.923	3089
803.065	3055
803.208	2941
803.35	2948
803.492	2944
803.635	2971
803.777	2773
803.919	2857
804.061	3237
804.204	2990
804.346	2922
804.488	2857
804.63	3028
804.773	2891
804.915	2914
805.057	3112
805.199	2922
805.341	3032
805.483	3066
805.626	3062
805.768	2990
805.91	3138
806.052	3119
806.194	3058
806.336	3302
806.478	3028
806.62	2971
806.762	3020
806.904	3055
807.046	3211
807.188	3036
807.33	2948
807.472	3032
807.614	2891
807.756	3051
807.898	2960
808.04	2933
808.182	2990
808.324	2956
808.465	2910
808.607	2883
808.749	2815
808.891	2857
809.033	2990
809.174	2994
809.316	2910
809.458	2906
809.6	2823
809.741	2838
809.883	2807
810.025	2872
810.166	2899
810.308	2880
810.45	2834
810.591	2792
810.733	2842
810.875	2868
811.016	2838
811.158	2785
811.299	2842
811.441	2925
811.582	2944
811.724	2845
811.865	2868
812.007	2918
812.148	2960
812.29	2883
812.431	2929
812.573	2960
812.714	2963
812.855	3108
812.997	3085
813.138	3138
813.279	3039
813.421	2994
813.562	2971
813.703	2872
813.845	2910
813.986	2811
814.127	2773
814.268	2834
814.41	2880
814.551	2868
814.692	2925
814.833	2853
814.974	2948
815.115	3001
815.256	2853
815.397	2864
815.539	2918
815.68	2796
815.821	2804
815.962	2975
816.103	2994
816.244	2902
816.385	2937
816.526	2998
816.666	2929
816.807	2750
816.948	2899
817.089	2952
817.23	2906
817.371	2826
817.512	2853
817.653	2861
817.793	2857
817.934	2887
818.075	3047
818.216	3009
818.356	3081
818.497	2952
818.638	2815
818.778	2857
818.919	2811
819.06	2807
819.2	2891
819.341	2823
819.481	2838
819.622	2963
819.762	3131
819.903	3036
820.043	2952
820.184	2933
820.324	2918
820.465	3036
820.605	3047
820.746	3051
820.886	2990
821.026	3135
821.167	3211
821.307	3332
821.447	3294
821.588	3260
821.728	3237
821.868	3218
822.008	3085
822.149	3176
822.289	3249
822.429	3100
822.569	3119
822.709	3203
822.849	3032
822.99	3116
823.13	3184
823.27	3256
823.41	3138
823.55	3176
823.69	3214
823.83	3233
823.97	3154
824.11	3020
824.25	3017
824.389	3093
824.529	3154
824.669	3108
824.809	3203
824.949	3287
825.089	3253
825.228	3230
825.368	3062
825.508	3013
825.648	2986
825.787	3039
825.927	3058
826.067	2982
826.206	3024
826.346	3051
826.485	3070
826.625	3161
826.765	3302
826.904	3222
827.044	3055
827.183	2967
827.323	2887
827.462	3017
827.601	2933
827.741	2963
827.88	3013
828.02	2883
828.159	3013
828.298	3017
828.437	3157
828.577	3104
828.716	3321
828.855	3100
828.994	2925
829.134	2914
829.273	2952
829.412	2922
829.551	2868
829.69	2925
829.829	2998
829.968	3173
830.107	3055
830.246	3055
830.385	2929
830.524	2929
830.663	2845
830.802	2750
830.941	2697
831.08	2644
831.219	2804
831.357	2762
831.496	2948
831.635	2758
831.774	2686
831.913	2686
832.051	2629
832.19	2568
832.329	2708
832.467	2530
832.606	2518
832.744	2621
832.883	2632
833.022	2587
833.16	2682
833.299	2697
833.437	2689
833.576	2731
833.714	2693
833.852	2773
833.991	2781
834.129	2864
834.267	2834
834.406	2849
834.544	2922
834.682	2925
834.821	2899
834.959	3066
835.097	2918
835.235	3077
835.373	3017
835.511	3062
835.65	3005
835.788	2967
835.926	2845
836.064	2834
836.202	2876
836.34	3127
836.478	3169
836.615	3074
836.753	3161
836.891	3214
837.029	3199
837.167	3108
837.305	3089
837.443	3093
837.58	3001
837.718	3138
837.856	3074
837.993	3070
838.131	3154
838.269	3116
838.406	3123
838.544	3104
838.681	2971
838.819	2918
838.956	2849
839.094	2857
839.231	2941
839.369	3085
839.506	3409
839.643	3279
839.781	3055
839.918	3017
840.055	3097
840.193	3085
840.33	3058
840.467	3157
840.604	3169
840.742	3466
840.879	3074
841.016	3070
841.153	3142
841.29	3378
841.427	3291
841.564	3329
841.701	3336
841.838	3272
841.975	3199
842.112	3272
842.249	3119
842.385	3097
842.522	3256
842.659	3093
842.796	3077
842.933	3100
843.069	3058
843.206	3043
843.343	3233
843.479	3131
843.616	3180
843.752	2956
843.889	2906
844.025	3123
844.162	2941
844.298	3119
844.435	2960
844.571	2937
844.708	3131
844.844	3241
844.98	3306
845.117	3218
845.253	3066
845.389	3032
845.525	3154
845.661	3131
845.798	3036
845.934	3176
846.07	3089
846.206	3245
846.342	3332
846.478	3264
846.614	3119
846.75	3104
846.886	3051
847.022	3253
847.158	3203
847.294	3272
847.429	3272
847.565	3233
847.701	3515
847.837	3077
847.972	3039
848.108	3157
848.244	3161
848.379	2998
848.515	3013
848.65	3013
848.786	3032
848.921	3043
849.057	3123
849.192	3188
849.328	3097
849.463	3097
849.598	3131
849.734	3039
849.869	3001
850.004	2944
850.14	3009
850.275	2979
850.41	2883
850.545	2925
850.68	2948
850.815	2979
850.95	2998
851.085	3260
851.22	3131
851.355	3077
851.49	3013
851.625	3051
851.76	3032
851.895	2979
852.03	2952
852.165	3043
852.299	3119
852.434	3211
852.569	3199
852.703	3195
852.838	3294
852.973	3386
853.107	3378
853.242	3211
853.376	3135
853.511	2998
853.645	3093
853.78	3245
853.914	3138
854.048	3131
854.183	3097
854.317	3203
854.451	3370
854.585	3131
854.72	3100
854.854	3241
854.988	3077
855.122	3138
855.256	3028
855.39	3135
855.524	3306
855.658	3245
855.792	3188
855.926	3241
856.06	3245
856.194	3306
856.327	3154
856.461	3097
856.595	3108
856.729	3131
856.862	3249
856.996	3222
857.13	3184
857.263	3237
857.397	3359
857.53	3131
857.664	3237
857.797	3275
857.931	3325
858.064	3195
858.197	3268
858.331	3176
858.464	3116
858.597	3043
858.731	3142
858.864	3135
858.997	3100
859.13	3180
859.263	3211
859.396	3230
859.529	3138
859.662	3138
859.795	3108
859.928	3127
860.061	3317
860.194	3340
860.327	3169
860.46	3146
860.592	3275
860.725	3298
860.858	3249
860.99	3131
861.123	3100
861.256	3104
861.388	3195
861.521	3941
861.653	3036
861.786	3047
861.918	3062
862.05	3047
862.183	3104
862.315	3192
862.447	3237
862.58	3123
862.712	2990
862.844	2902
862.976	3039
863.108	3074
863.24	3374
863.372	2948
863.504	2971
863.636	2998
863.768	3024
863.9	2986
864.032	2922
864.164	2956
864.296	3043
864.428	3116
864.559	3116
864.691	3081
864.823	3081
864.954	3062
865.086	3077
865.217	3017
865.349	2990
865.48	3039
865.612	3043
865.743	3180
865.875	3005
866.006	2952
866.137	3009
866.269	3009
866.4	3005
866.531	2956
866.662	2941
866.793	2925
866.924	2952
867.055	3024
867.186	2929
867.317	2906
867.448	2868
867.579	2876
867.71	2876
867.841	2823
867.972	2948
868.103	2895
868.233	2887
868.364	2899
868.495	2918
868.625	3131
868.756	3207
868.886	2998
869.017	3013
869.147	3230
869.278	3161
869.408	3081
869.539	3070
869.669	3112
869.799	3062
869.929	3161
870.06	3104
870.19	3370
870.32	3332
870.45	3363
870.58	3424
870.71	3492
870.84	3488
870.97	3351
871.1	3279
871.23	3530
871.36	3469
871.489	3397
871.619	3420
871.749	3469
871.879	3488
872.008	3564
872.138	3401
872.267	3310
872.397	3214
872.526	3127
872.656	3005
872.785	3142
872.915	3260
873.044	3416
873.173	3249
873.303	3287
873.432	3302
873.561	3256
873.69	3169
873.819	3165
873.948	3218
874.077	3123
874.206	3058
874.335	3100
874.464	3230
874.593	3378
874.722	3268
874.851	3401
874.979	3355
875.108	3367
875.237	3237
875.365	3169
875.494	3192
875.623	3237
875.751	3138
875.88	3169
876.008	3203
876.136	3264
876.265	3405
876.393	3561
876.521	3492
876.65	3431
876.778	3420
876.906	3260
877.034	3233
877.162	3268
877.29	3211
877.418	3268
877.546	3245
877.674	3279
877.802	3264
877.93	3226
878.058	3165
878.185	3119
878.313	3241
878.441	3294
878.568	3085
878.696	3226
878.824	3260
878.951	3310
879.079	3458
879.206	3671
879.333	3439
879.461	3409
879.588	3428
879.715	3542
879.842	3641
879.97	3431
880.097	3180
880.224	3169
880.351	3275
880.478	3291
880.605	3184
880.732	3214
880.859	3564
880.986	3367
881.112	3344
881.239	3249
881.366	3138
881.493	3077
881.619	3077
881.746	3093
881.872	3123
881.999	3104
882.125	3169
882.252	3268
882.378	3329
882.505	3481
882.631	3317
882.757	3150
882.883	3249
883.01	3249
883.136	3226
883.262	3100
883.388	3135
883.514	3332
883.64	3393
883.766	3355
883.892	3241
884.018	3287
884.143	3473
884.269	3561
884.395	3256
884.52	3195
884.646	3184
884.772	3192
884.897	3131
885.023	3249
885.148	3359
885.274	3439
885.399	3416
885.524	3325
885.65	3272
885.775	3397
885.9	3291
886.025	3431
886.15	3416
886.275	3336
886.4	3241
886.525	3348
886.65	3306
886.775	3306
886.9	3526
887.025	3660
887.149	3462
887.274	3275
887.399	3207
887.523	3230
887.648	3218
887.773	3218
887.897	3416
888.021	3435
888.146	3359
888.27	3454
888.395	3614
888.519	3462
888.643	3492
888.767	3519
888.891	3355
889.015	3298
889.139	3325
889.263	3325
889.387	3428
889.511	3564
889.635	3534
889.759	3378
889.883	3382
890.006	3416
890.13	3534
890.254	3313
890.377	3359
890.501	3260
890.624	3249
890.748	3321
890.871	3233
890.995	3119
891.118	3097
891.241	3226
891.364	3268
891.488	3367
891.611	3188
891.734	3268
891.857	3313
891.98	3287
892.103	3378
892.226	3298
892.349	3275
892.471	3081
892.594	3302
892.717	3298
892.839	3306
892.962	3348
893.085	3443
893.207	3329
893.33	3192
893.452	3230
893.575	3355
893.697	3275
893.819	3553
893.941	3538
894.064	3473
894.186	3355
894.308	3340
894.43	3515
894.552	3561
894.674	3526
894.796	3298
894.918	3317
895.04	3313
895.161	3443
895.283	3405
895.405	3348
895.526	3382
895.648	3462
895.769	3458
895.891	3485
896.012	3519
896.134	3568
896.255	3431
896.376	3424
896.498	3397
896.619	3462
896.74	3397
896.861	3431
896.982	3709
897.103	3884
897.224	3644
897.345	3557
897.466	3473
897.587	3549
897.708	3648
897.828	3564
897.949	3424
898.07	3348
898.19	3458
898.311	3622
898.431	3477
898.552	3557
898.672	3629
898.792	3606
898.913	3557
899.033	3481
899.153	3329
899.273	3233
899.393	3306
899.513	3374
899.633	3340
899.753	3374
899.873	3355
899.993	3435
900.113	3363
900.232	3462
900.352	3401
900.472	3310
900.591	3245
900.711	3321
900.83	3291
900.95	3458
901.069	3568
901.189	3374
901.308	3222
901.427	3108
901.546	3199
901.665	3340
901.784	3351
901.904	3241
902.023	3199
902.141	3028
902.26	3039
902.379	3135
902.498	3112
902.617	3135
902.735	3230
902.854	3279
902.973	3226
903.091	3051
903.21	3077
903.328	3176
903.446	3157
903.565	3157
903.683	3256
903.801	3161
903.919	3264
904.038	3344
904.156	3226
904.274	3294
904.392	3253
904.51	3287
904.627	3332
904.745	3500
904.863	3538
904.981	3275
905.098	3207
905.216	3272
905.334	3367
905.451	3329
905.569	3389
905.686	3477
905.803	3507
905.921	3374
906.038	3450
906.155	3416
906.272	3348
906.389	3382
906.506	3294
906.623	3272
906.74	3302
906.857	3222
906.974	3249
907.091	3477
907.208	3622
907.324	3507
907.441	3447
907.557	3256
907.674	3275
907.79	3264
907.907	3340
908.023	3443
908.139	3416
908.256	3355
908.372	3386
908.488	3389
908.604	3317
908.72	3253
908.836	3329
908.952	3382
909.068	3359
909.184	3542
909.3	3416
909.415	3538
909.531	3526
909.647	3306
909.762	3344
909.878	3291
909.993	3443
910.108	3370
910.224	3344
910.339	3401
910.454	3374
910.57	3329
910.685	3291
910.8	3641
910.915	3545
911.03	3473
911.145	3313
911.259	3256
911.374	3344
911.489	3283
911.604	3302
911.718	3157
911.833	3207
911.947	3066
912.062	3043
912.176	3138
912.291	3245
912.405	3256
912.519	3454
912.633	3515
912.748	3382
912.862	3317
912.976	3214
913.09	3089
913.204	3188
913.318	3264
913.431	3351
913.545	3359
913.659	3447
913.772	3359
913.886	3272
914	3253
914.113	3351
914.226	3462
914.34	3370
914.453	3233
914.566	3458
914.68	3294
914.793	3378
914.906	3161
915.019	3157
915.132	3093
915.245	3245
915.358	3249
915.47	3260
915.583	3298
915.696	3336
915.809	3431
915.921	3450
916.034	3313
916.146	3329
916.259	3260
916.371	3382
916.483	3409
916.595	3310
916.708	3340
916.82	3393
916.932	3389
917.044	3382
917.156	3405
917.268	3279
917.38	3367
917.491	3367
917.603	3389
917.715	3496
917.826	3515
917.938	3401
918.049	3317
918.161	3492
918.272	3595
918.384	3595
918.495	3545
918.606	3389
918.717	3306
918.828	3374
918.939	3458
919.05	3359
919.161	3412
919.272	3218
919.383	3313
919.494	3549
919.604	3740
919.715	3530
919.826	3450
919.936	3496
920.047	3637
920.157	3622
920.267	3800
920.378	3637
920.488	3614
920.598	3838
920.708	3979
920.818	3873
920.928	3842
921.038	4086
921.148	4055
921.258	3751
921.368	3667
921.477	3663
921.587	3595
921.697	3500
921.806	3663
921.916	3538
922.025	3397
922.134	3378
922.244	3344
922.353	3458
922.462	3348
922.571	3291
922.68	3150
922.789	3108
922.898	3195
923.007	3142
923.116	3214
923.224	3214
923.333	3214
923.442	3142
923.55	3135
923.659	3222
923.767	3222
923.876	3195
923.984	3268
924.092	3150
924.201	3226
924.309	3264
924.417	3317
924.525	3264
924.633	3283
924.741	4249
924.849	3116
924.956	3306
925.064	3150
925.172	3070
925.279	3116
925.387	3222
925.494	3264
925.602	3409
925.709	3397
925.816	3233
925.924	3317
926.031	3435
926.138	3370
926.245	3386
926.352	3291
926.459	3439
926.566	3504
926.673	3359
926.779	3298
926.886	3287
926.993	3192
927.099	3180
927.206	3146
927.312	3154
927.419	3237
927.525	3253
927.631	3279
927.737	3169
927.843	3165
927.95	3066
928.056	3188
928.162	3218
928.267	3283
928.373	3819
928.479	3325
928.585	3089
928.69	3233
928.796	3283
928.901	3256
929.007	3100
929.112	3222
929.218	3226
929.323	3173
929.428	3161
929.533	3374
929.638	3154
929.743	3226
929.848	3302
929.953	3275
930.058	3169
930.163	3009
930.267	3097
930.372	3237
930.477	3043
930.581	3348
930.685	3226
930.79	3097
930.894	3157
930.998	3108
931.103	3306
931.207	2998
931.311	2963
931.415	2937
931.519	2792
931.623	2861
