Data from test_V78500241_867.txt Node
Date: Fri Mar 25 16:21:12 CST 2022
User: usil
Spectrometer: V785-0024
Trigger mode: 0
Integration Time (sec): 4.000000E-1
Scans to average: 1
Nonlinearity correction enabled: false
Boxcar width: 0
Storing dark spectrum: false
XAxis mode: Wavelengths
Number of Pixels in Spectrum: 1024
>>>>>Begin Spectral Data<<<<<
801.071	2910
801.214	2906
801.356	2883
801.499	2895
801.641	2857
801.783	2941
801.926	3074
802.068	2948
802.211	2998
802.353	3032
802.496	2960
802.638	2986
802.78	3017
802.923	3085
803.065	2971
803.208	2868
803.35	2902
803.492	2929
803.635	2944
803.777	2743
803.919	2857
804.061	3165
804.204	2975
804.346	2922
804.488	2823
804.63	2986
804.773	2902
804.915	2922
805.057	3066
805.199	2910
805.341	2979
805.483	3013
805.626	3017
805.768	2971
805.91	3097
806.052	3127
806.194	3047
806.336	3207
806.478	3005
806.62	2948
806.762	2963
806.904	3051
807.046	3165
807.188	2979
807.33	2929
807.472	3001
807.614	2906
807.756	2982
807.898	2941
808.04	2891
808.182	2948
808.324	2906
808.465	2872
808.607	2876
808.749	2785
808.891	2861
809.033	2975
809.174	2937
809.316	2872
809.458	2861
809.6	2762
809.741	2762
809.883	2766
810.025	2845
810.166	2845
810.308	2796
810.45	2853
810.591	2800
810.733	2758
810.875	2807
811.016	2773
811.158	2754
811.299	2781
811.441	2906
811.582	2883
811.724	2823
811.865	2845
812.007	2937
812.148	2853
812.29	2864
812.431	2922
812.573	2922
812.714	2971
812.855	3039
812.997	3039
813.138	3127
813.279	3009
813.421	2963
813.562	2975
813.703	2880
813.845	2861
813.986	2792
814.127	2750
814.268	2796
814.41	2861
814.551	2838
814.692	2845
814.833	2815
814.974	2883
815.115	2960
815.256	2819
815.397	2788
815.539	2891
815.68	2727
815.821	2819
815.962	2933
816.103	2906
816.244	2899
816.385	2849
816.526	2975
816.666	2910
816.807	2705
816.948	2895
817.089	2891
817.23	2811
817.371	2823
817.512	2800
817.653	2834
817.793	2819
817.934	2906
818.075	2937
818.216	3020
818.356	3032
818.497	2849
818.638	2777
818.778	2845
818.919	2769
819.06	2731
819.2	2876
819.341	2815
819.481	2807
819.622	2929
819.762	3112
819.903	3055
820.043	2925
820.184	2925
820.324	2906
820.465	3055
820.605	3013
820.746	3024
820.886	2922
821.026	3066
821.167	3165
821.307	3287
821.447	3256
821.588	3226
821.728	3207
821.868	3184
822.008	3066
822.149	3176
822.289	3245
822.429	3039
822.569	3089
822.709	3184
822.849	3024
822.99	3077
823.13	3176
823.27	3199
823.41	3100
823.55	3146
823.69	3138
823.83	3195
823.97	3081
824.11	2994
824.25	2994
824.389	3070
824.529	3123
824.669	3081
824.809	3173
824.949	3241
825.089	3195
825.228	3154
825.368	3055
825.508	2944
825.648	2982
825.787	3024
825.927	3020
826.067	2922
826.206	2979
826.346	3085
826.485	3081
826.625	3131
826.765	3264
826.904	3233
827.044	2994
827.183	2918
827.323	2864
827.462	2979
827.601	2887
827.741	2899
827.88	2960
828.02	2815
828.159	2986
828.298	3070
828.437	3112
828.577	3055
828.716	3230
828.855	3058
828.994	2902
829.134	2895
829.273	2971
829.412	2864
829.551	2853
829.69	2891
829.829	2952
829.968	3127
830.107	3051
830.246	3058
830.385	2910
830.524	2861
830.663	2830
830.802	2720
830.941	2651
831.08	2655
831.219	2743
831.357	2739
831.496	2914
831.635	2705
831.774	2670
831.913	2655
832.051	2526
832.19	2564
832.329	2693
832.467	2507
832.606	2492
832.744	2556
832.883	2590
833.022	2568
833.16	2674
833.299	2667
833.437	2708
833.576	2701
833.714	2670
833.852	2720
833.991	2705
834.129	2823
834.267	2815
834.406	2766
834.544	2842
834.682	2864
834.821	2838
834.959	3085
835.097	2895
835.235	3036
835.373	3032
835.511	3013
835.65	2925
835.788	2937
835.926	2845
836.064	2815
836.202	2815
836.34	3085
836.478	3108
836.615	3013
836.753	3123
836.891	3241
837.029	3165
837.167	3127
837.305	3077
837.443	2979
837.58	2963
837.718	3085
837.856	3051
837.993	3020
838.131	3100
838.269	3116
838.406	3081
838.544	3070
838.681	2956
838.819	2906
838.956	2842
839.094	2819
839.231	2891
839.369	2998
839.506	3382
839.643	3203
839.781	3005
839.918	2982
840.055	3039
840.193	3051
840.33	3074
840.467	3123
840.604	3154
840.742	3386
840.879	3005
841.016	3013
841.153	3127
841.29	3317
841.427	3275
841.564	3264
841.701	3283
841.838	3237
841.975	3161
842.112	3195
842.249	3089
842.385	3005
842.522	3245
842.659	3055
842.796	3043
842.933	3077
843.069	3066
843.206	3058
843.343	3173
843.479	3146
843.616	3127
843.752	2910
843.889	2853
844.025	3055
844.162	2857
844.298	3028
844.435	2922
844.571	2887
844.708	3116
844.844	3154
844.98	3253
845.117	3207
845.253	3024
845.389	2998
845.525	3066
845.661	3081
845.798	3001
845.934	3116
846.07	3028
846.206	3260
846.342	3291
846.478	3199
846.614	3119
846.75	3051
846.886	2994
847.022	3241
847.158	3100
847.294	3230
847.429	3214
847.565	3188
847.701	3466
847.837	3009
847.972	3017
848.108	3138
848.244	3108
848.379	2975
848.515	2952
848.65	2914
848.786	2902
848.921	3036
849.057	3116
849.192	3146
849.328	3070
849.463	3108
849.598	3058
849.734	3020
849.869	2952
850.004	2941
850.14	2948
850.275	2895
850.41	2838
850.545	2902
850.68	2922
850.815	2929
850.95	2944
851.085	3207
851.22	3123
851.355	3047
851.49	3001
851.625	2971
851.76	3028
851.895	2906
852.03	2887
852.165	3009
852.299	3127
852.434	3211
852.569	3116
852.703	3150
852.838	3233
852.973	3329
853.107	3287
853.242	3119
853.376	3066
853.511	2994
853.645	3032
853.78	3214
853.914	3097
854.048	3070
854.183	3074
854.317	3142
854.451	3279
854.585	3089
854.72	3100
854.854	3199
854.988	3074
855.122	3066
855.256	2971
855.39	3104
855.524	3249
855.658	3165
855.792	3142
855.926	3169
856.06	3211
856.194	3218
856.327	3173
856.461	3055
856.595	3074
856.729	3093
856.862	3226
856.996	3154
857.13	3176
857.263	3214
857.397	3222
857.53	3108
857.664	3222
857.797	3249
857.931	3233
858.064	3165
858.197	3214
858.331	3176
858.464	3116
858.597	3005
858.731	3093
858.864	3169
858.997	3085
859.13	3150
859.263	3169
859.396	3207
859.529	3097
859.662	3062
859.795	3051
859.928	3131
860.061	3256
860.194	3302
860.327	3138
860.46	3081
860.592	3195
860.725	3218
860.858	3260
860.99	3085
861.123	3017
861.256	3039
861.388	3142
861.521	3835
861.653	3039
861.786	2933
861.918	3001
862.05	3074
862.183	3085
862.315	3146
862.447	3195
862.58	3077
862.712	2925
862.844	2899
862.976	3017
863.108	2979
863.24	3283
863.372	2887
863.504	2971
863.636	2929
863.768	3024
863.9	2960
864.032	2880
864.164	2960
864.296	3032
864.428	3081
864.559	3055
864.691	3047
864.823	3055
864.954	3028
865.086	3028
865.217	2986
865.349	2956
865.48	2971
865.612	2998
865.743	3123
865.875	3020
866.006	2937
866.137	2952
866.269	2952
866.4	2941
866.531	2899
866.662	2868
866.793	2902
866.924	2891
867.055	2922
867.186	2914
867.317	2887
867.448	2834
867.579	2826
867.71	2868
867.841	2834
867.972	2914
868.103	2899
868.233	2899
868.364	2864
868.495	2937
868.625	3074
868.756	3135
868.886	2956
869.017	2994
869.147	3142
869.278	3161
869.408	3039
869.539	3013
869.669	3085
869.799	3058
869.929	3127
870.06	3119
870.19	3313
870.32	3294
870.45	3294
870.58	3370
870.71	3412
870.84	3431
870.97	3306
871.1	3237
871.23	3458
871.36	3420
871.489	3351
871.619	3355
871.749	3420
871.879	3420
872.008	3500
872.138	3317
872.267	3283
872.397	3108
872.526	3108
872.656	2975
872.785	3100
872.915	3192
873.044	3310
873.173	3199
873.303	3226
873.432	3241
873.561	3218
873.69	3104
873.819	3123
873.948	3192
874.077	3058
874.206	3043
874.335	3055
874.464	3180
874.593	3344
874.722	3249
874.851	3374
874.979	3336
875.108	3306
875.237	3214
875.365	3157
875.494	3180
875.623	3207
875.751	3093
875.88	3127
876.008	3195
876.136	3199
876.265	3389
876.393	3488
876.521	3405
876.65	3378
876.778	3351
876.906	3283
877.034	3188
877.162	3218
877.29	3195
877.418	3233
877.546	3218
877.674	3237
877.802	3260
877.93	3233
878.058	3157
878.185	3119
878.313	3199
878.441	3241
878.568	3085
878.696	3123
878.824	3256
878.951	3275
879.079	3439
879.206	3595
879.333	3420
879.461	3294
879.588	3359
879.715	3500
879.842	3553
879.97	3363
880.097	3127
880.224	3142
880.351	3165
880.478	3226
880.605	3184
880.732	3207
880.859	3485
880.986	3294
881.112	3321
881.239	3150
881.366	3093
881.493	3062
881.619	3043
881.746	3039
881.872	3070
881.999	3051
882.125	3150
882.252	3241
882.378	3287
882.505	3393
882.631	3241
882.757	3150
882.883	3237
883.01	3195
883.136	3184
883.262	3097
883.388	3116
883.514	3275
883.64	3359
883.766	3283
883.892	3192
884.018	3249
884.143	3416
884.269	3511
884.395	3207
884.52	3138
884.646	3195
884.772	3173
884.897	3081
885.023	3207
885.148	3340
885.274	3370
885.399	3374
885.524	3260
885.65	3268
885.775	3287
885.9	3245
886.025	3409
886.15	3393
886.275	3310
886.4	3260
886.525	3310
886.65	3279
886.775	3272
886.9	3504
887.025	3606
887.149	3389
887.274	3245
887.399	3199
887.523	3195
887.648	3173
887.773	3176
887.897	3386
888.021	3401
888.146	3283
888.27	3405
888.395	3549
888.519	3401
888.643	3416
888.767	3458
888.891	3313
889.015	3283
889.139	3291
889.263	3230
889.387	3393
889.511	3515
889.635	3439
889.759	3272
889.883	3256
890.006	3382
890.13	3488
890.254	3249
890.377	3344
890.501	3199
890.624	3146
890.748	3302
890.871	3150
890.995	3093
891.118	3039
891.241	3207
891.364	3214
891.488	3302
891.611	3180
891.734	3226
891.857	3275
891.98	3195
892.103	3340
892.226	3279
892.349	3207
892.471	3131
892.594	3256
892.717	3310
892.839	3272
892.962	3272
893.085	3370
893.207	3291
893.33	3154
893.452	3207
893.575	3317
893.697	3272
893.819	3462
893.941	3485
894.064	3462
894.186	3306
894.308	3268
894.43	3447
894.552	3549
894.674	3458
894.796	3283
894.918	3287
895.04	3253
895.161	3409
895.283	3397
895.405	3313
895.526	3367
895.648	3435
895.769	3412
895.891	3447
896.012	3477
896.134	3439
896.255	3374
896.376	3389
896.498	3393
896.619	3466
896.74	3393
896.861	3405
896.982	3641
897.103	3827
897.224	3595
897.345	3545
897.466	3405
897.587	3492
897.708	3568
897.828	3561
897.949	3458
898.07	3321
898.19	3412
898.311	3618
898.431	3481
898.552	3523
898.672	3561
898.792	3587
898.913	3519
899.033	3428
899.153	3279
899.273	3211
899.393	3294
899.513	3275
899.633	3306
899.753	3348
899.873	3291
899.993	3374
900.113	3344
900.232	3389
900.352	3306
900.472	3268
900.591	3192
900.711	3291
900.83	3222
900.95	3389
901.069	3500
901.189	3355
901.308	3199
901.427	3146
901.546	3180
901.665	3302
901.784	3321
901.904	3184
902.023	3138
902.141	3001
902.26	2990
902.379	3154
902.498	3089
902.617	3039
902.735	3195
902.854	3188
902.973	3192
903.091	3028
903.21	3062
903.328	3154
903.446	3112
903.565	3104
903.683	3203
903.801	3112
903.919	3226
904.038	3279
904.156	3184
904.274	3279
904.392	3291
904.51	3287
904.627	3332
904.745	3469
904.863	3477
904.981	3275
905.098	3173
905.216	3199
905.334	3272
905.451	3317
905.569	3306
905.686	3409
905.803	3469
905.921	3291
906.038	3424
906.155	3374
906.272	3272
906.389	3321
906.506	3245
906.623	3245
906.74	3294
906.857	3222
906.974	3230
907.091	3409
907.208	3545
907.324	3450
907.441	3397
907.557	3192
907.674	3237
907.79	3222
907.907	3237
908.023	3355
908.139	3359
908.256	3332
908.372	3409
908.488	3344
908.604	3249
908.72	3192
908.836	3294
908.952	3302
909.068	3325
909.184	3458
909.3	3348
909.415	3485
909.531	3443
909.647	3294
909.762	3313
909.878	3268
909.993	3359
910.108	3336
910.224	3336
910.339	3409
910.454	3317
910.57	3279
910.685	3260
910.8	3603
910.915	3523
911.03	3443
911.145	3272
911.259	3279
911.374	3268
911.489	3283
911.604	3218
911.718	3077
911.833	3165
911.947	3013
912.062	2982
912.176	3176
912.291	3180
912.405	3226
912.519	3424
912.633	3473
912.748	3329
912.862	3241
912.976	3169
913.09	3070
913.204	3146
913.318	3199
913.431	3336
913.545	3340
913.659	3424
913.772	3340
913.886	3176
914	3199
914.113	3374
914.226	3416
914.34	3378
914.453	3214
914.566	3409
914.68	3279
914.793	3310
914.906	3112
915.019	3093
915.132	3062
915.245	3192
915.358	3211
915.47	3207
915.583	3260
915.696	3287
915.809	3428
915.921	3416
916.034	3237
916.146	3268
916.259	3241
916.371	3351
916.483	3351
916.595	3279
916.708	3336
916.82	3313
916.932	3306
917.044	3317
917.156	3344
917.268	3268
917.38	3298
917.491	3325
917.603	3340
917.715	3435
917.826	3496
917.938	3370
918.049	3249
918.161	3412
918.272	3576
918.384	3557
918.495	3488
918.606	3340
918.717	3249
918.828	3401
918.939	3428
919.05	3283
919.161	3363
919.272	3157
919.383	3306
919.494	3477
919.604	3675
919.715	3454
919.826	3409
919.936	3477
920.047	3584
920.157	3534
920.267	3724
920.378	3591
920.488	3599
920.598	3762
920.708	3926
920.818	3823
920.928	3816
921.038	4025
921.148	4029
921.258	3736
921.368	3629
921.477	3534
921.587	3530
921.697	3466
921.806	3644
921.916	3504
922.025	3359
922.134	3340
922.244	3272
922.353	3439
922.462	3313
922.571	3230
922.68	3093
922.789	3058
922.898	3127
923.007	3100
923.116	3192
923.224	3161
923.333	3214
923.442	3058
923.55	3077
923.659	3161
923.767	3222
923.876	3146
923.984	3249
924.092	3104
924.201	3195
924.309	3184
924.417	3230
924.525	3184
924.633	3233
924.741	4166
924.849	3070
924.956	3272
925.064	3089
925.172	3039
925.279	3108
925.387	3180
925.494	3207
925.602	3317
925.709	3317
925.816	3218
925.924	3237
926.031	3386
926.138	3329
926.245	3351
926.352	3268
926.459	3386
926.566	3473
926.673	3306
926.779	3233
926.886	3260
926.993	3188
927.099	3135
927.206	3119
927.312	3097
927.419	3226
927.525	3211
927.631	3233
927.737	3165
927.843	3123
927.95	3028
928.056	3138
928.162	3165
928.267	3241
928.373	3766
928.479	3336
928.585	3093
928.69	3207
928.796	3253
928.901	3218
929.007	3066
929.112	3214
929.218	3157
929.323	3184
929.428	3119
929.533	3287
929.638	3104
929.743	3150
929.848	3279
929.953	3230
930.058	3165
930.163	2990
930.267	3024
930.372	3184
930.477	3051
930.581	3348
930.685	3192
930.79	3043
930.894	3081
930.998	3077
931.103	3275
931.207	2967
931.311	2895
931.415	2922
931.519	2777
931.623	2781
