Data from test_V78500241_43.txt Node
Date: Fri Mar 25 16:15:30 CST 2022
User: usil
Spectrometer: V785-0024
Trigger mode: 0
Integration Time (sec): 4.000000E-1
Scans to average: 1
Nonlinearity correction enabled: false
Boxcar width: 0
Storing dark spectrum: false
XAxis mode: Wavelengths
Number of Pixels in Spectrum: 1024
>>>>>Begin Spectral Data<<<<<
801.071	2956
801.214	2967
801.356	2925
801.499	2899
801.641	2906
801.783	2979
801.926	3127
802.068	2979
802.211	2994
802.353	3074
802.496	3047
802.638	3043
802.78	3070
802.923	3100
803.065	3070
803.208	2929
803.35	2929
803.492	2933
803.635	2971
803.777	2788
803.919	2880
804.061	3214
804.204	2960
804.346	2952
804.488	2902
804.63	3020
804.773	2918
804.915	2933
805.057	3077
805.199	2967
805.341	3017
805.483	3116
805.626	3032
805.768	3017
805.91	3108
806.052	3157
806.194	3081
806.336	3260
806.478	3085
806.62	3005
806.762	3032
806.904	3100
807.046	3199
807.188	2982
807.33	2960
807.472	3028
807.614	2937
807.756	2998
807.898	2937
808.04	2933
808.182	3039
808.324	2990
808.465	2929
808.607	2922
808.749	2845
808.891	2887
809.033	3039
809.174	3013
809.316	2937
809.458	2937
809.6	2815
809.741	2819
809.883	2788
810.025	2895
810.166	2906
810.308	2876
810.45	2910
810.591	2830
810.733	2823
810.875	2845
811.016	2796
811.158	2811
811.299	2826
811.441	2948
811.582	2906
811.724	2880
811.865	2872
812.007	2929
812.148	2941
812.29	2887
812.431	2910
812.573	2967
812.714	2982
812.855	3055
812.997	3074
813.138	3188
813.279	3043
813.421	3009
813.562	3001
813.703	2918
813.845	2937
813.986	2830
814.127	2727
814.268	2849
814.41	2883
814.551	2838
814.692	2918
814.833	2849
814.974	2922
815.115	2990
815.256	2876
815.397	2842
815.539	2880
815.68	2830
815.821	2845
815.962	2960
816.103	2994
816.244	2902
816.385	2906
816.526	3005
816.666	2967
816.807	2792
816.948	2929
817.089	2933
817.23	2891
817.371	2842
817.512	2807
817.653	2842
817.793	2864
817.934	2922
818.075	2975
818.216	3013
818.356	3074
818.497	2906
818.638	2800
818.778	2853
818.919	2811
819.06	2830
819.2	2914
819.341	2826
819.481	2857
819.622	2967
819.762	3142
819.903	3066
820.043	2956
820.184	2910
820.324	2982
820.465	3039
820.605	3020
820.746	3074
820.886	2971
821.026	3123
821.167	3173
821.307	3298
821.447	3321
821.588	3268
821.728	3237
821.868	3253
822.008	3081
822.149	3199
822.289	3256
822.429	3135
822.569	3127
822.709	3214
822.849	3081
822.99	3116
823.13	3188
823.27	3226
823.41	3161
823.55	3184
823.69	3203
823.83	3211
823.97	3165
824.11	3047
824.25	3020
824.389	3119
824.529	3119
824.669	3112
824.809	3245
824.949	3294
825.089	3256
825.228	3214
825.368	3062
825.508	2994
825.648	2979
825.787	3013
825.927	3070
826.067	3024
826.206	2982
826.346	3093
826.485	3104
826.625	3173
826.765	3272
826.904	3226
827.044	3032
827.183	2982
827.323	2868
827.462	3020
827.601	2944
827.741	2986
827.88	2979
828.02	2883
828.159	3009
828.298	3112
828.437	3176
828.577	3081
828.716	3279
828.855	3131
828.994	2960
829.134	2929
829.273	2960
829.412	2899
829.551	2922
829.69	2956
829.829	3032
829.968	3184
830.107	3066
830.246	3062
830.385	2975
830.524	2906
830.663	2876
830.802	2785
830.941	2667
831.08	2693
831.219	2792
831.357	2777
831.496	2963
831.635	2746
831.774	2674
831.913	2708
832.051	2571
832.19	2610
832.329	2720
832.467	2579
832.606	2488
832.744	2625
832.883	2564
833.022	2598
833.16	2686
833.299	2697
833.437	2731
833.576	2735
833.714	2762
833.852	2758
833.991	2796
834.129	2857
834.267	2842
834.406	2857
834.544	2933
834.682	2925
834.821	2902
834.959	3108
835.097	2902
835.235	3093
835.373	3039
835.511	3017
835.65	2963
835.788	2990
835.926	2872
836.064	2853
836.202	2883
836.34	3097
836.478	3214
836.615	3074
836.753	3169
836.891	3268
837.029	3218
837.167	3146
837.305	3093
837.443	3131
837.58	2952
837.718	3173
837.856	3074
837.993	3085
838.131	3165
838.269	3161
838.406	3123
838.544	3123
838.681	2963
838.819	2952
838.956	2842
839.094	2868
839.231	2918
839.369	3020
839.506	3416
839.643	3268
839.781	3058
839.918	2982
840.055	3093
840.193	3108
840.33	3077
840.467	3116
840.604	3226
840.742	3450
840.879	3138
841.016	3085
841.153	3138
841.29	3363
841.427	3348
841.564	3302
841.701	3363
841.838	3211
841.975	3211
842.112	3291
842.249	3085
842.385	3119
842.522	3302
842.659	3104
842.796	3085
842.933	3131
843.069	3119
843.206	3055
843.343	3199
843.479	3100
843.616	3176
843.752	2922
843.889	2895
844.025	3104
844.162	2887
844.298	3116
844.435	2979
844.571	2956
844.708	3116
844.844	3161
844.98	3245
845.117	3230
845.253	3093
845.389	3005
845.525	3157
845.661	3127
845.798	3074
845.934	3165
846.07	3093
846.206	3260
846.342	3367
846.478	3275
846.614	3150
846.75	3093
846.886	3051
847.022	3268
847.158	3165
847.294	3241
847.429	3272
847.565	3214
847.701	3545
847.837	3074
847.972	3039
848.108	3195
848.244	3184
848.379	3036
848.515	2982
848.65	2986
848.786	2990
848.921	3051
849.057	3142
849.192	3199
849.328	3112
849.463	3157
849.598	3070
849.734	3043
849.869	3009
850.004	2967
850.14	2975
850.275	2933
850.41	2872
850.545	2902
850.68	2975
850.815	2975
850.95	3013
851.085	3226
851.22	3176
851.355	3051
851.49	3017
851.625	3058
851.76	3036
851.895	2998
852.03	2933
852.165	3058
852.299	3097
852.434	3214
852.569	3154
852.703	3207
852.838	3306
852.973	3367
853.107	3355
853.242	3165
853.376	3142
853.511	3032
853.645	3093
853.78	3268
853.914	3142
854.048	3142
854.183	3104
854.317	3222
854.451	3317
854.585	3192
854.72	3093
854.854	3260
854.988	3081
855.122	3116
855.256	2998
855.39	3150
855.524	3306
855.658	3199
855.792	3211
855.926	3233
856.06	3237
856.194	3313
856.327	3218
856.461	3108
856.595	3146
856.729	3146
856.862	3237
856.996	3199
857.13	3222
857.263	3249
857.397	3332
857.53	3203
857.664	3249
857.797	3256
857.931	3298
858.064	3222
858.197	3253
858.331	3199
858.464	3138
858.597	3024
858.731	3157
858.864	3199
858.997	3077
859.13	3131
859.263	3180
859.396	3245
859.529	3135
859.662	3127
859.795	3081
859.928	3199
860.061	3279
860.194	3298
860.327	3184
860.46	3127
860.592	3291
860.725	3287
860.858	3302
860.99	3176
861.123	3074
861.256	3058
861.388	3165
861.521	3876
861.653	3039
861.786	3024
861.918	3051
862.05	3062
862.183	3104
862.315	3184
862.447	3203
862.58	3127
862.712	2979
862.844	2910
862.976	3039
863.108	3013
863.24	3367
863.372	2902
863.504	3013
863.636	2982
863.768	3081
863.9	3017
864.032	2944
864.164	2990
864.296	3055
864.428	3089
864.559	3123
864.691	3104
864.823	3097
864.954	3058
865.086	3093
865.217	3051
865.349	2971
865.48	3058
865.612	3089
865.743	3161
865.875	3062
866.006	3005
866.137	3001
866.269	3009
866.4	2933
866.531	2944
866.662	2914
866.793	2982
866.924	2937
867.055	3001
867.186	2979
867.317	2944
867.448	2880
867.579	2922
867.71	2872
867.841	2842
867.972	2941
868.103	2933
868.233	2910
868.364	2895
868.495	2933
868.625	3100
868.756	3176
868.886	2975
869.017	3081
869.147	3230
869.278	3173
869.408	3077
869.539	3028
869.669	3123
869.799	3066
869.929	3188
870.06	3142
870.19	3370
870.32	3294
870.45	3348
870.58	3435
870.71	3511
870.84	3473
870.97	3344
871.1	3245
871.23	3519
871.36	3496
871.489	3397
871.619	3462
871.749	3435
871.879	3477
872.008	3507
872.138	3412
872.267	3329
872.397	3192
872.526	3161
872.656	3024
872.785	3154
872.915	3260
873.044	3351
873.173	3264
873.303	3260
873.432	3302
873.561	3287
873.69	3169
873.819	3173
873.948	3237
874.077	3161
874.206	3093
874.335	3131
874.464	3230
874.593	3389
874.722	3291
874.851	3466
874.979	3401
875.108	3363
875.237	3222
875.365	3203
875.494	3222
875.623	3272
875.751	3123
875.88	3131
876.008	3230
876.136	3253
876.265	3431
876.393	3572
876.521	3488
876.65	3439
876.778	3367
876.906	3275
877.034	3184
877.162	3249
877.29	3233
877.418	3241
877.546	3291
877.674	3279
877.802	3241
877.93	3253
878.058	3237
878.185	3131
878.313	3260
878.441	3237
878.568	3127
878.696	3230
878.824	3313
878.951	3348
879.079	3485
879.206	3663
879.333	3492
879.461	3363
879.588	3370
879.715	3515
879.842	3629
879.97	3435
880.097	3218
880.224	3188
880.351	3226
880.478	3249
880.605	3260
880.732	3218
880.859	3584
880.986	3344
881.112	3370
881.239	3241
881.366	3108
881.493	3058
881.619	3081
881.746	3093
881.872	3135
881.999	3135
882.125	3214
882.252	3256
882.378	3310
882.505	3485
882.631	3340
882.757	3165
882.883	3294
883.01	3298
883.136	3230
883.262	3116
883.388	3169
883.514	3348
883.64	3401
883.766	3367
883.892	3207
884.018	3279
884.143	3477
884.269	3561
884.395	3256
884.52	3176
884.646	3253
884.772	3165
884.897	3138
885.023	3230
885.148	3367
885.274	3477
885.399	3397
885.524	3321
885.65	3275
885.775	3302
885.9	3317
886.025	3500
886.15	3405
886.275	3355
886.4	3272
886.525	3351
886.65	3325
886.775	3291
886.9	3526
887.025	3724
887.149	3420
887.274	3306
887.399	3241
887.523	3249
887.648	3195
887.773	3233
887.897	3469
888.021	3450
888.146	3325
888.27	3424
888.395	3576
888.519	3469
888.643	3500
888.767	3496
888.891	3336
889.015	3340
889.139	3329
889.263	3313
889.387	3462
889.511	3564
889.635	3488
889.759	3310
889.883	3298
890.006	3443
890.13	3572
890.254	3313
890.377	3401
890.501	3245
890.624	3222
890.748	3359
890.871	3253
890.995	3207
891.118	3085
891.241	3199
891.364	3291
891.488	3340
891.611	3264
891.734	3317
891.857	3313
891.98	3272
892.103	3370
892.226	3291
892.349	3241
892.471	3180
892.594	3256
892.717	3393
892.839	3298
892.962	3298
893.085	3393
893.207	3329
893.33	3230
893.452	3237
893.575	3416
893.697	3310
893.819	3526
893.941	3549
894.064	3492
894.186	3317
894.308	3325
894.43	3481
894.552	3599
894.674	3504
894.796	3325
894.918	3367
895.04	3283
895.161	3496
895.283	3420
895.405	3374
895.526	3420
895.648	3462
895.769	3450
895.891	3485
896.012	3523
896.134	3511
896.255	3473
896.376	3397
896.498	3416
896.619	3511
896.74	3416
896.861	3424
896.982	3766
897.103	3911
897.224	3698
897.345	3553
897.466	3473
897.587	3515
897.708	3675
897.828	3591
897.949	3488
898.07	3370
898.19	3469
898.311	3675
898.431	3488
898.552	3557
898.672	3648
898.792	3606
898.913	3564
899.033	3458
899.153	3332
899.273	3272
899.393	3332
899.513	3351
899.633	3367
899.753	3382
899.873	3344
899.993	3428
900.113	3386
900.232	3435
900.352	3382
900.472	3348
900.591	3230
900.711	3317
900.83	3268
900.95	3519
901.069	3591
901.189	3389
901.308	3192
901.427	3180
901.546	3237
901.665	3336
901.784	3359
901.904	3260
902.023	3211
902.141	3013
902.26	3036
902.379	3142
902.498	3119
902.617	3089
902.735	3268
902.854	3279
902.973	3256
903.091	3104
903.21	3077
903.328	3195
903.446	3165
903.565	3176
903.683	3241
903.801	3195
903.919	3272
904.038	3329
904.156	3188
904.274	3344
904.392	3321
904.51	3348
904.627	3348
904.745	3454
904.863	3507
904.981	3283
905.098	3203
905.216	3283
905.334	3348
905.451	3374
905.569	3378
905.686	3447
905.803	3469
905.921	3313
906.038	3500
906.155	3393
906.272	3317
906.389	3332
906.506	3310
906.623	3325
906.74	3310
906.857	3272
906.974	3302
907.091	3526
907.208	3641
907.324	3515
907.441	3458
907.557	3287
907.674	3325
907.79	3237
907.907	3332
908.023	3409
908.139	3397
908.256	3359
908.372	3439
908.488	3393
908.604	3306
908.72	3310
908.836	3317
908.952	3313
909.068	3393
909.184	3538
909.3	3435
909.415	3591
909.531	3545
909.647	3317
909.762	3359
909.878	3287
909.993	3389
910.108	3363
910.224	3382
910.339	3435
910.454	3374
910.57	3378
910.685	3264
910.8	3637
910.915	3603
911.03	3488
911.145	3340
911.259	3336
911.374	3348
911.489	3275
911.604	3230
911.718	3180
911.833	3176
911.947	3070
912.062	3051
912.176	3157
912.291	3264
912.405	3294
912.519	3485
912.633	3534
912.748	3378
912.862	3310
912.976	3188
913.09	3116
913.204	3161
913.318	3230
913.431	3344
913.545	3355
913.659	3462
913.772	3420
913.886	3253
914	3249
914.113	3412
914.226	3481
914.34	3416
914.453	3226
914.566	3462
914.68	3340
914.793	3344
914.906	3184
915.019	3169
915.132	3116
915.245	3226
915.358	3272
915.47	3291
915.583	3317
915.696	3310
915.809	3416
915.921	3485
916.034	3313
916.146	3306
916.259	3260
916.371	3458
916.483	3382
916.595	3313
916.708	3374
916.82	3416
916.932	3431
917.044	3409
917.156	3386
917.268	3302
917.38	3329
917.491	3409
917.603	3416
917.715	3488
917.826	3485
917.938	3389
918.049	3317
918.161	3458
918.272	3622
918.384	3625
918.495	3564
918.606	3351
918.717	3332
918.828	3473
918.939	3485
919.05	3348
919.161	3393
919.272	3245
919.383	3279
919.494	3568
919.604	3747
919.715	3511
919.826	3435
919.936	3477
920.047	3606
920.157	3584
920.267	3793
920.378	3625
920.488	3599
920.598	3854
920.708	4029
920.818	3873
920.928	3892
921.038	4032
921.148	4067
921.258	3736
921.368	3686
921.477	3603
921.587	3610
921.697	3504
921.806	3671
921.916	3614
922.025	3393
922.134	3397
922.244	3374
922.353	3469
922.462	3313
922.571	3241
922.68	3142
922.789	3123
922.898	3184
923.007	3157
923.116	3237
923.224	3218
923.333	3199
923.442	3123
923.55	3123
923.659	3161
923.767	3256
923.876	3150
923.984	3287
924.092	3131
924.201	3245
924.309	3268
924.417	3317
924.525	3253
924.633	3302
924.741	4200
924.849	3077
924.956	3294
925.064	3173
925.172	3062
925.279	3138
925.387	3283
925.494	3241
925.602	3405
925.709	3378
925.816	3249
925.924	3351
926.031	3382
926.138	3336
926.245	3424
926.352	3329
926.459	3488
926.566	3496
926.673	3363
926.779	3279
926.886	3287
926.993	3154
927.099	3184
927.206	3154
927.312	3146
927.419	3237
927.525	3298
927.631	3325
927.737	3146
927.843	3207
927.95	3089
928.056	3138
928.162	3249
928.267	3287
928.373	3812
928.479	3329
928.585	3085
928.69	3233
928.796	3310
928.901	3233
929.007	3074
929.112	3214
929.218	3218
929.323	3142
929.428	3199
929.533	3367
929.638	3146
929.743	3180
929.848	3291
929.953	3260
930.058	3184
930.163	3043
930.267	3070
930.372	3237
930.477	3116
930.581	3378
930.685	3165
930.79	3077
930.894	3131
930.998	3116
931.103	3363
931.207	2952
931.311	2937
931.415	2963
931.519	2826
931.623	2819
