Data from test_V78500241_1480.txt Node
Date: Fri Mar 25 16:25:27 CST 2022
User: usil
Spectrometer: V785-0024
Trigger mode: 0
Integration Time (sec): 4.000000E-1
Scans to average: 1
Nonlinearity correction enabled: false
Boxcar width: 0
Storing dark spectrum: false
XAxis mode: Wavelengths
Number of Pixels in Spectrum: 1024
>>>>>Begin Spectral Data<<<<<
801.071	2929
801.214	2914
801.356	2887
801.499	2925
801.641	2883
801.783	2918
801.926	3058
802.068	2979
802.211	3013
802.353	3051
802.496	2975
802.638	3032
802.78	3036
802.923	3039
803.065	3024
803.208	2952
803.35	2956
803.492	2922
803.635	2925
803.777	2766
803.919	2864
804.061	3199
804.204	2990
804.346	2910
804.488	2872
804.63	3020
804.773	2895
804.915	2925
805.057	3070
805.199	2922
805.341	2960
805.483	3039
805.626	2986
805.768	2967
805.91	3047
806.052	3104
806.194	3043
806.336	3169
806.478	3047
806.62	2979
806.762	2960
806.904	3028
807.046	3150
807.188	3001
807.33	2918
807.472	2960
807.614	2929
807.756	2979
807.898	2956
808.04	2941
808.182	2982
808.324	2941
808.465	2883
808.607	2876
808.749	2815
808.891	2864
809.033	2986
809.174	2971
809.316	2941
809.458	2868
809.6	2766
809.741	2800
809.883	2785
810.025	2823
810.166	2842
810.308	2853
810.45	2842
810.591	2781
810.733	2754
810.875	2838
811.016	2750
811.158	2743
811.299	2781
811.441	2937
811.582	2887
811.724	2815
811.865	2823
812.007	2925
812.148	2883
812.29	2868
812.431	2899
812.573	2944
812.714	2960
812.855	3047
812.997	3074
813.138	3157
813.279	2979
813.421	2952
813.562	2944
813.703	2872
813.845	2906
813.986	2792
814.127	2766
814.268	2781
814.41	2842
814.551	2804
814.692	2838
814.833	2788
814.974	2876
815.115	2952
815.256	2845
815.397	2781
815.539	2883
815.68	2807
815.821	2811
815.962	2933
816.103	2929
816.244	2883
816.385	2861
816.526	2937
816.666	2868
816.807	2746
816.948	2895
817.089	2929
817.23	2876
817.371	2785
817.512	2792
817.653	2849
817.793	2826
817.934	2883
818.075	2982
818.216	2979
818.356	3028
818.497	2883
818.638	2762
818.778	2796
818.919	2811
819.06	2735
819.2	2849
819.341	2781
819.481	2785
819.622	2918
819.762	3089
819.903	3039
820.043	2902
820.184	2906
820.324	2861
820.465	3001
820.605	3024
820.746	3032
820.886	2899
821.026	3093
821.167	3184
821.307	3279
821.447	3275
821.588	3237
821.728	3245
821.868	3218
822.008	3077
822.149	3199
822.289	3245
822.429	3093
822.569	3112
822.709	3211
822.849	3051
822.99	3116
823.13	3154
823.27	3214
823.41	3138
823.55	3211
823.69	3123
823.83	3264
823.97	3116
824.11	3066
824.25	2998
824.389	3089
824.529	3157
824.669	3093
824.809	3184
824.949	3245
825.089	3287
825.228	3161
825.368	3032
825.508	2998
825.648	2990
825.787	3081
825.927	3039
826.067	3009
826.206	2986
826.346	3104
826.485	3119
826.625	3165
826.765	3294
826.904	3226
827.044	3036
827.183	2952
827.323	2925
827.462	2994
827.601	2933
827.741	2963
827.88	3017
828.02	2899
828.159	3017
828.298	3089
828.437	3165
828.577	3108
828.716	3317
828.855	3104
828.994	2979
829.134	2929
829.273	2948
829.412	2902
829.551	2899
829.69	2922
829.829	3036
829.968	3169
830.107	3028
830.246	3070
830.385	2963
830.524	2902
830.663	2857
830.802	2777
830.941	2682
831.08	2678
831.219	2796
831.357	2796
831.496	2990
831.635	2773
831.774	2674
831.913	2678
832.051	2602
832.19	2625
832.329	2731
832.467	2552
832.606	2533
832.744	2640
832.883	2632
833.022	2621
833.16	2678
833.299	2739
833.437	2716
833.576	2731
833.714	2739
833.852	2758
833.991	2781
834.129	2845
834.267	2880
834.406	2849
834.544	2902
834.682	2899
834.821	2918
834.959	3062
835.097	2922
835.235	3131
835.373	3032
835.511	3055
835.65	2979
835.788	3017
835.926	2876
836.064	2861
836.202	2876
836.34	3085
836.478	3188
836.615	3058
836.753	3150
836.891	3230
837.029	3199
837.167	3112
837.305	3112
837.443	3058
837.58	2998
837.718	3169
837.856	3119
837.993	3036
838.131	3123
838.269	3150
838.406	3119
838.544	3142
838.681	2982
838.819	2952
838.956	2849
839.094	2925
839.231	2952
839.369	3032
839.506	3397
839.643	3256
839.781	3043
839.918	3001
840.055	3077
840.193	3127
840.33	3108
840.467	3123
840.604	3184
840.742	3405
840.879	3039
841.016	3032
841.153	3150
841.29	3355
841.427	3325
841.564	3317
841.701	3332
841.838	3260
841.975	3214
842.112	3173
842.249	3123
842.385	3077
842.522	3329
842.659	3123
842.796	3093
842.933	3116
843.069	3070
843.206	3074
843.343	3199
843.479	3138
843.616	3188
843.752	2925
843.889	2910
844.025	3116
844.162	2929
844.298	3100
844.435	2967
844.571	2952
844.708	3123
844.844	3180
844.98	3256
845.117	3195
845.253	3100
845.389	3043
845.525	3135
845.661	3104
845.798	3066
845.934	3161
846.07	3074
846.206	3245
846.342	3344
846.478	3264
846.614	3100
846.75	3112
846.886	3077
847.022	3245
847.158	3150
847.294	3226
847.429	3256
847.565	3218
847.701	3523
847.837	3055
847.972	3055
848.108	3157
848.244	3161
848.379	2994
848.515	2963
848.65	2967
848.786	3005
848.921	3062
849.057	3089
849.192	3188
849.328	3108
849.463	3116
849.598	3135
849.734	3058
849.869	3009
850.004	2937
850.14	3024
850.275	3001
850.41	2857
850.545	2880
850.68	2941
850.815	2994
850.95	2990
851.085	3230
851.22	3116
851.355	3077
851.49	3058
851.625	3017
851.76	3074
851.895	2960
852.03	2956
852.165	3051
852.299	3165
852.434	3207
852.569	3184
852.703	3180
852.838	3241
852.973	3416
853.107	3386
853.242	3169
853.376	3108
853.511	2998
853.645	3047
853.78	3253
853.914	3131
854.048	3150
854.183	3112
854.317	3169
854.451	3294
854.585	3131
854.72	3127
854.854	3249
854.988	3081
855.122	3070
855.256	3005
855.39	3119
855.524	3230
855.658	3195
855.792	3150
855.926	3237
856.06	3199
856.194	3279
856.327	3192
856.461	3100
856.595	3097
856.729	3089
856.862	3279
856.996	3173
857.13	3241
857.263	3272
857.397	3317
857.53	3123
857.664	3214
857.797	3272
857.931	3233
858.064	3207
858.197	3222
858.331	3146
858.464	3116
858.597	3047
858.731	3112
858.864	3176
858.997	3089
859.13	3173
859.263	3188
859.396	3211
859.529	3104
859.662	3093
859.795	3074
859.928	3154
860.061	3294
860.194	3348
860.327	3173
860.46	3077
860.592	3237
860.725	3275
860.858	3272
860.99	3135
861.123	3081
861.256	3081
861.388	3157
861.521	3884
861.653	3020
861.786	2998
861.918	3013
862.05	3085
862.183	3077
862.315	3150
862.447	3233
862.58	3108
862.712	2979
862.844	2922
862.976	3047
863.108	2998
863.24	3306
863.372	2906
863.504	2979
863.636	2944
863.768	3036
863.9	2994
864.032	2944
864.164	2967
864.296	3047
864.428	3093
864.559	3100
864.691	3085
864.823	3127
864.954	3055
865.086	3043
865.217	3005
865.349	2990
865.48	3009
865.612	3036
865.743	3146
865.875	2979
866.006	2982
866.137	3017
866.269	2979
866.4	2937
866.531	2933
866.662	2925
866.793	2929
866.924	2963
867.055	2975
867.186	2948
867.317	2910
867.448	2823
867.579	2883
867.71	2876
867.841	2830
867.972	2910
868.103	2906
868.233	2883
868.364	2880
868.495	2929
868.625	3074
868.756	3169
868.886	2994
869.017	3028
869.147	3226
869.278	3192
869.408	3058
869.539	2982
869.669	3157
869.799	3051
869.929	3108
870.06	3066
870.19	3321
870.32	3279
870.45	3344
870.58	3374
870.71	3424
870.84	3504
870.97	3317
871.1	3264
871.23	3515
871.36	3485
871.489	3416
871.619	3439
871.749	3439
871.879	3424
872.008	3492
872.138	3386
872.267	3321
872.397	3169
872.526	3116
872.656	3051
872.785	3127
872.915	3268
873.044	3336
873.173	3237
873.303	3253
873.432	3245
873.561	3237
873.69	3161
873.819	3127
873.948	3199
874.077	3089
874.206	3066
874.335	3100
874.464	3214
874.593	3382
874.722	3245
874.851	3412
874.979	3340
875.108	3329
875.237	3211
875.365	3154
875.494	3188
875.623	3279
875.751	3081
875.88	3150
876.008	3222
876.136	3211
876.265	3348
876.393	3553
876.521	3458
876.65	3416
876.778	3351
876.906	3272
877.034	3245
877.162	3237
877.29	3188
877.418	3298
877.546	3275
877.674	3249
877.802	3264
877.93	3298
878.058	3161
878.185	3135
878.313	3195
878.441	3180
878.568	3077
878.696	3199
878.824	3256
878.951	3336
879.079	3507
879.206	3622
879.333	3485
879.461	3344
879.588	3397
879.715	3492
879.842	3625
879.97	3389
880.097	3199
880.224	3146
880.351	3211
880.478	3241
880.605	3157
880.732	3195
880.859	3549
880.986	3321
881.112	3348
881.239	3188
881.366	3116
881.493	3077
881.619	3020
881.746	3058
881.872	3093
881.999	3123
882.125	3150
882.252	3211
882.378	3283
882.505	3416
882.631	3302
882.757	3150
882.883	3253
883.01	3207
883.136	3199
883.262	3112
883.388	3108
883.514	3329
883.64	3397
883.766	3317
883.892	3192
884.018	3279
884.143	3428
884.269	3526
884.395	3214
884.52	3184
884.646	3222
884.772	3135
884.897	3146
885.023	3230
885.148	3336
885.274	3477
885.399	3389
885.524	3272
885.65	3253
885.775	3329
885.9	3230
886.025	3435
886.15	3378
886.275	3321
886.4	3211
886.525	3306
886.65	3302
886.775	3291
886.9	3488
887.025	3606
887.149	3401
887.274	3256
887.399	3180
887.523	3207
887.648	3222
887.773	3214
887.897	3409
888.021	3416
888.146	3348
888.27	3458
888.395	3591
888.519	3492
888.643	3477
888.767	3424
888.891	3325
889.015	3237
889.139	3283
889.263	3237
889.387	3458
889.511	3492
889.635	3492
889.759	3306
889.883	3310
890.006	3409
890.13	3511
890.254	3294
890.377	3344
890.501	3214
890.624	3176
890.748	3306
890.871	3173
890.995	3104
891.118	3112
891.241	3180
891.364	3222
891.488	3306
891.611	3195
891.734	3253
891.857	3329
891.98	3268
892.103	3348
892.226	3306
892.349	3264
892.471	3116
892.594	3241
892.717	3260
892.839	3268
892.962	3298
893.085	3374
893.207	3298
893.33	3203
893.452	3192
893.575	3325
893.697	3237
893.819	3454
893.941	3542
894.064	3450
894.186	3287
894.308	3275
894.43	3458
894.552	3530
894.674	3462
894.796	3294
894.918	3283
895.04	3279
895.161	3462
895.283	3386
895.405	3306
895.526	3416
895.648	3431
895.769	3412
895.891	3462
896.012	3469
896.134	3466
896.255	3435
896.376	3370
896.498	3378
896.619	3443
896.74	3374
896.861	3405
896.982	3701
897.103	3865
897.224	3599
897.345	3523
897.466	3431
897.587	3523
897.708	3622
897.828	3534
897.949	3443
898.07	3332
898.19	3393
898.311	3557
898.431	3420
898.552	3511
898.672	3599
898.792	3599
898.913	3492
899.033	3431
899.153	3306
899.273	3222
899.393	3283
899.513	3302
899.633	3321
899.753	3374
899.873	3329
899.993	3367
900.113	3370
900.232	3405
900.352	3359
900.472	3302
900.591	3218
900.711	3268
900.83	3230
900.95	3420
901.069	3523
901.189	3348
901.308	3180
901.427	3150
901.546	3222
901.665	3298
901.784	3325
901.904	3226
902.023	3142
902.141	2998
902.26	3005
902.379	3138
902.498	3089
902.617	3062
902.735	3230
902.854	3211
902.973	3214
903.091	3074
903.21	3055
903.328	3142
903.446	3062
903.565	3123
903.683	3207
903.801	3150
903.919	3272
904.038	3283
904.156	3127
904.274	3306
904.392	3241
904.51	3306
904.627	3310
904.745	3454
904.863	3515
904.981	3260
905.098	3173
905.216	3218
905.334	3302
905.451	3302
905.569	3329
905.686	3420
905.803	3424
905.921	3317
906.038	3454
906.155	3351
906.272	3302
906.389	3378
906.506	3233
906.623	3230
906.74	3256
906.857	3245
906.974	3268
907.091	3473
907.208	3587
907.324	3462
907.441	3340
907.557	3230
907.674	3253
907.79	3222
907.907	3298
908.023	3344
908.139	3370
908.256	3348
908.372	3359
908.488	3325
908.604	3264
908.72	3279
908.836	3272
908.952	3302
909.068	3344
909.184	3496
909.3	3393
909.415	3492
909.531	3469
909.647	3222
909.762	3275
909.878	3302
909.993	3329
910.108	3355
910.224	3344
910.339	3420
910.454	3344
910.57	3275
910.685	3237
910.8	3564
910.915	3538
911.03	3428
911.145	3249
911.259	3272
911.374	3329
911.489	3203
911.604	3260
911.718	3135
911.833	3154
911.947	3017
912.062	2979
912.176	3188
912.291	3199
912.405	3188
912.519	3416
912.633	3466
912.748	3355
912.862	3279
912.976	3176
913.09	3051
913.204	3138
913.318	3195
913.431	3351
913.545	3329
913.659	3393
913.772	3317
913.886	3245
914	3241
914.113	3367
914.226	3401
914.34	3389
914.453	3237
914.566	3409
914.68	3298
914.793	3321
914.906	3150
915.019	3108
915.132	3074
915.245	3192
915.358	3146
915.47	3245
915.583	3249
915.696	3310
915.809	3401
915.921	3428
916.034	3291
916.146	3245
916.259	3173
916.371	3397
916.483	3340
916.595	3283
916.708	3351
916.82	3363
916.932	3355
917.044	3363
917.156	3317
917.268	3237
917.38	3329
917.491	3291
917.603	3332
917.715	3473
917.826	3496
917.938	3428
918.049	3287
918.161	3386
918.272	3591
918.384	3561
918.495	3496
918.606	3321
918.717	3264
918.828	3367
918.939	3386
919.05	3302
919.161	3329
919.272	3146
919.383	3329
919.494	3485
919.604	3717
919.715	3496
919.826	3431
919.936	3458
920.047	3553
920.157	3557
920.267	3766
920.378	3652
920.488	3580
920.598	3751
920.708	3968
920.818	3846
920.928	3819
921.038	4010
921.148	3991
921.258	3663
921.368	3625
921.477	3603
921.587	3538
921.697	3431
921.806	3629
921.916	3488
922.025	3378
922.134	3386
922.244	3344
922.353	3450
922.462	3249
922.571	3249
922.68	3135
922.789	3089
922.898	3154
923.007	3112
923.116	3161
923.224	3169
923.333	3184
923.442	3108
923.55	3123
923.659	3154
923.767	3192
923.876	3097
923.984	3260
924.092	3085
924.201	3157
924.309	3233
924.417	3211
924.525	3214
924.633	3245
924.741	4188
924.849	3081
924.956	3275
925.064	3108
925.172	3020
925.279	3108
925.387	3203
925.494	3195
925.602	3363
925.709	3359
925.816	3192
925.924	3279
926.031	3367
926.138	3344
926.245	3378
926.352	3245
926.459	3439
926.566	3477
926.673	3332
926.779	3218
926.886	3222
926.993	3150
927.099	3195
927.206	3123
927.312	3154
927.419	3207
927.525	3195
927.631	3313
927.737	3108
927.843	3100
927.95	3032
928.056	3154
928.162	3173
928.267	3260
928.373	3778
928.479	3310
928.585	3062
928.69	3211
928.796	3253
928.901	3161
929.007	3047
929.112	3188
929.218	3169
929.323	3146
929.428	3161
929.533	3329
929.638	3108
929.743	3188
929.848	3268
929.953	3222
930.058	3142
930.163	3005
930.267	3017
930.372	3161
930.477	3055
930.581	3306
930.685	3199
930.79	3070
930.894	3108
930.998	3119
931.103	3268
931.207	2944
931.311	2956
931.415	2887
931.519	2777
931.623	2826
