Data from test_V78500241_779.txt Node
Date: Fri Mar 25 16:20:35 CST 2022
User: usil
Spectrometer: V785-0024
Trigger mode: 0
Integration Time (sec): 4.000000E-1
Scans to average: 1
Nonlinearity correction enabled: false
Boxcar width: 0
Storing dark spectrum: false
XAxis mode: Wavelengths
Number of Pixels in Spectrum: 1024
>>>>>Begin Spectral Data<<<<<
801.071	2925
801.214	2929
801.356	2845
801.499	2925
801.641	2876
801.783	2914
801.926	3017
802.068	2963
802.211	2986
802.353	3051
802.496	2971
802.638	3009
802.78	3001
802.923	3077
803.065	3009
803.208	2864
803.35	2891
803.492	2952
803.635	2899
803.777	2735
803.919	2895
804.061	3195
804.204	2925
804.346	2944
804.488	2864
804.63	2967
804.773	2895
804.915	2925
805.057	3077
805.199	2902
805.341	2994
805.483	3043
805.626	2990
805.768	2979
805.91	3070
806.052	3081
806.194	3028
806.336	3226
806.478	3009
806.62	2963
806.762	2960
806.904	3039
807.046	3150
807.188	2941
807.33	2883
807.472	2994
807.614	2944
807.756	3005
807.898	2933
808.04	2861
808.182	2948
808.324	2937
808.465	2872
808.607	2864
808.749	2804
808.891	2868
809.033	2982
809.174	2971
809.316	2883
809.458	2918
809.6	2781
809.741	2739
809.883	2754
810.025	2864
810.166	2838
810.308	2815
810.45	2853
810.591	2796
810.733	2781
810.875	2823
811.016	2762
811.158	2735
811.299	2811
811.441	2929
811.582	2872
811.724	2845
811.865	2838
812.007	2876
812.148	2910
812.29	2853
812.431	2849
812.573	2906
812.714	2933
812.855	3032
812.997	3055
813.138	3104
813.279	2982
813.421	3009
813.562	2933
813.703	2891
813.845	2914
813.986	2800
814.127	2724
814.268	2815
814.41	2830
814.551	2834
814.692	2887
814.833	2804
814.974	2883
815.115	2937
815.256	2849
815.397	2785
815.539	2853
815.68	2766
815.821	2815
815.962	2933
816.103	2960
816.244	2864
816.385	2811
816.526	2948
816.666	2876
816.807	2731
816.948	2861
817.089	2941
817.23	2861
817.371	2823
817.512	2811
817.653	2826
817.793	2849
817.934	2864
818.075	2941
818.216	3013
818.356	3043
818.497	2868
818.638	2777
818.778	2804
818.919	2800
819.06	2769
819.2	2876
819.341	2785
819.481	2769
819.622	2967
819.762	3077
819.903	3043
820.043	2960
820.184	2922
820.324	2899
820.465	3024
820.605	2982
820.746	3039
820.886	2918
821.026	3062
821.167	3146
821.307	3237
821.447	3264
821.588	3237
821.728	3176
821.868	3230
822.008	3062
822.149	3154
822.289	3256
822.429	3089
822.569	3112
822.709	3135
822.849	3024
822.99	3070
823.13	3119
823.27	3199
823.41	3116
823.55	3138
823.69	3180
823.83	3207
823.97	3089
824.11	3009
824.25	2979
824.389	3081
824.529	3093
824.669	3017
824.809	3173
824.949	3264
825.089	3211
825.228	3157
825.368	3001
825.508	2944
825.648	2963
825.787	3043
825.927	3005
826.067	2941
826.206	2937
826.346	3020
826.485	3097
826.625	3093
826.765	3264
826.904	3207
827.044	3001
827.183	2914
827.323	2857
827.462	2956
827.601	2872
827.741	2906
827.88	2933
828.02	2807
828.159	2963
828.298	3028
828.437	3100
828.577	3028
828.716	3245
828.855	3036
828.994	2853
829.134	2853
829.273	2925
829.412	2838
829.551	2834
829.69	2876
829.829	3001
829.968	3093
830.107	2986
830.246	3013
830.385	2925
830.524	2842
830.663	2826
830.802	2750
830.941	2625
831.08	2659
831.219	2743
831.357	2758
831.496	2925
831.635	2705
831.774	2621
831.913	2640
832.051	2511
832.19	2598
832.329	2708
832.467	2514
832.606	2476
832.744	2564
832.883	2594
833.022	2610
833.16	2655
833.299	2705
833.437	2670
833.576	2682
833.714	2716
833.852	2712
833.991	2731
834.129	2830
834.267	2830
834.406	2800
834.544	2899
834.682	2876
834.821	2861
834.959	3058
835.097	2906
835.235	3051
835.373	3001
835.511	2998
835.65	2906
835.788	2929
835.926	2845
836.064	2845
836.202	2834
836.34	3089
836.478	3165
836.615	3047
836.753	3123
836.891	3192
837.029	3150
837.167	3112
837.305	3058
837.443	3028
837.58	2948
837.718	3127
837.856	3070
837.993	3013
838.131	3161
838.269	3066
838.406	3070
838.544	3051
838.681	2918
838.819	2883
838.956	2781
839.094	2800
839.231	2876
839.369	3020
839.506	3386
839.643	3195
839.781	2998
839.918	2982
840.055	3058
840.193	3051
840.33	3066
840.467	3074
840.604	3127
840.742	3386
840.879	3047
841.016	3032
841.153	3112
841.29	3332
841.427	3294
841.564	3306
841.701	3310
841.838	3245
841.975	3165
842.112	3214
842.249	3036
842.385	3051
842.522	3253
842.659	3089
842.796	3058
842.933	3127
843.069	3028
843.206	3062
843.343	3165
843.479	3089
843.616	3116
843.752	2876
843.889	2872
844.025	3058
844.162	2868
844.298	3055
844.435	2944
844.571	2922
844.708	3062
844.844	3157
844.98	3199
845.117	3192
845.253	3036
845.389	2994
845.525	3119
845.661	3070
845.798	2986
845.934	3089
846.07	3055
846.206	3211
846.342	3313
846.478	3226
846.614	3108
846.75	3074
846.886	3051
847.022	3226
847.158	3112
847.294	3211
847.429	3241
847.565	3176
847.701	3481
847.837	3020
847.972	2998
848.108	3165
848.244	3089
848.379	2990
848.515	2925
848.65	2918
848.786	2937
848.921	2994
849.057	3093
849.192	3142
849.328	3055
849.463	3150
849.598	3055
849.734	3013
849.869	2956
850.004	2925
850.14	2963
850.275	2922
850.41	2864
850.545	2876
850.68	2948
850.815	2956
850.95	3005
851.085	3157
851.22	3085
851.355	3051
851.49	2948
851.625	3009
851.76	2994
851.895	2929
852.03	2933
852.165	3032
852.299	3074
852.434	3146
852.569	3127
852.703	3173
852.838	3207
852.973	3291
853.107	3359
853.242	3131
853.376	3081
853.511	2975
853.645	3077
853.78	3233
853.914	3093
854.048	3097
854.183	3108
854.317	3142
854.451	3241
854.585	3131
854.72	3077
854.854	3199
854.988	3024
855.122	3097
855.256	2982
855.39	3127
855.524	3237
855.658	3169
855.792	3176
855.926	3226
856.06	3233
856.194	3264
856.327	3138
856.461	3089
856.595	3036
856.729	3074
856.862	3169
856.996	3142
857.13	3237
857.263	3272
857.397	3245
857.53	3116
857.664	3173
857.797	3241
857.931	3291
858.064	3142
858.197	3245
858.331	3135
858.464	3074
858.597	2994
858.731	3119
858.864	3135
858.997	3077
859.13	3131
859.263	3195
859.396	3192
859.529	3081
859.662	3081
859.795	3062
859.928	3135
860.061	3241
860.194	3279
860.327	3135
860.46	3108
860.592	3207
860.725	3241
860.858	3241
860.99	3085
861.123	3055
861.256	3077
861.388	3142
861.521	3911
861.653	3020
861.786	2975
861.918	2971
862.05	3043
862.183	3093
862.315	3135
862.447	3188
862.58	3058
862.712	2899
862.844	2861
862.976	3051
863.108	3009
863.24	3409
863.372	2861
863.504	2982
863.636	2906
863.768	3028
863.9	2979
864.032	2887
864.164	2944
864.296	2990
864.428	3100
864.559	3116
864.691	3051
864.823	3070
864.954	3043
865.086	3066
865.217	3017
865.349	2876
865.48	2975
865.612	3039
865.743	3142
865.875	2990
866.006	2956
866.137	2960
866.269	2929
866.4	2952
866.531	2929
866.662	2914
866.793	2891
866.924	2845
867.055	2956
867.186	2918
867.317	2853
867.448	2819
867.579	2842
867.71	2842
867.841	2815
867.972	2918
868.103	2887
868.233	2861
868.364	2849
868.495	2895
868.625	3093
868.756	3165
868.886	2937
869.017	2990
869.147	3188
869.278	3138
869.408	3028
869.539	3066
869.669	3062
869.799	3039
869.929	3104
870.06	3108
870.19	3321
870.32	3279
870.45	3283
870.58	3382
870.71	3431
870.84	3466
870.97	3302
871.1	3222
871.23	3420
871.36	3443
871.489	3317
871.619	3416
871.749	3363
871.879	3435
872.008	3454
872.138	3325
872.267	3256
872.397	3165
872.526	3116
872.656	3017
872.785	3081
872.915	3275
873.044	3336
873.173	3195
873.303	3211
873.432	3237
873.561	3233
873.69	3138
873.819	3161
873.948	3157
874.077	3123
874.206	3055
874.335	3085
874.464	3207
874.593	3329
874.722	3253
874.851	3367
874.979	3344
875.108	3310
875.237	3180
875.365	3165
875.494	3138
875.623	3233
875.751	3062
875.88	3066
876.008	3214
876.136	3180
876.265	3359
876.393	3481
876.521	3401
876.65	3370
876.778	3329
876.906	3222
877.034	3157
877.162	3226
877.29	3173
877.418	3241
877.546	3245
877.674	3233
877.802	3230
877.93	3245
878.058	3119
878.185	3097
878.313	3173
878.441	3226
878.568	3058
878.696	3157
878.824	3241
878.951	3260
879.079	3435
879.206	3614
879.333	3435
879.461	3344
879.588	3344
879.715	3454
879.842	3564
879.97	3378
880.097	3150
880.224	3150
880.351	3169
880.478	3203
880.605	3192
880.732	3199
880.859	3496
880.986	3310
881.112	3306
881.239	3214
881.366	3081
881.493	3036
881.619	3036
881.746	3020
881.872	3104
881.999	3100
882.125	3135
882.252	3233
882.378	3306
882.505	3412
882.631	3245
882.757	3127
882.883	3218
883.01	3218
883.136	3150
883.262	3097
883.388	3135
883.514	3321
883.64	3332
883.766	3298
883.892	3214
884.018	3230
884.143	3405
884.269	3549
884.395	3230
884.52	3131
884.646	3157
884.772	3135
884.897	3138
885.023	3195
885.148	3336
885.274	3409
885.399	3351
885.524	3268
885.65	3260
885.775	3332
885.9	3306
886.025	3428
886.15	3355
886.275	3287
886.4	3222
886.525	3275
886.65	3275
886.775	3275
886.9	3481
887.025	3671
887.149	3424
887.274	3253
887.399	3173
887.523	3192
887.648	3184
887.773	3207
887.897	3378
888.021	3382
888.146	3268
888.27	3420
888.395	3523
888.519	3428
888.643	3443
888.767	3492
888.891	3310
889.015	3260
889.139	3287
889.263	3253
889.387	3416
889.511	3526
889.635	3439
889.759	3310
889.883	3306
890.006	3367
890.13	3473
890.254	3264
890.377	3332
890.501	3207
890.624	3214
890.748	3287
890.871	3203
890.995	3108
891.118	3116
891.241	3199
891.364	3226
891.488	3340
891.611	3146
891.734	3233
891.857	3298
891.98	3245
892.103	3317
892.226	3279
892.349	3214
892.471	3074
892.594	3264
892.717	3298
892.839	3268
892.962	3253
893.085	3359
893.207	3329
893.33	3142
893.452	3222
893.575	3382
893.697	3253
893.819	3469
893.941	3492
894.064	3443
894.186	3291
894.308	3237
894.43	3412
894.552	3519
894.674	3492
894.796	3226
894.918	3302
895.04	3275
895.161	3389
895.283	3382
895.405	3306
895.526	3351
895.648	3450
895.769	3409
895.891	3473
896.012	3458
896.134	3485
896.255	3450
896.376	3382
896.498	3374
896.619	3428
896.74	3336
896.861	3401
896.982	3682
897.103	3808
897.224	3542
897.345	3538
897.466	3397
897.587	3511
897.708	3595
897.828	3568
897.949	3435
898.07	3344
898.19	3386
898.311	3591
898.431	3409
898.552	3511
898.672	3610
898.792	3542
898.913	3511
899.033	3416
899.153	3291
899.273	3192
899.393	3260
899.513	3310
899.633	3310
899.753	3340
899.873	3291
899.993	3374
900.113	3340
900.232	3397
900.352	3321
900.472	3294
900.591	3203
900.711	3272
900.83	3241
900.95	3412
901.069	3481
901.189	3348
901.308	3207
901.427	3135
901.546	3214
901.665	3294
901.784	3340
901.904	3207
902.023	3131
902.141	3024
902.26	3009
902.379	3157
902.498	3070
902.617	3013
902.735	3184
902.854	3237
902.973	3184
903.091	3036
903.21	3043
903.328	3131
903.446	3093
903.565	3131
903.683	3211
903.801	3112
903.919	3214
904.038	3268
904.156	3169
904.274	3298
904.392	3275
904.51	3272
904.627	3336
904.745	3435
904.863	3454
904.981	3264
905.098	3157
905.216	3192
905.334	3294
905.451	3302
905.569	3302
905.686	3435
905.803	3405
905.921	3291
906.038	3443
906.155	3374
906.272	3279
906.389	3302
906.506	3203
906.623	3302
906.74	3253
906.857	3180
906.974	3260
907.091	3447
907.208	3538
907.324	3485
907.441	3424
907.557	3230
907.674	3226
907.79	3203
907.907	3302
908.023	3348
908.139	3355
908.256	3306
908.372	3351
908.488	3336
908.604	3233
908.72	3241
908.836	3272
908.952	3291
909.068	3306
909.184	3435
909.3	3374
909.415	3507
909.531	3469
909.647	3245
909.762	3283
909.878	3275
909.993	3351
910.108	3355
910.224	3340
910.339	3412
910.454	3298
910.57	3275
910.685	3253
910.8	3595
910.915	3564
911.03	3447
911.145	3211
911.259	3275
911.374	3317
911.489	3256
911.604	3207
911.718	3119
911.833	3104
911.947	3055
912.062	2979
912.176	3176
912.291	3195
912.405	3195
912.519	3435
912.633	3492
912.748	3325
912.862	3298
912.976	3195
913.09	3081
913.204	3131
913.318	3173
913.431	3355
913.545	3332
913.659	3382
913.772	3291
913.886	3214
914	3214
914.113	3367
914.226	3401
914.34	3329
914.453	3214
914.566	3393
914.68	3279
914.793	3233
914.906	3161
915.019	3119
915.132	3108
915.245	3211
915.358	3188
915.47	3214
915.583	3245
915.696	3287
915.809	3416
915.921	3435
916.034	3294
916.146	3237
916.259	3218
916.371	3332
916.483	3340
916.595	3264
916.708	3332
916.82	3325
916.932	3321
917.044	3363
917.156	3359
917.268	3253
917.38	3264
917.491	3264
917.603	3367
917.715	3420
917.826	3439
917.938	3386
918.049	3241
918.161	3431
918.272	3549
918.384	3557
918.495	3488
918.606	3317
918.717	3237
918.828	3344
918.939	3405
919.05	3287
919.161	3336
919.272	3157
919.383	3325
919.494	3473
919.604	3663
919.715	3462
919.826	3389
919.936	3466
920.047	3584
920.157	3576
920.267	3789
920.378	3576
920.488	3545
920.598	3762
920.708	3964
920.818	3823
920.928	3812
921.038	4029
921.148	3994
921.258	3717
921.368	3637
921.477	3561
921.587	3515
921.697	3450
921.806	3625
921.916	3488
922.025	3321
922.134	3336
922.244	3325
922.353	3409
922.462	3241
922.571	3230
922.68	3119
922.789	3058
922.898	3146
923.007	3100
923.116	3169
923.224	3188
923.333	3165
923.442	3112
923.55	3097
923.659	3123
923.767	3195
923.876	3154
923.984	3237
924.092	3112
924.201	3195
924.309	3222
924.417	3226
924.525	3214
924.633	3211
924.741	4188
924.849	3017
924.956	3317
925.064	3081
925.172	3062
925.279	3077
925.387	3173
925.494	3180
925.602	3340
925.709	3294
925.816	3142
925.924	3283
926.031	3397
926.138	3306
926.245	3370
926.352	3245
926.459	3397
926.566	3500
926.673	3321
926.779	3226
926.886	3230
926.993	3142
927.099	3142
927.206	3116
927.312	3093
927.419	3272
927.525	3237
927.631	3253
927.737	3131
927.843	3074
927.95	3032
928.056	3165
928.162	3165
928.267	3283
928.373	3751
928.479	3287
928.585	3066
928.69	3180
928.796	3287
928.901	3135
929.007	3055
929.112	3195
929.218	3154
929.323	3112
929.428	3180
929.533	3291
929.638	3070
929.743	3165
929.848	3283
929.953	3195
930.058	3150
930.163	2986
930.267	3001
930.372	3180
930.477	3020
930.581	3279
930.685	3146
930.79	3043
930.894	3119
930.998	3085
931.103	3272
931.207	3001
931.311	2956
931.415	2902
931.519	2773
931.623	2815
