Data from test_V78500241_1350.txt Node
Date: Fri Mar 25 16:24:33 CST 2022
User: usil
Spectrometer: V785-0024
Trigger mode: 0
Integration Time (sec): 4.000000E-1
Scans to average: 1
Nonlinearity correction enabled: false
Boxcar width: 0
Storing dark spectrum: false
XAxis mode: Wavelengths
Number of Pixels in Spectrum: 1024
>>>>>Begin Spectral Data<<<<<
801.071	2914
801.214	2925
801.356	2891
801.499	2891
801.641	2876
801.783	2948
801.926	3055
802.068	2963
802.211	2963
802.353	3043
802.496	2971
802.638	3020
802.78	3028
802.923	3074
803.065	3001
803.208	2864
803.35	2891
803.492	2952
803.635	2925
803.777	2739
803.919	2838
804.061	3218
804.204	2944
804.346	2948
804.488	2845
804.63	2963
804.773	2849
804.915	2902
805.057	3077
805.199	2914
805.341	2952
805.483	3036
805.626	2982
805.768	2982
805.91	3062
806.052	3108
806.194	3001
806.336	3222
806.478	3058
806.62	2952
806.762	2967
806.904	3062
807.046	3112
807.188	2967
807.33	2902
807.472	2986
807.614	2910
807.756	2941
807.898	2922
808.04	2895
808.182	2971
808.324	2925
808.465	2861
808.607	2857
808.749	2804
808.891	2838
809.033	2982
809.174	2960
809.316	2868
809.458	2922
809.6	2754
809.741	2781
809.883	2762
810.025	2815
810.166	2849
810.308	2853
810.45	2849
810.591	2815
810.733	2785
810.875	2845
811.016	2781
811.158	2735
811.299	2804
811.441	2895
811.582	2895
811.724	2826
811.865	2864
812.007	2876
812.148	2857
812.29	2804
812.431	2868
812.573	2937
812.714	2933
812.855	3039
812.997	3013
813.138	3108
813.279	2982
813.421	2948
813.562	2967
813.703	2880
813.845	2910
813.986	2762
814.127	2708
814.268	2777
814.41	2849
814.551	2769
814.692	2842
814.833	2788
814.974	2910
815.115	2967
815.256	2807
815.397	2792
815.539	2868
815.68	2750
815.821	2769
815.962	2929
816.103	2933
816.244	2849
816.385	2895
816.526	2975
816.666	2922
816.807	2693
816.948	2887
817.089	2914
817.23	2845
817.371	2750
817.512	2785
817.653	2834
817.793	2830
817.934	2861
818.075	2967
818.216	2975
818.356	2990
818.497	2876
818.638	2773
818.778	2853
818.919	2804
819.06	2754
819.2	2868
819.341	2796
819.481	2781
819.622	2918
819.762	3081
819.903	3001
820.043	2899
820.184	2914
820.324	2906
820.465	3036
820.605	3051
820.746	3013
820.886	2956
821.026	3077
821.167	3176
821.307	3230
821.447	3302
821.588	3218
821.728	3173
821.868	3169
822.008	3074
822.149	3195
822.289	3214
822.429	3074
822.569	3062
822.709	3207
822.849	3005
822.99	3028
823.13	3146
823.27	3176
823.41	3104
823.55	3176
823.69	3112
823.83	3192
823.97	3085
824.11	3028
824.25	2963
824.389	3081
824.529	3097
824.669	3055
824.809	3184
824.949	3245
825.089	3207
825.228	3180
825.368	2979
825.508	2994
825.648	2967
825.787	3005
825.927	3005
826.067	2979
826.206	2952
826.346	3028
826.485	3062
826.625	3108
826.765	3256
826.904	3222
827.044	3009
827.183	2876
827.323	2830
827.462	2994
827.601	2906
827.741	2876
827.88	2933
828.02	2845
828.159	2948
828.298	3043
828.437	3116
828.577	3055
828.716	3203
828.855	3093
828.994	2891
829.134	2868
829.273	2941
829.412	2838
829.551	2868
829.69	2887
829.829	3020
829.968	3123
830.107	2990
830.246	2994
830.385	2922
830.524	2872
830.663	2811
830.802	2735
830.941	2667
831.08	2655
831.219	2754
831.357	2739
831.496	2925
831.635	2724
831.774	2651
831.913	2651
832.051	2530
832.19	2571
832.329	2689
832.467	2545
832.606	2461
832.744	2602
832.883	2571
833.022	2613
833.16	2640
833.299	2659
833.437	2693
833.576	2689
833.714	2705
833.852	2739
833.991	2769
834.129	2792
834.267	2819
834.406	2766
834.544	2868
834.682	2861
834.821	2849
834.959	3039
835.097	2891
835.235	3055
835.373	2998
835.511	3013
835.65	2910
835.788	2929
835.926	2842
836.064	2815
836.202	2781
836.34	3074
836.478	3154
836.615	3028
836.753	3138
836.891	3169
837.029	3104
837.167	3085
837.305	3058
837.443	2986
837.58	2963
837.718	3116
837.856	3058
837.993	3009
838.131	3127
838.269	3093
838.406	3093
838.544	3100
838.681	2937
838.819	2864
838.956	2826
839.094	2815
839.231	2914
839.369	3009
839.506	3370
839.643	3207
839.781	2994
839.918	2956
840.055	3043
840.193	3062
840.33	3024
840.467	3085
840.604	3127
840.742	3435
840.879	3020
841.016	3055
841.153	3104
841.29	3344
841.427	3253
841.564	3275
841.701	3306
841.838	3264
841.975	3176
842.112	3214
842.249	3077
842.385	3032
842.522	3230
842.659	3055
842.796	3024
842.933	3089
843.069	3058
843.206	3028
843.343	3195
843.479	3097
843.616	3119
843.752	2883
843.889	2868
844.025	3085
844.162	2883
844.298	3074
844.435	2952
844.571	2918
844.708	3074
844.844	3192
844.98	3264
845.117	3173
845.253	3039
845.389	3017
845.525	3131
845.661	3077
845.798	2975
845.934	3127
846.07	3009
846.206	3237
846.342	3317
846.478	3214
846.614	3097
846.75	3047
846.886	3001
847.022	3222
847.158	3077
847.294	3165
847.429	3211
847.565	3192
847.701	3431
847.837	2982
847.972	3024
848.108	3150
848.244	3112
848.379	2982
848.515	2914
848.65	2941
848.786	2979
848.921	3020
849.057	3089
849.192	3123
849.328	3066
849.463	3070
849.598	3047
849.734	3047
849.869	2971
850.004	2902
850.14	2937
850.275	2914
850.41	2826
850.545	2861
850.68	2933
850.815	2941
850.95	2960
851.085	3207
851.22	3093
851.355	2994
851.49	2971
851.625	2971
851.76	2979
851.895	2960
852.03	2902
852.165	3043
852.299	3108
852.434	3230
852.569	3142
852.703	3165
852.838	3241
852.973	3329
853.107	3325
853.242	3131
853.376	3032
853.511	2986
853.645	3024
853.78	3233
853.914	3127
854.048	3093
854.183	3085
854.317	3161
854.451	3241
854.585	3100
854.72	3081
854.854	3237
854.988	3062
855.122	3085
855.256	2944
855.39	3066
855.524	3245
855.658	3176
855.792	3192
855.926	3161
856.06	3203
856.194	3218
856.327	3165
856.461	3047
856.595	3089
856.729	3074
856.862	3211
856.996	3169
857.13	3176
857.263	3237
857.397	3298
857.53	3127
857.664	3173
857.797	3226
857.931	3233
858.064	3154
858.197	3211
858.331	3116
858.464	3100
858.597	3024
858.731	3085
858.864	3131
858.997	3089
859.13	3108
859.263	3176
859.396	3192
859.529	3074
859.662	3081
859.795	3013
859.928	3093
860.061	3237
860.194	3291
860.327	3150
860.46	3123
860.592	3237
860.725	3279
860.858	3272
860.99	3085
861.123	3070
861.256	3028
861.388	3142
861.521	3701
861.653	3043
861.786	3001
861.918	3017
862.05	3093
862.183	3093
862.315	3165
862.447	3195
862.58	3058
862.712	2941
862.844	2887
862.976	3036
863.108	2986
863.24	3306
863.372	2853
863.504	2990
863.636	2925
863.768	2990
863.9	2941
864.032	2914
864.164	2960
864.296	3013
864.428	3093
864.559	3097
864.691	3051
864.823	3039
864.954	3036
865.086	3024
865.217	2982
865.349	2937
865.48	2948
865.612	2979
865.743	3119
865.875	2994
866.006	2948
866.137	2963
866.269	2975
866.4	2895
866.531	2899
866.662	2861
866.793	2857
866.924	2925
867.055	2925
867.186	2929
867.317	2876
867.448	2804
867.579	2849
867.71	2842
867.841	2781
867.972	2872
868.103	2872
868.233	2891
868.364	2868
868.495	2899
868.625	3043
868.756	3180
868.886	2975
869.017	3001
869.147	3154
869.278	3173
869.408	3036
869.539	2990
869.669	3116
869.799	3051
869.929	3131
870.06	3104
870.19	3336
870.32	3287
870.45	3275
870.58	3374
870.71	3397
870.84	3420
870.97	3306
871.1	3272
871.23	3496
871.36	3412
871.489	3363
871.619	3378
871.749	3393
871.879	3409
872.008	3488
872.138	3351
872.267	3245
872.397	3131
872.526	3039
872.656	3024
872.785	3077
872.915	3222
873.044	3287
873.173	3188
873.303	3283
873.432	3207
873.561	3226
873.69	3157
873.819	3127
873.948	3195
874.077	3074
874.206	3039
874.335	3093
874.464	3173
874.593	3363
874.722	3241
874.851	3355
874.979	3329
875.108	3313
875.237	3218
875.365	3165
875.494	3146
875.623	3237
875.751	3058
875.88	3108
876.008	3218
876.136	3218
876.265	3359
876.393	3473
876.521	3416
876.65	3386
876.778	3313
876.906	3199
877.034	3211
877.162	3214
877.29	3138
877.418	3233
877.546	3237
877.674	3233
877.802	3241
877.93	3230
878.058	3173
878.185	3119
878.313	3176
878.441	3211
878.568	3032
878.696	3135
878.824	3218
878.951	3275
879.079	3393
879.206	3576
879.333	3424
879.461	3336
879.588	3344
879.715	3469
879.842	3519
879.97	3401
880.097	3142
880.224	3108
880.351	3165
880.478	3207
880.605	3180
880.732	3188
880.859	3526
880.986	3291
881.112	3329
881.239	3188
881.366	3112
881.493	3013
881.619	3024
881.746	3081
881.872	3089
881.999	3089
882.125	3138
882.252	3264
882.378	3268
882.505	3401
882.631	3279
882.757	3142
882.883	3222
883.01	3180
883.136	3089
883.262	3058
883.388	3093
883.514	3287
883.64	3370
883.766	3279
883.892	3184
884.018	3222
884.143	3435
884.269	3488
884.395	3199
884.52	3135
884.646	3188
884.772	3097
884.897	3108
885.023	3214
885.148	3344
885.274	3424
885.399	3382
885.524	3275
885.65	3279
885.775	3306
885.9	3253
886.025	3378
886.15	3348
886.275	3310
886.4	3272
886.525	3298
886.65	3226
886.775	3272
886.9	3450
887.025	3618
887.149	3412
887.274	3218
887.399	3150
887.523	3180
887.648	3195
887.773	3195
887.897	3363
888.021	3405
888.146	3272
888.27	3454
888.395	3492
888.519	3435
888.643	3458
888.767	3477
888.891	3302
889.015	3237
889.139	3291
889.263	3207
889.387	3466
889.511	3523
889.635	3439
889.759	3279
889.883	3291
890.006	3382
890.13	3492
890.254	3260
890.377	3336
890.501	3184
890.624	3146
890.748	3279
890.871	3173
890.995	3135
891.118	3081
891.241	3154
891.364	3214
891.488	3359
891.611	3150
891.734	3192
891.857	3279
891.98	3203
892.103	3348
892.226	3253
892.349	3233
892.471	3104
892.594	3253
892.717	3268
892.839	3241
892.962	3264
893.085	3313
893.207	3287
893.33	3135
893.452	3203
893.575	3344
893.697	3237
893.819	3454
893.941	3466
894.064	3401
894.186	3298
894.308	3275
894.43	3431
894.552	3519
894.674	3420
894.796	3275
894.918	3313
895.04	3294
895.161	3428
895.283	3370
895.405	3291
895.526	3348
895.648	3382
895.769	3424
895.891	3428
896.012	3481
896.134	3447
896.255	3409
896.376	3310
896.498	3374
896.619	3412
896.74	3321
896.861	3401
896.982	3682
897.103	3804
897.224	3603
897.345	3504
897.466	3431
897.587	3462
897.708	3633
897.828	3542
897.949	3443
898.07	3317
898.19	3401
898.311	3572
898.431	3382
898.552	3477
898.672	3580
898.792	3553
898.913	3515
899.033	3416
899.153	3253
899.273	3214
899.393	3298
899.513	3321
899.633	3298
899.753	3287
899.873	3283
899.993	3393
900.113	3355
900.232	3420
900.352	3340
900.472	3272
900.591	3195
900.711	3241
900.83	3237
900.95	3367
901.069	3473
901.189	3351
901.308	3169
901.427	3112
901.546	3165
901.665	3313
901.784	3336
901.904	3218
902.023	3135
902.141	3028
902.26	2963
902.379	3108
902.498	3093
902.617	3047
902.735	3195
902.854	3222
902.973	3154
903.091	3036
903.21	3058
903.328	3154
903.446	3104
903.565	3108
903.683	3180
903.801	3089
903.919	3214
904.038	3287
904.156	3157
904.274	3275
904.392	3287
904.51	3272
904.627	3287
904.745	3439
904.863	3519
904.981	3195
905.098	3199
905.216	3211
905.334	3291
905.451	3302
905.569	3313
905.686	3405
905.803	3447
905.921	3264
906.038	3409
906.155	3359
906.272	3260
906.389	3294
906.506	3203
906.623	3256
906.74	3256
906.857	3188
906.974	3214
907.091	3431
907.208	3511
907.324	3447
907.441	3386
907.557	3245
907.674	3199
907.79	3195
907.907	3275
908.023	3355
908.139	3370
908.256	3306
908.372	3370
908.488	3351
908.604	3264
908.72	3226
908.836	3253
908.952	3256
909.068	3332
909.184	3523
909.3	3359
909.415	3534
909.531	3431
909.647	3237
909.762	3260
909.878	3245
909.993	3332
910.108	3306
910.224	3363
910.339	3409
910.454	3298
910.57	3275
910.685	3203
910.8	3576
910.915	3519
911.03	3424
911.145	3226
911.259	3287
911.374	3298
911.489	3218
911.604	3249
911.718	3112
911.833	3116
911.947	3043
912.062	2998
912.176	3131
912.291	3214
912.405	3195
912.519	3409
912.633	3420
912.748	3329
912.862	3272
912.976	3188
913.09	3058
913.204	3154
913.318	3218
913.431	3313
913.545	3306
913.659	3389
913.772	3340
913.886	3169
914	3173
914.113	3389
914.226	3389
914.34	3370
914.453	3237
914.566	3397
914.68	3260
914.793	3302
914.906	3169
915.019	3119
915.132	3058
915.245	3184
915.358	3211
915.47	3253
915.583	3260
915.696	3325
915.809	3412
915.921	3424
916.034	3256
916.146	3279
916.259	3207
916.371	3374
916.483	3382
916.595	3325
916.708	3351
916.82	3302
916.932	3355
917.044	3389
917.156	3363
917.268	3275
917.38	3340
917.491	3306
917.603	3378
917.715	3454
917.826	3492
917.938	3435
918.049	3294
918.161	3477
918.272	3610
918.384	3591
918.495	3504
918.606	3393
918.717	3302
918.828	3412
918.939	3485
919.05	3325
919.161	3424
919.272	3214
919.383	3329
919.494	3519
919.604	3705
919.715	3561
919.826	3420
919.936	3492
920.047	3564
920.157	3603
920.267	3793
920.378	3656
920.488	3587
920.598	3781
920.708	3975
920.818	3899
920.928	3876
921.038	4090
921.148	4063
921.258	3728
921.368	3671
921.477	3625
921.587	3557
921.697	3481
921.806	3644
921.916	3526
922.025	3386
922.134	3382
922.244	3351
922.353	3473
922.462	3329
922.571	3275
922.68	3146
922.789	3127
922.898	3192
923.007	3146
923.116	3211
923.224	3256
923.333	3214
923.442	3116
923.55	3150
923.659	3180
923.767	3283
923.876	3161
923.984	3306
924.092	3176
924.201	3230
924.309	3264
924.417	3294
924.525	3260
924.633	3340
924.741	4086
924.849	3058
924.956	3313
925.064	3150
925.172	3062
925.279	3138
925.387	3233
925.494	3207
925.602	3431
925.709	3382
925.816	3211
925.924	3310
926.031	3416
926.138	3340
926.245	3409
926.352	3287
926.459	3454
926.566	3523
926.673	3332
926.779	3283
926.886	3291
926.993	3203
927.099	3154
927.206	3135
927.312	3146
927.419	3226
927.525	3226
927.631	3370
927.737	3188
927.843	3176
927.95	3074
928.056	3173
928.162	3230
928.267	3310
928.373	3873
928.479	3386
928.585	3108
928.69	3249
928.796	3310
928.901	3169
929.007	3077
929.112	3207
929.218	3192
929.323	3154
929.428	3169
929.533	3340
929.638	3165
929.743	3161
929.848	3275
929.953	3275
930.058	3199
930.163	3028
930.267	3058
930.372	3207
930.477	3039
930.581	3336
930.685	3226
930.79	3051
930.894	3135
930.998	3150
931.103	3313
931.207	2975
931.311	2975
931.415	2914
931.519	2792
931.623	2830
