Data from test_V78500241_1158.txt Node
Date: Fri Mar 25 16:23:13 CST 2022
User: usil
Spectrometer: V785-0024
Trigger mode: 0
Integration Time (sec): 4.000000E-1
Scans to average: 1
Nonlinearity correction enabled: false
Boxcar width: 0
Storing dark spectrum: false
XAxis mode: Wavelengths
Number of Pixels in Spectrum: 1024
>>>>>Begin Spectral Data<<<<<
801.071	2902
801.214	2929
801.356	2864
801.499	2906
801.641	2868
801.783	2914
801.926	3028
802.068	2990
802.211	3001
802.353	3024
802.496	2967
802.638	3013
802.78	3005
802.923	3081
803.065	3005
803.208	2902
803.35	2933
803.492	2929
803.635	2906
803.777	2769
803.919	2872
804.061	3161
804.204	2948
804.346	2883
804.488	2842
804.63	2975
804.773	2853
804.915	2910
805.057	3058
805.199	2956
805.341	2944
805.483	3058
805.626	3020
805.768	2956
805.91	3066
806.052	3146
806.194	3024
806.336	3222
806.478	3047
806.62	2948
806.762	2994
806.904	3032
807.046	3173
807.188	2979
807.33	2929
807.472	2979
807.614	2937
807.756	2967
807.898	2941
808.04	2902
808.182	2994
808.324	2937
808.465	2872
808.607	2872
808.749	2777
808.891	2845
809.033	2960
809.174	2948
809.316	2895
809.458	2883
809.6	2777
809.741	2758
809.883	2750
810.025	2868
810.166	2853
810.308	2842
810.45	2815
810.591	2785
810.733	2773
810.875	2826
811.016	2773
811.158	2750
811.299	2804
811.441	2929
811.582	2861
811.724	2834
811.865	2807
812.007	2880
812.148	2880
812.29	2876
812.431	2853
812.573	2952
812.714	2952
812.855	3017
812.997	3028
813.138	3154
813.279	3017
813.421	3001
813.562	2967
813.703	2899
813.845	2864
813.986	2769
814.127	2705
814.268	2815
814.41	2842
814.551	2796
814.692	2838
814.833	2796
814.974	2933
815.115	2971
815.256	2811
815.397	2769
815.539	2853
815.68	2750
815.821	2796
815.962	2933
816.103	2918
816.244	2880
816.385	2899
816.526	2937
816.666	2937
816.807	2727
816.948	2880
817.089	2910
817.23	2842
817.371	2781
817.512	2807
817.653	2842
817.793	2838
817.934	2868
818.075	2960
818.216	2982
818.356	3017
818.497	2880
818.638	2785
818.778	2807
818.919	2807
819.06	2750
819.2	2899
819.341	2830
819.481	2796
819.622	2948
819.762	3070
819.903	3051
820.043	2918
820.184	2864
820.324	2902
820.465	3051
820.605	2994
820.746	2994
820.886	2906
821.026	3074
821.167	3161
821.307	3291
821.447	3256
821.588	3230
821.728	3195
821.868	3180
822.008	3043
822.149	3173
822.289	3226
822.429	3081
822.569	3085
822.709	3161
822.849	3028
822.99	3100
823.13	3123
823.27	3249
823.41	3112
823.55	3154
823.69	3119
823.83	3173
823.97	3104
824.11	3028
824.25	2963
824.389	3066
824.529	3104
824.669	3043
824.809	3188
824.949	3226
825.089	3222
825.228	3176
825.368	3028
825.508	2963
825.648	3001
825.787	2986
825.927	3005
826.067	2963
826.206	2902
826.346	3062
826.485	3097
826.625	3070
826.765	3226
826.904	3188
827.044	2990
827.183	2902
827.323	2857
827.462	2937
827.601	2937
827.741	2910
827.88	2914
828.02	2861
828.159	2979
828.298	3032
828.437	3077
828.577	3036
828.716	3203
828.855	3089
828.994	2902
829.134	2906
829.273	2914
829.412	2853
829.551	2849
829.69	2864
829.829	2956
829.968	3157
830.107	3009
830.246	3020
830.385	2918
830.524	2887
830.663	2830
830.802	2701
830.941	2625
831.08	2648
831.219	2735
831.357	2727
831.496	2925
831.635	2697
831.774	2625
831.913	2632
832.051	2511
832.19	2571
832.329	2670
832.467	2522
832.606	2473
832.744	2552
832.883	2568
833.022	2579
833.16	2674
833.299	2678
833.437	2693
833.576	2705
833.714	2731
833.852	2701
833.991	2724
834.129	2796
834.267	2819
834.406	2788
834.544	2838
834.682	2861
834.821	2845
834.959	3097
835.097	2933
835.235	3051
835.373	2960
835.511	3013
835.65	2944
835.788	2933
835.926	2853
836.064	2804
836.202	2823
836.34	3055
836.478	3127
836.615	3036
836.753	3142
836.891	3176
837.029	3173
837.167	3077
837.305	3051
837.443	3036
837.58	2948
837.718	3173
837.856	3047
837.993	3024
838.131	3104
838.269	3100
838.406	3104
838.544	3070
838.681	2902
838.819	2895
838.956	2754
839.094	2819
839.231	2906
839.369	3032
839.506	3363
839.643	3260
839.781	3039
839.918	2994
840.055	3024
840.193	3036
840.33	3032
840.467	3123
840.604	3138
840.742	3367
840.879	3062
841.016	3024
841.153	3058
841.29	3313
841.427	3264
841.564	3256
841.701	3298
841.838	3218
841.975	3180
842.112	3211
842.249	3058
842.385	3074
842.522	3256
842.659	3070
842.796	3074
842.933	3127
843.069	3070
843.206	3047
843.343	3180
843.479	3093
843.616	3138
843.752	2838
843.889	2830
844.025	3055
844.162	2845
844.298	3081
844.435	2899
844.571	2914
844.708	3058
844.844	3192
844.98	3226
845.117	3188
845.253	3055
845.389	3013
845.525	3097
845.661	3119
845.798	3009
845.934	3104
846.07	3070
846.206	3199
846.342	3291
846.478	3226
846.614	3116
846.75	3039
846.886	3051
847.022	3230
847.158	3165
847.294	3192
847.429	3214
847.565	3214
847.701	3473
847.837	3013
847.972	2971
848.108	3169
848.244	3138
848.379	2967
848.515	2944
848.65	2929
848.786	2948
848.921	3005
849.057	3100
849.192	3138
849.328	3097
849.463	3062
849.598	3047
849.734	3013
849.869	2982
850.004	2941
850.14	2998
850.275	2895
850.41	2861
850.545	2880
850.68	2937
850.815	2948
850.95	2994
851.085	3207
851.22	3089
851.355	3055
851.49	2941
851.625	2998
851.76	3032
851.895	2906
852.03	2883
852.165	3001
852.299	3081
852.434	3165
852.569	3116
852.703	3176
852.838	3214
852.973	3313
853.107	3306
853.242	3138
853.376	3085
853.511	2944
853.645	3036
853.78	3264
853.914	3127
854.048	3097
854.183	3058
854.317	3112
854.451	3237
854.585	3135
854.72	3058
854.854	3214
854.988	3024
855.122	3058
855.256	2982
855.39	3085
855.524	3188
855.658	3188
855.792	3142
855.926	3203
856.06	3249
856.194	3256
856.327	3173
856.461	3081
856.595	3077
856.729	3112
856.862	3203
856.996	3127
857.13	3188
857.263	3226
857.397	3298
857.53	3089
857.664	3173
857.797	3233
857.931	3237
858.064	3142
858.197	3176
858.331	3100
858.464	3062
858.597	2990
858.731	3127
858.864	3135
858.997	3070
859.13	3161
859.263	3146
859.396	3222
859.529	3081
859.662	3081
859.795	3020
859.928	3127
860.061	3260
860.194	3275
860.327	3116
860.46	3051
860.592	3218
860.725	3203
860.858	3268
860.99	3127
861.123	3032
861.256	3024
861.388	3142
861.521	3698
861.653	3001
861.786	2967
861.918	2986
862.05	3066
862.183	3070
862.315	3119
862.447	3169
862.58	3108
862.712	2914
862.844	2845
862.976	3028
863.108	3009
863.24	3313
863.372	2910
863.504	2929
863.636	2937
863.768	3001
863.9	3001
864.032	2952
864.164	2952
864.296	3013
864.428	3085
864.559	3066
864.691	3089
864.823	3036
864.954	3032
865.086	3047
865.217	3005
865.349	2941
865.48	3005
865.612	3020
865.743	3138
865.875	2971
866.006	2929
866.137	2952
866.269	2922
866.4	2925
866.531	2891
866.662	2891
866.793	2849
866.924	2883
867.055	2963
867.186	2941
867.317	2883
867.448	2796
867.579	2834
867.71	2845
867.841	2830
867.972	2887
868.103	2891
868.233	2853
868.364	2906
868.495	2922
868.625	3062
868.756	3188
868.886	2963
869.017	3039
869.147	3157
869.278	3157
869.408	3017
869.539	2998
869.669	3104
869.799	3032
869.929	3154
870.06	3100
870.19	3359
870.32	3268
870.45	3233
870.58	3374
870.71	3466
870.84	3458
870.97	3275
871.1	3218
871.23	3507
871.36	3443
871.489	3287
871.619	3428
871.749	3393
871.879	3424
872.008	3458
872.138	3344
872.267	3264
872.397	3123
872.526	3074
872.656	2979
872.785	3062
872.915	3233
873.044	3325
873.173	3214
873.303	3211
873.432	3211
873.561	3211
873.69	3157
873.819	3142
873.948	3203
874.077	3108
874.206	3062
874.335	3066
874.464	3192
874.593	3317
874.722	3233
874.851	3332
874.979	3325
875.108	3344
875.237	3180
875.365	3176
875.494	3165
875.623	3230
875.751	3089
875.88	3104
876.008	3211
876.136	3249
876.265	3325
876.393	3553
876.521	3412
876.65	3363
876.778	3329
876.906	3230
877.034	3184
877.162	3226
877.29	3161
877.418	3253
877.546	3241
877.674	3264
877.802	3214
877.93	3256
878.058	3135
878.185	3112
878.313	3146
878.441	3222
878.568	3077
878.696	3104
878.824	3241
878.951	3264
879.079	3401
879.206	3580
879.333	3450
879.461	3348
879.588	3306
879.715	3530
879.842	3584
879.97	3397
880.097	3180
880.224	3131
880.351	3199
880.478	3237
880.605	3203
880.732	3165
880.859	3485
880.986	3230
881.112	3310
881.239	3142
881.366	3119
881.493	3013
881.619	3005
881.746	3077
881.872	3119
881.999	3093
882.125	3112
882.252	3275
882.378	3313
882.505	3397
882.631	3249
882.757	3161
882.883	3199
883.01	3211
883.136	3180
883.262	3077
883.388	3081
883.514	3275
883.64	3348
883.766	3279
883.892	3188
884.018	3264
884.143	3454
884.269	3538
884.395	3188
884.52	3165
884.646	3169
884.772	3131
884.897	3108
885.023	3150
885.148	3317
885.274	3378
885.399	3389
885.524	3253
885.65	3237
885.775	3336
885.9	3264
886.025	3389
886.15	3310
886.275	3272
886.4	3233
886.525	3291
886.65	3264
886.775	3279
886.9	3504
887.025	3610
887.149	3412
887.274	3245
887.399	3176
887.523	3173
887.648	3127
887.773	3195
887.897	3393
888.021	3393
888.146	3279
888.27	3412
888.395	3477
888.519	3409
888.643	3428
888.767	3462
888.891	3272
889.015	3233
889.139	3279
889.263	3241
889.387	3416
889.511	3492
889.635	3466
889.759	3294
889.883	3237
890.006	3367
890.13	3450
890.254	3302
890.377	3294
890.501	3180
890.624	3169
890.748	3313
890.871	3146
890.995	3165
891.118	3058
891.241	3199
891.364	3169
891.488	3340
891.611	3150
891.734	3233
891.857	3294
891.98	3237
892.103	3340
892.226	3287
892.349	3146
892.471	3085
892.594	3207
892.717	3310
892.839	3287
892.962	3336
893.085	3332
893.207	3272
893.33	3123
893.452	3180
893.575	3329
893.697	3203
893.819	3447
893.941	3496
894.064	3450
894.186	3249
894.308	3241
894.43	3435
894.552	3534
894.674	3481
894.796	3260
894.918	3306
895.04	3317
895.161	3401
895.283	3420
895.405	3325
895.526	3382
895.648	3466
895.769	3428
895.891	3412
896.012	3458
896.134	3435
896.255	3386
896.376	3386
896.498	3359
896.619	3397
896.74	3344
896.861	3416
896.982	3667
897.103	3831
897.224	3591
897.345	3511
897.466	3431
897.587	3500
897.708	3629
897.828	3542
897.949	3454
898.07	3313
898.19	3355
898.311	3603
898.431	3458
898.552	3496
898.672	3568
898.792	3576
898.913	3481
899.033	3424
899.153	3283
899.273	3268
899.393	3275
899.513	3325
899.633	3317
899.753	3321
899.873	3279
899.993	3397
900.113	3359
900.232	3405
900.352	3355
900.472	3287
900.591	3192
900.711	3291
900.83	3249
900.95	3416
901.069	3492
901.189	3344
901.308	3184
901.427	3142
901.546	3203
901.665	3336
901.784	3355
901.904	3218
902.023	3176
902.141	2990
902.26	3032
902.379	3112
902.498	3051
902.617	3043
902.735	3249
902.854	3203
902.973	3188
903.091	3051
903.21	3066
903.328	3154
903.446	3093
903.565	3127
903.683	3207
903.801	3100
903.919	3253
904.038	3329
904.156	3138
904.274	3306
904.392	3253
904.51	3310
904.627	3313
904.745	3454
904.863	3496
904.981	3241
905.098	3169
905.216	3218
905.334	3287
905.451	3256
905.569	3336
905.686	3435
905.803	3412
905.921	3260
906.038	3393
906.155	3294
906.272	3272
906.389	3344
906.506	3199
906.623	3245
906.74	3268
906.857	3192
906.974	3249
907.091	3428
907.208	3587
907.324	3488
907.441	3405
907.557	3241
907.674	3218
907.79	3203
907.907	3241
908.023	3409
908.139	3367
908.256	3348
908.372	3336
908.488	3374
908.604	3207
908.72	3241
908.836	3283
908.952	3310
909.068	3370
909.184	3473
909.3	3359
909.415	3504
909.531	3473
909.647	3241
909.762	3291
909.878	3230
909.993	3302
910.108	3351
910.224	3310
910.339	3409
910.454	3344
910.57	3291
910.685	3253
910.8	3584
910.915	3496
911.03	3382
911.145	3260
911.259	3279
911.374	3329
911.489	3222
911.604	3233
911.718	3116
911.833	3127
911.947	3032
912.062	2975
912.176	3157
912.291	3207
912.405	3237
912.519	3401
912.633	3469
912.748	3363
912.862	3268
912.976	3146
913.09	3032
913.204	3165
913.318	3199
913.431	3321
913.545	3363
913.659	3386
913.772	3340
913.886	3222
914	3188
914.113	3340
914.226	3393
914.34	3374
914.453	3207
914.566	3382
914.68	3253
914.793	3283
914.906	3157
915.019	3089
915.132	3051
915.245	3173
915.358	3195
915.47	3226
915.583	3264
915.696	3264
915.809	3409
915.921	3466
916.034	3245
916.146	3256
916.259	3207
916.371	3363
916.483	3389
916.595	3264
916.708	3283
916.82	3321
916.932	3325
917.044	3336
917.156	3332
917.268	3279
917.38	3298
917.491	3268
917.603	3378
917.715	3412
917.826	3458
917.938	3405
918.049	3218
918.161	3397
918.272	3564
918.384	3572
918.495	3488
918.606	3355
918.717	3214
918.828	3344
918.939	3412
919.05	3336
919.161	3382
919.272	3154
919.383	3268
919.494	3492
919.604	3701
919.715	3500
919.826	3409
919.936	3431
920.047	3595
920.157	3530
920.267	3762
920.378	3580
920.488	3564
920.598	3789
920.708	3968
920.818	3812
920.928	3819
921.038	3983
921.148	3994
921.258	3694
921.368	3603
921.477	3587
921.587	3542
921.697	3496
921.806	3618
921.916	3488
922.025	3382
922.134	3355
922.244	3310
922.353	3439
922.462	3237
922.571	3245
922.68	3085
922.789	3062
922.898	3146
923.007	3108
923.116	3195
923.224	3157
923.333	3188
923.442	3116
923.55	3093
923.659	3131
923.767	3222
923.876	3089
923.984	3245
924.092	3116
924.201	3180
924.309	3241
924.417	3222
924.525	3195
924.633	3253
924.741	4025
924.849	3024
924.956	3268
925.064	3093
925.172	3020
925.279	3142
925.387	3165
925.494	3184
925.602	3367
925.709	3306
925.816	3184
925.924	3298
926.031	3370
926.138	3340
926.245	3351
926.352	3279
926.459	3397
926.566	3466
926.673	3306
926.779	3272
926.886	3237
926.993	3127
927.099	3127
927.206	3119
927.312	3127
927.419	3218
927.525	3218
927.631	3283
927.737	3131
927.843	3127
927.95	3013
928.056	3142
928.162	3180
928.267	3226
928.373	3850
928.479	3310
928.585	3081
928.69	3195
928.796	3214
928.901	3154
929.007	3032
929.112	3214
929.218	3195
929.323	3116
929.428	3169
929.533	3272
929.638	3116
929.743	3165
929.848	3294
929.953	3195
930.058	3119
930.163	3001
930.267	3043
930.372	3199
930.477	3013
930.581	3306
930.685	3211
930.79	3055
930.894	3112
930.998	3081
931.103	3275
931.207	2944
931.311	2937
931.415	2918
931.519	2800
931.623	2804
