Data from test_V78500241_701.txt Node
Date: Fri Mar 25 16:20:03 CST 2022
User: usil
Spectrometer: V785-0024
Trigger mode: 0
Integration Time (sec): 4.000000E-1
Scans to average: 1
Nonlinearity correction enabled: false
Boxcar width: 0
Storing dark spectrum: false
XAxis mode: Wavelengths
Number of Pixels in Spectrum: 1024
>>>>>Begin Spectral Data<<<<<
801.071	2952
801.214	2963
801.356	2861
801.499	2902
801.641	2891
801.783	2944
801.926	3081
802.068	2975
802.211	3005
802.353	3039
802.496	2963
802.638	3058
802.78	3047
802.923	3100
803.065	3039
803.208	2887
803.35	2906
803.492	2956
803.635	2960
803.777	2788
803.919	2895
804.061	3237
804.204	2925
804.346	2941
804.488	2857
804.63	3009
804.773	2876
804.915	2925
805.057	3108
805.199	2925
805.341	2975
805.483	3039
805.626	3005
805.768	2982
805.91	3089
806.052	3176
806.194	3062
806.336	3211
806.478	3020
806.62	2937
806.762	2979
806.904	3093
807.046	3195
807.188	2998
807.33	2929
807.472	2960
807.614	2922
807.756	2971
807.898	2918
808.04	2899
808.182	2979
808.324	2952
808.465	2887
808.607	2887
808.749	2807
808.891	2880
809.033	3013
809.174	2982
809.316	2914
809.458	2887
809.6	2811
809.741	2838
809.883	2788
810.025	2872
810.166	2906
810.308	2815
810.45	2838
810.591	2792
810.733	2766
810.875	2868
811.016	2754
811.158	2811
811.299	2823
811.441	2941
811.582	2895
811.724	2853
811.865	2834
812.007	2906
812.148	2876
812.29	2842
812.431	2880
812.573	2922
812.714	2967
812.855	3058
812.997	3077
813.138	3131
813.279	3043
813.421	2952
813.562	2952
813.703	2872
813.845	2899
813.986	2800
814.127	2720
814.268	2830
814.41	2792
814.551	2830
814.692	2902
814.833	2830
814.974	2914
815.115	2944
815.256	2849
815.397	2804
815.539	2876
815.68	2773
815.821	2800
815.962	2960
816.103	2952
816.244	2830
816.385	2872
816.526	2963
816.666	2891
816.807	2766
816.948	2895
817.089	2899
817.23	2857
817.371	2750
817.512	2792
817.653	2845
817.793	2815
817.934	2887
818.075	2967
818.216	2990
818.356	3051
818.497	2902
818.638	2792
818.778	2815
818.919	2800
819.06	2788
819.2	2887
819.341	2823
819.481	2788
819.622	2944
819.762	3097
819.903	3028
820.043	2918
820.184	2929
820.324	2895
820.465	3032
820.605	3001
820.746	3020
820.886	2967
821.026	3116
821.167	3176
821.307	3249
821.447	3306
821.588	3230
821.728	3260
821.868	3199
822.008	3074
822.149	3218
822.289	3237
822.429	3104
822.569	3100
822.709	3195
822.849	3051
822.99	3077
823.13	3176
823.27	3230
823.41	3154
823.55	3188
823.69	3180
823.83	3222
823.97	3127
824.11	3001
824.25	3020
824.389	3062
824.529	3146
824.669	3116
824.809	3211
824.949	3294
825.089	3226
825.228	3169
825.368	3032
825.508	2990
825.648	2990
825.787	3039
825.927	3051
826.067	3017
826.206	2998
826.346	3112
826.485	3119
826.625	3169
826.765	3287
826.904	3226
827.044	3013
827.183	2975
827.323	2883
827.462	3017
827.601	2963
827.741	2990
827.88	3039
828.02	2891
828.159	2998
828.298	3066
828.437	3157
828.577	3093
828.716	3268
828.855	3157
828.994	2986
829.134	2914
829.273	2971
829.412	2914
829.551	2918
829.69	2937
829.829	3036
829.968	3150
830.107	3089
830.246	3070
830.385	2982
830.524	2910
830.663	2853
830.802	2754
830.941	2674
831.08	2678
831.219	2796
831.357	2811
831.496	2967
831.635	2762
831.774	2689
831.913	2701
832.051	2575
832.19	2613
832.329	2739
832.467	2594
832.606	2518
832.744	2663
832.883	2625
833.022	2583
833.16	2705
833.299	2720
833.437	2777
833.576	2739
833.714	2773
833.852	2769
833.991	2773
834.129	2922
834.267	2883
834.406	2838
834.544	2910
834.682	2922
834.821	2880
834.959	3135
835.097	2918
835.235	3089
835.373	3047
835.511	3062
835.65	2979
835.788	2994
835.926	2883
836.064	2845
836.202	2864
836.34	3123
836.478	3184
836.615	3085
836.753	3123
836.891	3230
837.029	3173
837.167	3154
837.305	3104
837.443	3093
837.58	2998
837.718	3173
837.856	3112
837.993	3135
838.131	3135
838.269	3150
838.406	3138
838.544	3062
838.681	2975
838.819	2960
838.956	2864
839.094	2868
839.231	2967
839.369	3039
839.506	3382
839.643	3283
839.781	3043
839.918	2979
840.055	3085
840.193	3066
840.33	3093
840.467	3127
840.604	3165
840.742	3412
840.879	3077
841.016	3055
841.153	3135
841.29	3355
841.427	3329
841.564	3298
841.701	3359
841.838	3207
841.975	3203
842.112	3245
842.249	3085
842.385	3055
842.522	3329
842.659	3119
842.796	3112
842.933	3135
843.069	3081
843.206	3074
843.343	3192
843.479	3142
843.616	3135
843.752	2910
843.889	2880
844.025	3093
844.162	2906
844.298	3112
844.435	2971
844.571	2933
844.708	3127
844.844	3192
844.98	3253
845.117	3218
845.253	3104
845.389	3032
845.525	3165
845.661	3135
845.798	3047
845.934	3135
846.07	3085
846.206	3203
846.342	3386
846.478	3245
846.614	3157
846.75	3089
846.886	3043
847.022	3310
847.158	3169
847.294	3226
847.429	3260
847.565	3226
847.701	3519
847.837	3047
847.972	3070
848.108	3169
848.244	3169
848.379	3024
848.515	2979
848.65	2967
848.786	2929
848.921	3017
849.057	3112
849.192	3173
849.328	3119
849.463	3127
849.598	3081
849.734	3055
849.869	3020
850.004	2948
850.14	3020
850.275	2925
850.41	2872
850.545	2902
850.68	2941
850.815	2990
850.95	2979
851.085	3237
851.22	3127
851.355	3100
851.49	3013
851.625	3039
851.76	3020
851.895	2952
852.03	2925
852.165	3039
852.299	3123
852.434	3203
852.569	3184
852.703	3211
852.838	3283
852.973	3370
853.107	3370
853.242	3222
853.376	3127
853.511	2990
853.645	3047
853.78	3287
853.914	3116
854.048	3112
854.183	3104
854.317	3150
854.451	3310
854.585	3165
854.72	3112
854.854	3222
854.988	3089
855.122	3119
855.256	3005
855.39	3135
855.524	3275
855.658	3230
855.792	3150
855.926	3169
856.06	3245
856.194	3298
856.327	3161
856.461	3108
856.595	3085
856.729	3097
856.862	3226
856.996	3230
857.13	3207
857.263	3268
857.397	3283
857.53	3157
857.664	3207
857.797	3260
857.931	3283
858.064	3188
858.197	3233
858.331	3150
858.464	3127
858.597	3043
858.731	3123
858.864	3161
858.997	3104
859.13	3188
859.263	3195
859.396	3199
859.529	3116
859.662	3131
859.795	3043
859.928	3165
860.061	3294
860.194	3298
860.327	3195
860.46	3123
860.592	3279
860.725	3233
860.858	3222
860.99	3157
861.123	3085
861.256	3123
861.388	3180
861.521	3899
861.653	3047
861.786	3020
861.918	3013
862.05	3062
862.183	3108
862.315	3161
862.447	3218
862.58	3161
862.712	2994
862.844	2880
862.976	3032
863.108	3017
863.24	3454
863.372	2937
863.504	2986
863.636	2967
863.768	3085
863.9	2990
864.032	2956
864.164	2971
864.296	3013
864.428	3119
864.559	3116
864.691	3070
864.823	3104
864.954	3051
865.086	3070
865.217	3013
865.349	2979
865.48	3005
865.612	3032
865.743	3176
865.875	3005
866.006	2975
866.137	2971
866.269	2975
866.4	2952
866.531	2948
866.662	2914
866.793	2929
866.924	2918
867.055	2994
867.186	2971
867.317	2925
867.448	2868
867.579	2883
867.71	2880
867.841	2842
867.972	2883
868.103	2952
868.233	2933
868.364	2910
868.495	2941
868.625	3127
868.756	3165
868.886	2990
869.017	3047
869.147	3161
869.278	3184
869.408	3077
869.539	3043
869.669	3043
869.799	3077
869.929	3142
870.06	3112
870.19	3336
870.32	3298
870.45	3332
870.58	3409
870.71	3485
870.84	3458
870.97	3310
871.1	3275
871.23	3542
871.36	3447
871.489	3382
871.619	3431
871.749	3424
871.879	3439
872.008	3492
872.138	3382
872.267	3313
872.397	3142
872.526	3108
872.656	3043
872.785	3154
872.915	3253
873.044	3294
873.173	3268
873.303	3272
873.432	3253
873.561	3230
873.69	3176
873.819	3165
873.948	3233
874.077	3135
874.206	3055
874.335	3085
874.464	3222
874.593	3351
874.722	3256
874.851	3412
874.979	3321
875.108	3351
875.237	3218
875.365	3169
875.494	3180
875.623	3222
875.751	3062
875.88	3146
876.008	3211
876.136	3245
876.265	3359
876.393	3500
876.521	3435
876.65	3439
876.778	3374
876.906	3260
877.034	3203
877.162	3226
877.29	3173
877.418	3294
877.546	3275
877.674	3253
877.802	3241
877.93	3260
878.058	3146
878.185	3123
878.313	3214
878.441	3203
878.568	3081
878.696	3138
878.824	3283
878.951	3336
879.079	3488
879.206	3644
879.333	3462
879.461	3378
879.588	3359
879.715	3492
879.842	3606
879.97	3405
880.097	3207
880.224	3165
880.351	3203
880.478	3226
880.605	3226
880.732	3207
880.859	3511
880.986	3306
881.112	3348
881.239	3241
881.366	3112
881.493	3043
881.619	3028
881.746	3100
881.872	3100
881.999	3093
882.125	3123
882.252	3222
882.378	3287
882.505	3431
882.631	3294
882.757	3188
882.883	3207
883.01	3256
883.136	3173
883.262	3142
883.388	3108
883.514	3313
883.64	3424
883.766	3306
883.892	3214
884.018	3287
884.143	3409
884.269	3542
884.395	3233
884.52	3211
884.646	3195
884.772	3157
884.897	3131
885.023	3233
885.148	3336
885.274	3431
885.399	3382
885.524	3310
885.65	3279
885.775	3344
885.9	3275
886.025	3435
886.15	3378
886.275	3363
886.4	3230
886.525	3291
886.65	3279
886.775	3306
886.9	3462
887.025	3656
887.149	3401
887.274	3287
887.399	3188
887.523	3218
887.648	3233
887.773	3214
887.897	3348
888.021	3401
888.146	3283
888.27	3412
888.395	3576
888.519	3447
888.643	3477
888.767	3466
888.891	3340
889.015	3230
889.139	3291
889.263	3237
889.387	3416
889.511	3549
889.635	3431
889.759	3283
889.883	3332
890.006	3378
890.13	3504
890.254	3256
890.377	3321
890.501	3226
890.624	3230
890.748	3298
890.871	3245
890.995	3135
891.118	3062
891.241	3195
891.364	3214
891.488	3313
891.611	3188
891.734	3218
891.857	3291
891.98	3260
892.103	3393
892.226	3279
892.349	3176
892.471	3085
892.594	3237
892.717	3283
892.839	3298
892.962	3332
893.085	3386
893.207	3302
893.33	3184
893.452	3233
893.575	3348
893.697	3268
893.819	3469
893.941	3519
894.064	3454
894.186	3253
894.308	3256
894.43	3412
894.552	3549
894.674	3450
894.796	3298
894.918	3344
895.04	3287
895.161	3454
895.283	3389
895.405	3321
895.526	3355
895.648	3416
895.769	3447
895.891	3477
896.012	3473
896.134	3454
896.255	3416
896.376	3458
896.498	3332
896.619	3431
896.74	3378
896.861	3405
896.982	3701
897.103	3857
897.224	3576
897.345	3545
897.466	3462
897.587	3496
897.708	3663
897.828	3534
897.949	3435
898.07	3348
898.19	3409
898.311	3622
898.431	3412
898.552	3538
898.672	3595
898.792	3614
898.913	3523
899.033	3435
899.153	3306
899.273	3226
899.393	3291
899.513	3332
899.633	3313
899.753	3367
899.873	3306
899.993	3329
900.113	3332
900.232	3386
900.352	3344
900.472	3298
900.591	3241
900.711	3298
900.83	3279
900.95	3428
901.069	3504
901.189	3317
901.308	3188
901.427	3138
901.546	3207
901.665	3302
901.784	3306
901.904	3211
902.023	3165
902.141	3009
902.26	3043
902.379	3169
902.498	3123
902.617	3123
902.735	3222
902.854	3245
902.973	3195
903.091	3062
903.21	3081
903.328	3184
903.446	3150
903.565	3112
903.683	3211
903.801	3135
903.919	3226
904.038	3291
904.156	3188
904.274	3313
904.392	3249
904.51	3306
904.627	3370
904.745	3431
904.863	3538
904.981	3256
905.098	3211
905.216	3233
905.334	3317
905.451	3306
905.569	3313
905.686	3409
905.803	3431
905.921	3272
906.038	3409
906.155	3332
906.272	3283
906.389	3367
906.506	3230
906.623	3256
906.74	3241
906.857	3188
906.974	3237
907.091	3450
907.208	3618
907.324	3469
907.441	3382
907.557	3241
907.674	3272
907.79	3226
907.907	3264
908.023	3359
908.139	3409
908.256	3401
908.372	3359
908.488	3344
908.604	3260
908.72	3268
908.836	3268
908.952	3268
909.068	3374
909.184	3492
909.3	3370
909.415	3523
909.531	3496
909.647	3260
909.762	3279
909.878	3237
909.993	3378
910.108	3321
910.224	3393
910.339	3435
910.454	3317
910.57	3306
910.685	3237
910.8	3561
910.915	3538
911.03	3450
911.145	3279
911.259	3272
911.374	3321
911.489	3249
911.604	3222
911.718	3081
911.833	3142
911.947	3039
912.062	3028
912.176	3150
912.291	3211
912.405	3237
912.519	3431
912.633	3477
912.748	3355
912.862	3249
912.976	3203
913.09	3058
913.204	3150
913.318	3230
913.431	3310
913.545	3351
913.659	3420
913.772	3283
913.886	3241
914	3207
914.113	3340
914.226	3416
914.34	3374
914.453	3173
914.566	3409
914.68	3256
914.793	3283
914.906	3112
915.019	3119
915.132	3089
915.245	3173
915.358	3192
915.47	3226
915.583	3253
915.696	3325
915.809	3443
915.921	3428
916.034	3287
916.146	3260
916.259	3222
916.371	3363
916.483	3428
916.595	3291
916.708	3348
916.82	3332
916.932	3348
917.044	3336
917.156	3386
917.268	3256
917.38	3283
917.491	3332
917.603	3367
917.715	3447
917.826	3439
917.938	3382
918.049	3256
918.161	3389
918.272	3576
918.384	3618
918.495	3466
918.606	3321
918.717	3306
918.828	3389
918.939	3409
919.05	3268
919.161	3367
919.272	3184
919.383	3294
919.494	3473
919.604	3679
919.715	3473
919.826	3382
919.936	3466
920.047	3580
920.157	3549
920.267	3751
920.378	3584
920.488	3591
920.598	3766
920.708	3972
920.818	3865
920.928	3816
921.038	4040
921.148	3991
921.258	3736
921.368	3675
921.477	3610
921.587	3530
921.697	3431
921.806	3625
921.916	3553
922.025	3359
922.134	3374
922.244	3370
922.353	3428
922.462	3264
922.571	3203
922.68	3104
922.789	3066
922.898	3146
923.007	3100
923.116	3203
923.224	3169
923.333	3199
923.442	3085
923.55	3093
923.659	3161
923.767	3184
923.876	3097
923.984	3272
924.092	3066
924.201	3165
924.309	3222
924.417	3279
924.525	3184
924.633	3245
924.741	4177
924.849	3074
924.956	3260
925.064	3097
925.172	3055
925.279	3123
925.387	3207
925.494	3222
925.602	3351
925.709	3329
925.816	3169
925.924	3294
926.031	3363
926.138	3363
926.245	3378
926.352	3230
926.459	3397
926.566	3485
926.673	3325
926.779	3275
926.886	3279
926.993	3188
927.099	3154
927.206	3123
927.312	3135
927.419	3222
927.525	3176
927.631	3275
927.737	3150
927.843	3123
927.95	3085
928.056	3116
928.162	3154
928.267	3275
928.373	3827
928.479	3317
928.585	3051
928.69	3230
928.796	3260
928.901	3169
929.007	3039
929.112	3214
929.218	3142
929.323	3131
929.428	3138
929.533	3287
929.638	3127
929.743	3119
929.848	3237
929.953	3199
930.058	3150
930.163	2960
930.267	3047
930.372	3195
930.477	3055
930.581	3321
930.685	3157
930.79	3043
930.894	3100
930.998	3100
931.103	3264
931.207	2933
931.311	2887
931.415	2941
931.519	2785
931.623	2815
