Data from test_V78500241_2028.txt Node
Date: Fri Mar 25 16:29:15 CST 2022
User: usil
Spectrometer: V785-0024
Trigger mode: 0
Integration Time (sec): 4.000000E-1
Scans to average: 1
Nonlinearity correction enabled: false
Boxcar width: 0
Storing dark spectrum: false
XAxis mode: Wavelengths
Number of Pixels in Spectrum: 1024
>>>>>Begin Spectral Data<<<<<
801.071	2941
801.214	2952
801.356	2902
801.499	2861
801.641	2891
801.783	2929
801.926	3074
802.068	2998
802.211	3005
802.353	2994
802.496	2960
802.638	3009
802.78	3017
802.923	3074
803.065	3024
803.208	2914
803.35	2891
803.492	2963
803.635	2925
803.777	2769
803.919	2830
804.061	3192
804.204	2975
804.346	2918
804.488	2826
804.63	2979
804.773	2880
804.915	2960
805.057	3093
805.199	2944
805.341	3013
805.483	3066
805.626	3036
805.768	2952
805.91	3070
806.052	3161
806.194	3058
806.336	3207
806.478	3039
806.62	2963
806.762	2986
806.904	3058
807.046	3157
807.188	3013
807.33	2937
807.472	3013
807.614	2929
807.756	2975
807.898	2937
808.04	2861
808.182	2960
808.324	2948
808.465	2902
808.607	2895
808.749	2788
808.891	2864
809.033	2925
809.174	2975
809.316	2868
809.458	2883
809.6	2769
809.741	2773
809.883	2788
810.025	2872
810.166	2826
810.308	2845
810.45	2830
810.591	2769
810.733	2746
810.875	2826
811.016	2773
811.158	2754
811.299	2800
811.441	2880
811.582	2868
811.724	2823
811.865	2800
812.007	2899
812.148	2887
812.29	2857
812.431	2883
812.573	2956
812.714	2967
812.855	3024
812.997	3051
813.138	3077
813.279	3017
813.421	2975
813.562	2952
813.703	2883
813.845	2849
813.986	2785
814.127	2746
814.268	2815
814.41	2872
814.551	2796
814.692	2891
814.833	2811
814.974	2887
815.115	2941
815.256	2838
815.397	2758
815.539	2861
815.68	2766
815.821	2762
815.962	2922
816.103	2937
816.244	2895
816.385	2834
816.526	2998
816.666	2891
816.807	2754
816.948	2880
817.089	2925
817.23	2830
817.371	2754
817.512	2777
817.653	2864
817.793	2811
817.934	2876
818.075	2941
818.216	3005
818.356	3001
818.497	2883
818.638	2792
818.778	2811
818.919	2804
819.06	2750
819.2	2868
819.341	2838
819.481	2819
819.622	2918
819.762	3104
819.903	3036
820.043	2937
820.184	2891
820.324	2895
820.465	3020
820.605	2982
820.746	2994
820.886	2910
821.026	3093
821.167	3184
821.307	3264
821.447	3302
821.588	3279
821.728	3199
821.868	3154
822.008	3058
822.149	3176
822.289	3222
822.429	3100
822.569	3058
822.709	3180
822.849	3013
822.99	3051
823.13	3150
823.27	3226
823.41	3131
823.55	3165
823.69	3108
823.83	3165
823.97	3081
824.11	2990
824.25	2994
824.389	3066
824.529	3112
824.669	3047
824.809	3154
824.949	3207
825.089	3214
825.228	3142
825.368	3013
825.508	2960
825.648	2963
825.787	2990
825.927	3001
826.067	2967
826.206	2944
826.346	3077
826.485	3039
826.625	3097
826.765	3272
826.904	3207
827.044	2982
827.183	2933
827.323	2876
827.462	2986
827.601	2925
827.741	2929
827.88	2990
828.02	2914
828.159	2956
828.298	3028
828.437	3127
828.577	3047
828.716	3256
828.855	3127
828.994	2975
829.134	2883
829.273	2922
829.412	2868
829.551	2891
829.69	2925
829.829	3009
829.968	3161
830.107	3039
830.246	3074
830.385	2990
830.524	2914
830.663	2872
830.802	2769
830.941	2693
831.08	2689
831.219	2762
831.357	2792
831.496	2982
831.635	2746
831.774	2720
831.913	2693
832.051	2556
832.19	2648
832.329	2686
832.467	2549
832.606	2522
832.744	2636
832.883	2617
833.022	2640
833.16	2674
833.299	2735
833.437	2731
833.576	2750
833.714	2727
833.852	2788
833.991	2792
834.129	2842
834.267	2853
834.406	2842
834.544	2910
834.682	2941
834.821	2933
834.959	3142
835.097	2960
835.235	3089
835.373	3032
835.511	3058
835.65	2998
835.788	2994
835.926	2864
836.064	2876
836.202	2883
836.34	3123
836.478	3188
836.615	3097
836.753	3184
836.891	3264
837.029	3180
837.167	3142
837.305	3093
837.443	3066
837.58	3005
837.718	3169
837.856	3085
837.993	3058
838.131	3165
838.269	3165
838.406	3123
838.544	3150
838.681	2971
838.819	2941
838.956	2838
839.094	2864
839.231	2952
839.369	3051
839.506	3435
839.643	3237
839.781	3039
839.918	3017
840.055	3039
840.193	3093
840.33	3104
840.467	3112
840.604	3142
840.742	3443
840.879	3051
841.016	3100
841.153	3146
841.29	3363
841.427	3348
841.564	3245
841.701	3336
841.838	3230
841.975	3211
842.112	3237
842.249	3146
842.385	3081
842.522	3287
842.659	3138
842.796	3081
842.933	3112
843.069	3051
843.206	3070
843.343	3195
843.479	3123
843.616	3176
843.752	2876
843.889	2914
844.025	3093
844.162	2883
844.298	3100
844.435	2979
844.571	2948
844.708	3119
844.844	3203
844.98	3268
845.117	3268
845.253	3081
845.389	3028
845.525	3119
845.661	3154
845.798	3047
845.934	3119
846.07	3127
846.206	3283
846.342	3344
846.478	3233
846.614	3116
846.75	3093
846.886	3081
847.022	3291
847.158	3180
847.294	3230
847.429	3283
847.565	3230
847.701	3504
847.837	3039
847.972	3028
848.108	3226
848.244	3169
848.379	3024
848.515	2994
848.65	2956
848.786	2994
848.921	3039
849.057	3142
849.192	3192
849.328	3135
849.463	3112
849.598	3074
849.734	3020
849.869	2975
850.004	2933
850.14	3013
850.275	2937
850.41	2853
850.545	2925
850.68	2979
850.815	3013
850.95	3013
851.085	3241
851.22	3142
851.355	3058
851.49	3017
851.625	3013
851.76	3051
851.895	2967
852.03	2944
852.165	3051
852.299	3131
852.434	3272
852.569	3218
852.703	3199
852.838	3237
852.973	3359
853.107	3317
853.242	3173
853.376	3108
853.511	3013
853.645	3051
853.78	3268
853.914	3169
854.048	3108
854.183	3116
854.317	3157
854.451	3287
854.585	3127
854.72	3146
854.854	3241
854.988	3077
855.122	3093
855.256	2986
855.39	3112
855.524	3268
855.658	3188
855.792	3161
855.926	3218
856.06	3237
856.194	3245
856.327	3161
856.461	3112
856.595	3108
856.729	3131
856.862	3272
856.996	3226
857.13	3218
857.263	3237
857.397	3344
857.53	3142
857.664	3188
857.797	3241
857.931	3313
858.064	3192
858.197	3241
858.331	3157
858.464	3112
858.597	3032
858.731	3142
858.864	3146
858.997	3116
859.13	3188
859.263	3207
859.396	3218
859.529	3097
859.662	3077
859.795	3074
859.928	3207
860.061	3310
860.194	3302
860.327	3199
860.46	3142
860.592	3264
860.725	3294
860.858	3294
860.99	3142
861.123	3089
861.256	3066
861.388	3203
861.521	3888
861.653	3043
861.786	3009
861.918	3043
862.05	3119
862.183	3119
862.315	3195
862.447	3218
862.58	3119
862.712	2986
862.844	2906
862.976	3051
863.108	3032
863.24	3344
863.372	2944
863.504	3024
863.636	3017
863.768	3043
863.9	3017
864.032	2883
864.164	2990
864.296	3036
864.428	3081
864.559	3123
864.691	3104
864.823	3116
864.954	3081
865.086	3062
865.217	3020
865.349	2929
865.48	3066
865.612	3017
865.743	3203
865.875	3032
866.006	2956
866.137	2963
866.269	2979
866.4	2963
866.531	2918
866.662	2902
866.793	2922
866.924	2918
867.055	2952
867.186	2952
867.317	2914
867.448	2910
867.579	2830
867.71	2868
867.841	2823
867.972	2941
868.103	2933
868.233	2887
868.364	2868
868.495	2922
868.625	3074
868.756	3188
868.886	2990
869.017	3043
869.147	3169
869.278	3230
869.408	3051
869.539	3051
869.669	3157
869.799	3104
869.929	3135
870.06	3112
870.19	3344
870.32	3291
870.45	3302
870.58	3409
870.71	3504
870.84	3469
870.97	3283
871.1	3241
871.23	3504
871.36	3462
871.489	3351
871.619	3420
871.749	3447
871.879	3431
872.008	3447
872.138	3389
872.267	3332
872.397	3150
872.526	3093
872.656	3051
872.785	3146
872.915	3279
873.044	3336
873.173	3272
873.303	3260
873.432	3233
873.561	3237
873.69	3180
873.819	3180
873.948	3253
874.077	3135
874.206	3058
874.335	3123
874.464	3218
874.593	3336
874.722	3268
874.851	3409
874.979	3374
875.108	3355
875.237	3222
875.365	3192
875.494	3173
875.623	3245
875.751	3093
875.88	3089
876.008	3230
876.136	3253
876.265	3412
876.393	3519
876.521	3431
876.65	3397
876.778	3340
876.906	3272
877.034	3245
877.162	3256
877.29	3184
877.418	3260
877.546	3249
877.674	3291
877.802	3249
877.93	3287
878.058	3161
878.185	3123
878.313	3230
878.441	3241
878.568	3097
878.696	3165
878.824	3294
878.951	3355
879.079	3492
879.206	3633
879.333	3462
879.461	3329
879.588	3393
879.715	3507
879.842	3629
879.97	3367
880.097	3195
880.224	3146
880.351	3211
880.478	3264
880.605	3203
880.732	3230
880.859	3519
880.986	3272
881.112	3382
881.239	3233
881.366	3123
881.493	3066
881.619	3058
881.746	3081
881.872	3123
881.999	3146
882.125	3169
882.252	3256
882.378	3310
882.505	3439
882.631	3283
882.757	3169
882.883	3253
883.01	3249
883.136	3180
883.262	3108
883.388	3135
883.514	3344
883.64	3382
883.766	3275
883.892	3165
884.018	3272
884.143	3454
884.269	3526
884.395	3256
884.52	3173
884.646	3195
884.772	3108
884.897	3127
885.023	3180
885.148	3359
885.274	3435
885.399	3416
885.524	3291
885.65	3230
885.775	3336
885.9	3313
886.025	3397
886.15	3409
886.275	3306
886.4	3233
886.525	3306
886.65	3294
886.775	3287
886.9	3500
887.025	3625
887.149	3424
887.274	3237
887.399	3184
887.523	3211
887.648	3180
887.773	3218
887.897	3370
888.021	3439
888.146	3336
888.27	3443
888.395	3561
888.519	3450
888.643	3469
888.767	3454
888.891	3382
889.015	3279
889.139	3291
889.263	3264
889.387	3435
889.511	3534
889.635	3439
889.759	3321
889.883	3321
890.006	3374
890.13	3481
890.254	3310
890.377	3340
890.501	3203
890.624	3169
890.748	3321
890.871	3188
890.995	3100
891.118	3093
891.241	3165
891.364	3268
891.488	3332
891.611	3230
891.734	3218
891.857	3287
891.98	3268
892.103	3382
892.226	3344
892.349	3245
892.471	3150
892.594	3249
892.717	3313
892.839	3260
892.962	3302
893.085	3374
893.207	3329
893.33	3173
893.452	3233
893.575	3321
893.697	3275
893.819	3469
893.941	3542
894.064	3443
894.186	3272
894.308	3279
894.43	3431
894.552	3545
894.674	3450
894.796	3260
894.918	3302
895.04	3298
895.161	3477
895.283	3397
895.405	3283
895.526	3378
895.648	3458
895.769	3431
895.891	3447
896.012	3431
896.134	3488
896.255	3420
896.376	3401
896.498	3382
896.619	3458
896.74	3386
896.861	3435
896.982	3682
897.103	3869
897.224	3622
897.345	3515
897.466	3447
897.587	3515
897.708	3606
897.828	3572
897.949	3450
898.07	3340
898.19	3416
898.311	3618
898.431	3473
898.552	3481
898.672	3587
898.792	3625
898.913	3534
899.033	3428
899.153	3279
899.273	3233
899.393	3321
899.513	3336
899.633	3287
899.753	3317
899.873	3313
899.993	3378
900.113	3321
900.232	3393
900.352	3355
900.472	3306
900.591	3253
900.711	3317
900.83	3245
900.95	3386
901.069	3530
901.189	3359
901.308	3211
901.427	3195
901.546	3199
901.665	3298
901.784	3329
901.904	3218
902.023	3150
902.141	2994
902.26	2975
902.379	3146
902.498	3085
902.617	3039
902.735	3211
902.854	3222
902.973	3188
903.091	3036
903.21	3062
903.328	3165
903.446	3119
903.565	3097
903.683	3214
903.801	3184
903.919	3275
904.038	3241
904.156	3192
904.274	3291
904.392	3287
904.51	3317
904.627	3344
904.745	3428
904.863	3534
904.981	3294
905.098	3180
905.216	3268
905.334	3279
905.451	3310
905.569	3291
905.686	3431
905.803	3473
905.921	3264
906.038	3416
906.155	3348
906.272	3279
906.389	3329
906.506	3264
906.623	3264
906.74	3275
906.857	3173
906.974	3249
907.091	3454
907.208	3580
907.324	3458
907.441	3401
907.557	3203
907.674	3222
907.79	3207
907.907	3283
908.023	3405
908.139	3370
908.256	3325
908.372	3382
908.488	3332
908.604	3279
908.72	3230
908.836	3272
908.952	3291
909.068	3317
909.184	3481
909.3	3397
909.415	3485
909.531	3485
909.647	3241
909.762	3291
909.878	3253
909.993	3348
910.108	3325
910.224	3340
910.339	3397
910.454	3378
910.57	3332
910.685	3222
910.8	3584
910.915	3523
911.03	3424
911.145	3291
911.259	3226
911.374	3287
911.489	3268
911.604	3222
911.718	3116
911.833	3188
911.947	3001
912.062	2998
912.176	3165
912.291	3195
912.405	3249
912.519	3454
912.633	3466
912.748	3313
912.862	3298
912.976	3169
913.09	3093
913.204	3135
913.318	3230
913.431	3306
913.545	3291
913.659	3450
913.772	3329
913.886	3188
914	3203
914.113	3378
914.226	3450
914.34	3355
914.453	3199
914.566	3382
914.68	3306
914.793	3336
914.906	3157
915.019	3108
915.132	3108
915.245	3176
915.358	3203
915.47	3222
915.583	3260
915.696	3268
915.809	3386
915.921	3409
916.034	3272
916.146	3253
916.259	3226
916.371	3363
916.483	3370
916.595	3317
916.708	3355
916.82	3306
916.932	3344
917.044	3397
917.156	3382
917.268	3253
917.38	3279
917.491	3287
917.603	3332
917.715	3481
917.826	3473
917.938	3386
918.049	3272
918.161	3428
918.272	3603
918.384	3572
918.495	3519
918.606	3355
918.717	3291
918.828	3370
918.939	3469
919.05	3306
919.161	3382
919.272	3233
919.383	3272
919.494	3507
919.604	3705
919.715	3557
919.826	3420
919.936	3439
920.047	3576
920.157	3561
920.267	3736
920.378	3606
920.488	3564
920.598	3781
920.708	3991
920.818	3831
920.928	3827
921.038	4036
921.148	4025
921.258	3717
921.368	3625
921.477	3618
921.587	3538
921.697	3458
921.806	3614
921.916	3519
922.025	3420
922.134	3374
922.244	3298
922.353	3401
922.462	3275
922.571	3192
922.68	3104
922.789	3074
922.898	3150
923.007	3074
923.116	3203
923.224	3192
923.333	3192
923.442	3081
923.55	3093
923.659	3169
923.767	3192
923.876	3116
923.984	3272
924.092	3112
924.201	3226
924.309	3260
924.417	3268
924.525	3188
924.633	3241
924.741	4200
924.849	3013
924.956	3268
925.064	3142
925.172	3032
925.279	3100
925.387	3195
925.494	3184
925.602	3355
925.709	3302
925.816	3233
925.924	3264
926.031	3393
926.138	3359
926.245	3378
926.352	3241
926.459	3412
926.566	3485
926.673	3336
926.779	3279
926.886	3211
926.993	3146
927.099	3104
927.206	3089
927.312	3123
927.419	3226
927.525	3150
927.631	3264
927.737	3123
927.843	3097
927.95	3074
928.056	3150
928.162	3150
928.267	3237
928.373	3865
928.479	3329
928.585	3097
928.69	3249
928.796	3241
928.901	3199
929.007	3081
929.112	3203
929.218	3214
929.323	3165
929.428	3165
929.533	3321
929.638	3112
929.743	3157
929.848	3279
929.953	3188
930.058	3150
930.163	3001
930.267	3066
930.372	3207
930.477	3036
930.581	3310
930.685	3180
930.79	3070
930.894	3135
930.998	3093
931.103	3302
931.207	2967
931.311	2918
931.415	2933
931.519	2746
931.623	2826
