Data from test_V78500241_1437.txt Node
Date: Fri Mar 25 16:25:09 CST 2022
User: usil
Spectrometer: V785-0024
Trigger mode: 0
Integration Time (sec): 4.000000E-1
Scans to average: 1
Nonlinearity correction enabled: false
Boxcar width: 0
Storing dark spectrum: false
XAxis mode: Wavelengths
Number of Pixels in Spectrum: 1024
>>>>>Begin Spectral Data<<<<<
801.071	2967
801.214	2910
801.356	2872
801.499	2895
801.641	2857
801.783	2918
801.926	3051
802.068	2956
802.211	3058
802.353	3039
802.496	3028
802.638	3013
802.78	3047
802.923	3112
803.065	3028
803.208	2895
803.35	2929
803.492	2925
803.635	2922
803.777	2743
803.919	2868
804.061	3173
804.204	2952
804.346	2922
804.488	2857
804.63	3009
804.773	2868
804.915	2887
805.057	3077
805.199	2906
805.341	2925
805.483	3039
805.626	2998
805.768	2994
805.91	3104
806.052	3100
806.194	3055
806.336	3256
806.478	3066
806.62	2967
806.762	3013
806.904	3085
807.046	3173
807.188	2975
807.33	2933
807.472	2963
807.614	2895
807.756	2982
807.898	2910
808.04	2895
808.182	2944
808.324	2948
808.465	2899
808.607	2842
808.749	2823
808.891	2857
809.033	2990
809.174	2956
809.316	2895
809.458	2952
809.6	2792
809.741	2788
809.883	2769
810.025	2864
810.166	2834
810.308	2864
810.45	2883
810.591	2773
810.733	2804
810.875	2853
811.016	2739
811.158	2727
811.299	2800
811.441	2941
811.582	2937
811.724	2823
811.865	2819
812.007	2891
812.148	2845
812.29	2838
812.431	2868
812.573	2933
812.714	2982
812.855	3039
812.997	3074
813.138	3135
813.279	3005
813.421	2960
813.562	2941
813.703	2906
813.845	2906
813.986	2766
814.127	2682
814.268	2857
814.41	2857
814.551	2830
814.692	2845
814.833	2811
814.974	2899
815.115	2979
815.256	2849
815.397	2788
815.539	2845
815.68	2785
815.821	2845
815.962	2948
816.103	2941
816.244	2876
816.385	2895
816.526	2960
816.666	2929
816.807	2758
816.948	2880
817.089	2910
817.23	2842
817.371	2834
817.512	2815
817.653	2830
817.793	2823
817.934	2883
818.075	2998
818.216	2979
818.356	3036
818.497	2853
818.638	2785
818.778	2838
818.919	2800
819.06	2777
819.2	2906
819.341	2845
819.481	2800
819.622	2937
819.762	3116
819.903	3009
820.043	2952
820.184	2914
820.324	2906
820.465	3043
820.605	3032
820.746	3017
820.886	2944
821.026	3097
821.167	3207
821.307	3329
821.447	3275
821.588	3260
821.728	3211
821.868	3195
822.008	3093
822.149	3203
822.289	3233
822.429	3093
822.569	3081
822.709	3184
822.849	2998
822.99	3081
823.13	3131
823.27	3180
823.41	3127
823.55	3192
823.69	3138
823.83	3188
823.97	3104
824.11	3058
824.25	2982
824.389	3047
824.529	3123
824.669	3097
824.809	3176
824.949	3241
825.089	3230
825.228	3188
825.368	3028
825.508	2941
825.648	2960
825.787	2956
825.927	3017
826.067	2967
826.206	2929
826.346	3077
826.485	3058
826.625	3138
826.765	3214
826.904	3245
827.044	2998
827.183	2948
827.323	2834
827.462	3013
827.601	2933
827.741	2925
827.88	2963
828.02	2853
828.159	2963
828.298	3051
828.437	3104
828.577	3039
828.716	3260
828.855	3097
828.994	2906
829.134	2880
829.273	2902
829.412	2902
829.551	2864
829.69	2891
829.829	2963
829.968	3108
830.107	2998
830.246	2998
830.385	2925
830.524	2918
830.663	2849
830.802	2731
830.941	2663
831.08	2651
831.219	2724
831.357	2766
831.496	2937
831.635	2697
831.774	2617
831.913	2648
832.051	2541
832.19	2575
832.329	2682
832.467	2507
832.606	2465
832.744	2587
832.883	2564
833.022	2568
833.16	2670
833.299	2720
833.437	2701
833.576	2705
833.714	2701
833.852	2758
833.991	2731
834.129	2838
834.267	2826
834.406	2781
834.544	2868
834.682	2887
834.821	2849
834.959	3070
835.097	2891
835.235	3028
835.373	2994
835.511	3020
835.65	2948
835.788	2952
835.926	2811
836.064	2823
836.202	2861
836.34	3062
836.478	3173
836.615	3051
836.753	3116
836.891	3184
837.029	3146
837.167	3097
837.305	3032
837.443	3036
837.58	2960
837.718	3119
837.856	3051
837.993	3020
838.131	3112
838.269	3097
838.406	3116
838.544	3089
838.681	2956
838.819	2918
838.956	2834
839.094	2823
839.231	2922
839.369	3005
839.506	3336
839.643	3211
839.781	2986
839.918	2979
840.055	3043
840.193	3077
840.33	3074
840.467	3104
840.604	3169
840.742	3374
840.879	3055
841.016	3036
841.153	3104
841.29	3329
841.427	3291
841.564	3211
841.701	3298
841.838	3218
841.975	3176
842.112	3230
842.249	3097
842.385	3074
842.522	3260
842.659	3085
842.796	3062
842.933	3108
843.069	3036
843.206	3047
843.343	3199
843.479	3077
843.616	3131
843.752	2876
843.889	2853
844.025	3070
844.162	2902
844.298	3089
844.435	2948
844.571	2876
844.708	3058
844.844	3184
844.98	3233
845.117	3207
845.253	3051
845.389	2994
845.525	3085
845.661	3062
845.798	3005
845.934	3127
846.07	3009
846.206	3249
846.342	3344
846.478	3214
846.614	3112
846.75	3066
846.886	3066
847.022	3230
847.158	3123
847.294	3199
847.429	3249
847.565	3218
847.701	3496
847.837	3047
847.972	2986
848.108	3150
848.244	3150
848.379	2982
848.515	2975
848.65	2937
848.786	2963
848.921	3032
849.057	3097
849.192	3150
849.328	3028
849.463	3104
849.598	3047
849.734	3062
849.869	2944
850.004	2914
850.14	2960
850.275	2895
850.41	2838
850.545	2895
850.68	2933
850.815	2967
850.95	2956
851.085	3169
851.22	3093
851.355	3017
851.49	2990
851.625	3009
851.76	3032
851.895	2914
852.03	2929
852.165	3013
852.299	3104
852.434	3192
852.569	3131
852.703	3199
852.838	3237
852.973	3340
853.107	3302
853.242	3146
853.376	3116
853.511	2979
853.645	3047
853.78	3226
853.914	3131
854.048	3097
854.183	3104
854.317	3176
854.451	3298
854.585	3131
854.72	3077
854.854	3230
854.988	3039
855.122	3097
855.256	2963
855.39	3127
855.524	3218
855.658	3146
855.792	3157
855.926	3192
856.06	3214
856.194	3249
856.327	3184
856.461	3085
856.595	3097
856.729	3058
856.862	3176
856.996	3154
857.13	3192
857.263	3195
857.397	3302
857.53	3119
857.664	3192
857.797	3253
857.931	3245
858.064	3138
858.197	3237
858.331	3176
858.464	3085
858.597	2982
858.731	3089
858.864	3131
858.997	3043
859.13	3161
859.263	3176
859.396	3150
859.529	3077
859.662	3058
859.795	3051
859.928	3135
860.061	3313
860.194	3287
860.327	3146
860.46	3070
860.592	3253
860.725	3211
860.858	3241
860.99	3093
861.123	3039
861.256	3051
861.388	3116
861.521	3869
861.653	2998
861.786	2967
861.918	3032
862.05	3093
862.183	3074
862.315	3150
862.447	3165
862.58	3085
862.712	2937
862.844	2891
862.976	3020
863.108	3005
863.24	3313
863.372	2857
863.504	2952
863.636	2933
863.768	3005
863.9	2937
864.032	2891
864.164	2929
864.296	3032
864.428	3062
864.559	3077
864.691	3066
864.823	3070
864.954	3013
865.086	3001
865.217	2998
865.349	2902
865.48	3013
865.612	3020
865.743	3146
865.875	2979
866.006	2933
866.137	2967
866.269	2918
866.4	2914
866.531	2906
866.662	2902
866.793	2883
866.924	2895
867.055	2956
867.186	2883
867.317	2868
867.448	2811
867.579	2834
867.71	2845
867.841	2804
867.972	2853
868.103	2906
868.233	2910
868.364	2876
868.495	2876
868.625	3074
868.756	3150
868.886	2960
869.017	3028
869.147	3123
869.278	3165
869.408	3036
869.539	3028
869.669	3100
869.799	3005
869.929	3127
870.06	3108
870.19	3298
870.32	3291
870.45	3325
870.58	3363
870.71	3439
870.84	3462
870.97	3317
871.1	3203
871.23	3485
871.36	3450
871.489	3348
871.619	3401
871.749	3412
871.879	3409
872.008	3485
872.138	3351
872.267	3279
872.397	3127
872.526	3085
872.656	3013
872.785	3119
872.915	3218
873.044	3317
873.173	3237
873.303	3226
873.432	3275
873.561	3264
873.69	3192
873.819	3150
873.948	3237
874.077	3097
874.206	3005
874.335	3077
874.464	3203
874.593	3321
874.722	3253
874.851	3382
874.979	3351
875.108	3291
875.237	3157
875.365	3176
875.494	3169
875.623	3249
875.751	3100
875.88	3154
876.008	3188
876.136	3195
876.265	3378
876.393	3504
876.521	3431
876.65	3405
876.778	3313
876.906	3188
877.034	3211
877.162	3237
877.29	3138
877.418	3233
877.546	3214
877.674	3203
877.802	3211
877.93	3249
878.058	3165
878.185	3138
878.313	3192
878.441	3218
878.568	3074
878.696	3176
878.824	3272
878.951	3298
879.079	3424
879.206	3599
879.333	3431
879.461	3306
879.588	3374
879.715	3481
879.842	3591
879.97	3401
880.097	3169
880.224	3127
880.351	3173
880.478	3222
880.605	3173
880.732	3161
880.859	3462
880.986	3272
881.112	3351
881.239	3218
881.366	3097
881.493	3028
881.619	2998
881.746	3093
881.872	3100
881.999	3074
882.125	3131
882.252	3230
882.378	3283
882.505	3424
882.631	3256
882.757	3123
882.883	3214
883.01	3214
883.136	3161
883.262	3119
883.388	3089
883.514	3332
883.64	3359
883.766	3298
883.892	3184
884.018	3237
884.143	3405
884.269	3545
884.395	3203
884.52	3169
884.646	3165
884.772	3112
884.897	3085
885.023	3203
885.148	3355
885.274	3401
885.399	3348
885.524	3294
885.65	3275
885.775	3279
885.9	3268
886.025	3447
886.15	3359
886.275	3287
886.4	3249
886.525	3351
886.65	3306
886.775	3256
886.9	3462
887.025	3633
887.149	3420
887.274	3272
887.399	3157
887.523	3199
887.648	3188
887.773	3176
887.897	3389
888.021	3405
888.146	3264
888.27	3405
888.395	3488
888.519	3435
888.643	3450
888.767	3439
888.891	3321
889.015	3253
889.139	3279
889.263	3233
889.387	3420
889.511	3515
889.635	3454
889.759	3310
889.883	3272
890.006	3359
890.13	3500
890.254	3279
890.377	3336
890.501	3211
890.624	3199
890.748	3256
890.871	3195
890.995	3119
891.118	3081
891.241	3207
891.364	3218
891.488	3302
891.611	3192
891.734	3218
891.857	3306
891.98	3260
892.103	3344
892.226	3287
892.349	3222
892.471	3131
892.594	3245
892.717	3287
892.839	3279
892.962	3336
893.085	3363
893.207	3291
893.33	3127
893.452	3207
893.575	3332
893.697	3291
893.819	3435
893.941	3538
894.064	3454
894.186	3306
894.308	3294
894.43	3447
894.552	3515
894.674	3443
894.796	3272
894.918	3329
895.04	3294
895.161	3370
895.283	3374
895.405	3306
895.526	3363
895.648	3370
895.769	3382
895.891	3458
896.012	3428
896.134	3454
896.255	3397
896.376	3378
896.498	3378
896.619	3443
896.74	3374
896.861	3405
896.982	3713
897.103	3850
897.224	3557
897.345	3511
897.466	3401
897.587	3485
897.708	3637
897.828	3542
897.949	3450
898.07	3302
898.19	3424
898.311	3614
898.431	3443
898.552	3485
898.672	3625
898.792	3553
898.913	3538
899.033	3424
899.153	3306
899.273	3249
899.393	3272
899.513	3332
899.633	3313
899.753	3348
899.873	3287
899.993	3397
900.113	3374
900.232	3401
900.352	3340
900.472	3264
900.591	3214
900.711	3275
900.83	3237
900.95	3401
901.069	3504
901.189	3348
901.308	3154
901.427	3097
901.546	3192
901.665	3306
901.784	3370
901.904	3226
902.023	3154
902.141	2998
902.26	3013
902.379	3146
902.498	3062
902.617	3058
902.735	3230
902.854	3214
902.973	3203
903.091	3028
903.21	3047
903.328	3154
903.446	3165
903.565	3081
903.683	3188
903.801	3127
903.919	3233
904.038	3283
904.156	3169
904.274	3275
904.392	3237
904.51	3256
904.627	3359
904.745	3428
904.863	3485
904.981	3241
905.098	3192
905.216	3230
905.334	3272
905.451	3302
905.569	3329
905.686	3405
905.803	3458
905.921	3279
906.038	3481
906.155	3382
906.272	3268
906.389	3374
906.506	3237
906.623	3264
906.74	3249
906.857	3218
906.974	3268
907.091	3435
907.208	3553
907.324	3469
907.441	3393
907.557	3237
907.674	3249
907.79	3173
907.907	3279
908.023	3397
908.139	3332
908.256	3374
908.372	3412
908.488	3378
908.604	3272
908.72	3207
908.836	3287
908.952	3245
909.068	3389
909.184	3469
909.3	3416
909.415	3481
909.531	3485
909.647	3279
909.762	3256
909.878	3256
909.993	3351
910.108	3329
910.224	3355
910.339	3428
910.454	3344
910.57	3294
910.685	3218
910.8	3591
910.915	3511
911.03	3443
911.145	3268
911.259	3237
911.374	3329
911.489	3218
911.604	3173
911.718	3119
911.833	3135
911.947	3047
912.062	2998
912.176	3188
912.291	3173
912.405	3207
912.519	3378
912.633	3450
912.748	3283
912.862	3260
912.976	3146
913.09	3066
913.204	3123
913.318	3249
913.431	3344
913.545	3302
913.659	3428
913.772	3355
913.886	3214
914	3176
914.113	3332
914.226	3355
914.34	3367
914.453	3222
914.566	3393
914.68	3340
914.793	3329
914.906	3138
915.019	3127
915.132	3055
915.245	3169
915.358	3173
915.47	3211
915.583	3233
915.696	3268
915.809	3386
915.921	3405
916.034	3298
916.146	3268
916.259	3241
916.371	3367
916.483	3359
916.595	3256
916.708	3310
916.82	3340
916.932	3329
917.044	3313
917.156	3386
917.268	3260
917.38	3283
917.491	3306
917.603	3363
917.715	3431
917.826	3424
917.938	3359
918.049	3256
918.161	3447
918.272	3580
918.384	3564
918.495	3454
918.606	3321
918.717	3256
918.828	3378
918.939	3416
919.05	3298
919.161	3363
919.272	3184
919.383	3275
919.494	3511
919.604	3644
919.715	3469
919.826	3401
919.936	3450
920.047	3603
920.157	3526
920.267	3728
920.378	3625
920.488	3530
920.598	3778
920.708	3960
920.818	3816
920.928	3797
921.038	4017
921.148	3994
921.258	3671
921.368	3633
921.477	3572
921.587	3568
921.697	3519
921.806	3637
921.916	3466
922.025	3332
922.134	3370
922.244	3332
922.353	3401
922.462	3287
922.571	3264
922.68	3127
922.789	3070
922.898	3127
923.007	3070
923.116	3192
923.224	3188
923.333	3161
923.442	3081
923.55	3077
923.659	3131
923.767	3214
923.876	3138
923.984	3222
924.092	3104
924.201	3199
924.309	3192
924.417	3253
924.525	3173
924.633	3222
924.741	4128
924.849	3020
924.956	3256
925.064	3085
925.172	3070
925.279	3089
925.387	3207
925.494	3173
925.602	3378
925.709	3344
925.816	3173
925.924	3272
926.031	3382
926.138	3302
926.245	3344
926.352	3241
926.459	3378
926.566	3473
926.673	3298
926.779	3226
926.886	3256
926.993	3146
927.099	3116
927.206	3131
927.312	3116
927.419	3211
927.525	3184
927.631	3279
927.737	3150
927.843	3165
927.95	3032
928.056	3138
928.162	3222
928.267	3275
928.373	3865
928.479	3313
928.585	3066
928.69	3214
928.796	3279
928.901	3135
929.007	3020
929.112	3222
929.218	3176
929.323	3142
929.428	3138
929.533	3325
929.638	3100
929.743	3184
929.848	3256
929.953	3211
930.058	3138
930.163	2982
930.267	3024
930.372	3203
930.477	3024
930.581	3336
930.685	3195
930.79	3043
930.894	3085
930.998	3119
931.103	3249
931.207	2963
931.311	2933
931.415	2960
931.519	2766
931.623	2819
