Data from test_V78500241_217.txt Node
Date: Fri Mar 25 16:16:42 CST 2022
User: usil
Spectrometer: V785-0024
Trigger mode: 0
Integration Time (sec): 4.000000E-1
Scans to average: 1
Nonlinearity correction enabled: false
Boxcar width: 0
Storing dark spectrum: false
XAxis mode: Wavelengths
Number of Pixels in Spectrum: 1024
>>>>>Begin Spectral Data<<<<<
801.071	2925
801.214	2971
801.356	2883
801.499	2960
801.641	2864
801.783	2937
801.926	3066
802.068	3013
802.211	3020
802.353	3051
802.496	2975
802.638	3013
802.78	3047
802.923	3108
803.065	3024
803.208	2918
803.35	2933
803.492	2918
803.635	2956
803.777	2766
803.919	2849
804.061	3245
804.204	2971
804.346	2922
804.488	2853
804.63	2998
804.773	2902
804.915	2937
805.057	3097
805.199	2952
805.341	2998
805.483	3074
805.626	3020
805.768	2986
805.91	3097
806.052	3119
806.194	3062
806.336	3249
806.478	3032
806.62	2948
806.762	2998
806.904	3043
807.046	3165
807.188	2982
807.33	2906
807.472	2982
807.614	2933
807.756	2975
807.898	2925
808.04	2922
808.182	2967
808.324	2971
808.465	2876
808.607	2861
808.749	2781
808.891	2838
809.033	2986
809.174	2979
809.316	2914
809.458	2918
809.6	2762
809.741	2785
809.883	2815
810.025	2864
810.166	2887
810.308	2834
810.45	2891
810.591	2773
810.733	2769
810.875	2861
811.016	2804
811.158	2762
811.299	2845
811.441	2910
811.582	2918
811.724	2815
811.865	2853
812.007	2933
812.148	2880
812.29	2880
812.431	2925
812.573	2952
812.714	2982
812.855	3058
812.997	3047
813.138	3123
813.279	3039
813.421	3013
813.562	2971
813.703	2895
813.845	2872
813.986	2769
814.127	2746
814.268	2815
814.41	2834
814.551	2766
814.692	2895
814.833	2788
814.974	2922
815.115	2971
815.256	2842
815.397	2792
815.539	2853
815.68	2777
815.821	2807
815.962	2963
816.103	2918
816.244	2887
816.385	2880
816.526	2982
816.666	2914
816.807	2762
816.948	2868
817.089	2937
817.23	2868
817.371	2754
817.512	2766
817.653	2826
817.793	2853
817.934	2902
818.075	2998
818.216	3013
818.356	3020
818.497	2895
818.638	2845
818.778	2834
818.919	2804
819.06	2781
819.2	2857
819.341	2796
819.481	2785
819.622	2899
819.762	3108
819.903	3036
820.043	2929
820.184	2929
820.324	2910
820.465	3047
820.605	3070
820.746	3066
820.886	2960
821.026	3100
821.167	3180
821.307	3313
821.447	3310
821.588	3249
821.728	3268
821.868	3230
822.008	3161
822.149	3245
822.289	3268
822.429	3108
822.569	3089
822.709	3245
822.849	3058
822.99	3108
823.13	3207
823.27	3256
823.41	3161
823.55	3169
823.69	3199
823.83	3230
823.97	3173
824.11	3055
824.25	3055
824.389	3127
824.529	3150
824.669	3108
824.809	3260
824.949	3306
825.089	3275
825.228	3226
825.368	3093
825.508	3039
825.648	3017
825.787	3043
825.927	3089
826.067	3024
826.206	2982
826.346	3089
826.485	3116
826.625	3138
826.765	3313
826.904	3249
827.044	3039
827.183	2982
827.323	2899
827.462	3036
827.601	2967
827.741	2960
827.88	3013
828.02	2944
828.159	3001
828.298	3085
828.437	3192
828.577	3112
828.716	3268
828.855	3165
828.994	2960
829.134	2906
829.273	2956
829.412	2922
829.551	2922
829.69	2967
829.829	3020
829.968	3180
830.107	3055
830.246	3051
830.385	2956
830.524	2895
830.663	2830
830.802	2785
830.941	2697
831.08	2724
831.219	2804
831.357	2845
831.496	3013
831.635	2792
831.774	2705
831.913	2674
832.051	2598
832.19	2594
832.329	2731
832.467	2617
832.606	2533
832.744	2636
832.883	2636
833.022	2640
833.16	2697
833.299	2731
833.437	2743
833.576	2724
833.714	2746
833.852	2739
833.991	2819
834.129	2899
834.267	2883
834.406	2815
834.544	2952
834.682	2902
834.821	2880
834.959	3142
835.097	2929
835.235	3119
835.373	3055
835.511	3043
835.65	3017
835.788	2979
835.926	2853
836.064	2864
836.202	2891
836.34	3142
836.478	3233
836.615	3077
836.753	3195
836.891	3253
837.029	3195
837.167	3169
837.305	3074
837.443	3104
837.58	2998
837.718	3173
837.856	3097
837.993	3047
838.131	3184
838.269	3142
838.406	3119
838.544	3142
838.681	2975
838.819	2963
838.956	2838
839.094	2842
839.231	2967
839.369	3062
839.506	3401
839.643	3253
839.781	3058
839.918	3020
840.055	3070
840.193	3085
840.33	3119
840.467	3127
840.604	3218
840.742	3443
840.879	3077
841.016	3097
841.153	3142
841.29	3405
841.427	3340
841.564	3291
841.701	3340
841.838	3241
841.975	3211
842.112	3279
842.249	3112
842.385	3104
842.522	3325
842.659	3138
842.796	3097
842.933	3142
843.069	3077
843.206	3070
843.343	3218
843.479	3157
843.616	3188
843.752	2929
843.889	2941
844.025	3131
844.162	2899
844.298	3123
844.435	2975
844.571	2963
844.708	3123
844.844	3176
844.98	3241
845.117	3245
845.253	3112
845.389	3043
845.525	3157
845.661	3142
845.798	3074
845.934	3161
846.07	3123
846.206	3256
846.342	3351
846.478	3253
846.614	3104
846.75	3104
846.886	3043
847.022	3275
847.158	3131
847.294	3272
847.429	3306
847.565	3264
847.701	3526
847.837	3070
847.972	3024
848.108	3188
848.244	3199
848.379	3055
848.515	2990
848.65	2944
848.786	2998
848.921	3001
849.057	3169
849.192	3173
849.328	3112
849.463	3131
849.598	3112
849.734	3077
849.869	3017
850.004	2929
850.14	3020
850.275	2963
850.41	2902
850.545	2914
850.68	2998
850.815	2986
850.95	2956
851.085	3260
851.22	3150
851.355	3089
851.49	3028
851.625	3001
851.76	3058
851.895	2944
852.03	2975
852.165	3074
852.299	3108
852.434	3195
852.569	3199
852.703	3222
852.838	3253
852.973	3359
853.107	3329
853.242	3169
853.376	3097
853.511	3005
853.645	3066
853.78	3249
853.914	3169
854.048	3146
854.183	3089
854.317	3207
854.451	3336
854.585	3150
854.72	3100
854.854	3260
854.988	3097
855.122	3108
855.256	3017
855.39	3135
855.524	3245
855.658	3222
855.792	3184
855.926	3233
856.06	3264
856.194	3329
856.327	3203
856.461	3116
856.595	3116
856.729	3074
856.862	3256
856.996	3180
857.13	3260
857.263	3260
857.397	3306
857.53	3165
857.664	3249
857.797	3256
857.931	3351
858.064	3184
858.197	3279
858.331	3161
858.464	3184
858.597	3055
858.731	3161
858.864	3142
858.997	3150
859.13	3207
859.263	3233
859.396	3249
859.529	3104
859.662	3077
859.795	3097
859.928	3142
860.061	3344
860.194	3294
860.327	3154
860.46	3123
860.592	3313
860.725	3264
860.858	3321
860.99	3165
861.123	3104
861.256	3089
861.388	3165
861.521	3884
861.653	3077
861.786	2998
861.918	3009
862.05	3131
862.183	3116
862.315	3157
862.447	3188
862.58	3123
862.712	2960
862.844	2902
862.976	3032
863.108	3001
863.24	3405
863.372	2925
863.504	2998
863.636	2971
863.768	3047
863.9	3005
864.032	2986
864.164	2952
864.296	3055
864.428	3123
864.559	3127
864.691	3108
864.823	3104
864.954	3051
865.086	3058
865.217	3024
865.349	2975
865.48	3032
865.612	3028
865.743	3188
865.875	2963
866.006	2960
866.137	3024
866.269	2998
866.4	2963
866.531	2971
866.662	2937
866.793	2906
866.924	2944
867.055	3005
867.186	2963
867.317	2883
867.448	2891
867.579	2861
867.71	2845
867.841	2864
867.972	2933
868.103	2937
868.233	2902
868.364	2929
868.495	2910
868.625	3138
868.756	3150
868.886	3017
869.017	3013
869.147	3169
869.278	3184
869.408	3062
869.539	3047
869.669	3123
869.799	3093
869.929	3150
870.06	3131
870.19	3367
870.32	3351
870.45	3287
870.58	3405
870.71	3504
870.84	3469
870.97	3363
871.1	3268
871.23	3549
871.36	3515
871.489	3378
871.619	3409
871.749	3458
871.879	3500
872.008	3507
872.138	3382
872.267	3329
872.397	3184
872.526	3135
872.656	3051
872.785	3097
872.915	3332
873.044	3359
873.173	3264
873.303	3268
873.432	3249
873.561	3268
873.69	3184
873.819	3154
873.948	3226
874.077	3154
874.206	3085
874.335	3074
874.464	3222
874.593	3344
874.722	3291
874.851	3420
874.979	3393
875.108	3355
875.237	3214
875.365	3211
875.494	3165
875.623	3256
875.751	3104
875.88	3157
876.008	3195
876.136	3253
876.265	3386
876.393	3519
876.521	3435
876.65	3420
876.778	3329
876.906	3283
877.034	3283
877.162	3214
877.29	3218
877.418	3310
877.546	3249
877.674	3275
877.802	3245
877.93	3230
878.058	3150
878.185	3146
878.313	3222
878.441	3245
878.568	3077
878.696	3165
878.824	3260
878.951	3340
879.079	3477
879.206	3648
879.333	3462
879.461	3355
879.588	3405
879.715	3492
879.842	3663
879.97	3420
880.097	3176
880.224	3135
880.351	3192
880.478	3253
880.605	3207
880.732	3180
880.859	3485
880.986	3329
881.112	3348
881.239	3230
881.366	3112
881.493	3051
881.619	3055
881.746	3135
881.872	3104
881.999	3089
882.125	3184
882.252	3272
882.378	3321
882.505	3466
882.631	3272
882.757	3192
882.883	3222
883.01	3241
883.136	3188
883.262	3108
883.388	3093
883.514	3374
883.64	3428
883.766	3287
883.892	3173
884.018	3245
884.143	3416
884.269	3549
884.395	3237
884.52	3180
884.646	3214
884.772	3108
884.897	3116
885.023	3226
885.148	3359
885.274	3409
885.399	3386
885.524	3298
885.65	3241
885.775	3355
885.9	3294
886.025	3431
886.15	3397
886.275	3321
886.4	3249
886.525	3329
886.65	3310
886.775	3336
886.9	3530
887.025	3633
887.149	3435
887.274	3272
887.399	3214
887.523	3211
887.648	3230
887.773	3226
887.897	3405
888.021	3443
888.146	3325
888.27	3469
888.395	3568
888.519	3420
888.643	3435
888.767	3515
888.891	3298
889.015	3291
889.139	3332
889.263	3253
889.387	3431
889.511	3542
889.635	3458
889.759	3291
889.883	3344
890.006	3431
890.13	3545
890.254	3272
890.377	3370
890.501	3245
890.624	3211
890.748	3294
890.871	3203
890.995	3135
891.118	3100
891.241	3195
891.364	3230
891.488	3344
891.611	3192
891.734	3275
891.857	3325
891.98	3272
892.103	3367
892.226	3306
892.349	3230
892.471	3131
892.594	3287
892.717	3325
892.839	3279
892.962	3329
893.085	3367
893.207	3321
893.33	3142
893.452	3226
893.575	3355
893.697	3245
893.819	3473
893.941	3530
894.064	3443
894.186	3291
894.308	3302
894.43	3469
894.552	3564
894.674	3485
894.796	3249
894.918	3348
895.04	3306
895.161	3485
895.283	3428
895.405	3340
895.526	3355
895.648	3477
895.769	3435
895.891	3485
896.012	3447
896.134	3488
896.255	3412
896.376	3389
896.498	3382
896.619	3447
896.74	3374
896.861	3424
896.982	3694
897.103	3854
897.224	3641
897.345	3519
897.466	3435
897.587	3504
897.708	3622
897.828	3584
897.949	3458
898.07	3359
898.19	3393
898.311	3610
898.431	3469
898.552	3545
898.672	3641
898.792	3595
898.913	3515
899.033	3416
899.153	3298
899.273	3237
899.393	3332
899.513	3336
899.633	3329
899.753	3332
899.873	3321
899.993	3397
900.113	3336
900.232	3420
900.352	3370
900.472	3298
900.591	3233
900.711	3294
900.83	3283
900.95	3409
901.069	3515
901.189	3378
901.308	3199
901.427	3142
901.546	3233
901.665	3329
901.784	3367
901.904	3211
902.023	3180
902.141	3028
902.26	2990
902.379	3146
902.498	3077
902.617	3085
902.735	3241
902.854	3275
902.973	3226
903.091	3055
903.21	3089
903.328	3157
903.446	3123
903.565	3108
903.683	3203
903.801	3150
903.919	3245
904.038	3313
904.156	3184
904.274	3317
904.392	3256
904.51	3306
904.627	3359
904.745	3428
904.863	3564
904.981	3283
905.098	3211
905.216	3253
905.334	3275
905.451	3351
905.569	3306
905.686	3424
905.803	3466
905.921	3298
906.038	3386
906.155	3374
906.272	3283
906.389	3325
906.506	3256
906.623	3294
906.74	3336
906.857	3188
906.974	3256
907.091	3473
907.208	3553
907.324	3469
907.441	3397
907.557	3291
907.674	3260
907.79	3275
907.907	3325
908.023	3420
908.139	3397
908.256	3336
908.372	3382
908.488	3378
908.604	3272
908.72	3237
908.836	3306
908.952	3302
909.068	3348
909.184	3492
909.3	3386
909.415	3500
909.531	3458
909.647	3336
909.762	3294
909.878	3287
909.993	3344
910.108	3321
910.224	3367
910.339	3450
910.454	3332
910.57	3283
910.685	3230
910.8	3576
910.915	3526
911.03	3439
911.145	3294
911.259	3283
911.374	3329
911.489	3245
911.604	3249
911.718	3138
911.833	3173
911.947	3085
912.062	2975
912.176	3195
912.291	3211
912.405	3222
912.519	3405
912.633	3462
912.748	3336
912.862	3279
912.976	3180
913.09	3039
913.204	3123
913.318	3253
913.431	3355
913.545	3351
913.659	3428
913.772	3363
913.886	3226
914	3241
914.113	3367
914.226	3405
914.34	3363
914.453	3241
914.566	3424
914.68	3317
914.793	3363
914.906	3165
915.019	3123
915.132	3104
915.245	3169
915.358	3218
915.47	3214
915.583	3260
915.696	3317
915.809	3428
915.921	3416
916.034	3245
916.146	3245
916.259	3180
916.371	3416
916.483	3344
916.595	3302
916.708	3355
916.82	3348
916.932	3359
917.044	3382
917.156	3332
917.268	3306
917.38	3344
917.491	3329
917.603	3367
917.715	3462
917.826	3428
917.938	3405
918.049	3237
918.161	3420
918.272	3637
918.384	3599
918.495	3469
918.606	3340
918.717	3325
918.828	3424
918.939	3412
919.05	3283
919.161	3363
919.272	3203
919.383	3264
919.494	3500
919.604	3709
919.715	3515
919.826	3409
919.936	3500
920.047	3595
920.157	3595
920.267	3789
920.378	3606
920.488	3584
920.598	3766
920.708	3934
920.818	3835
920.928	3865
921.038	3994
921.148	4021
921.258	3728
921.368	3637
921.477	3622
921.587	3538
921.697	3469
921.806	3610
921.916	3534
922.025	3439
922.134	3370
922.244	3332
922.353	3435
922.462	3317
922.571	3256
922.68	3131
922.789	3097
922.898	3173
923.007	3131
923.116	3195
923.224	3211
923.333	3184
923.442	3093
923.55	3154
923.659	3138
923.767	3230
923.876	3157
923.984	3272
924.092	3104
924.201	3188
924.309	3237
924.417	3260
924.525	3192
924.633	3245
924.741	4234
924.849	3024
924.956	3275
925.064	3112
925.172	3051
925.279	3093
925.387	3218
925.494	3199
925.602	3344
925.709	3348
925.816	3173
925.924	3321
926.031	3382
926.138	3351
926.245	3389
926.352	3275
926.459	3416
926.566	3450
926.673	3329
926.779	3249
926.886	3279
926.993	3195
927.099	3142
927.206	3081
927.312	3127
927.419	3249
927.525	3253
927.631	3279
927.737	3127
927.843	3146
927.95	3066
928.056	3123
928.162	3214
928.267	3264
928.373	3899
928.479	3321
928.585	3100
928.69	3230
928.796	3256
928.901	3184
929.007	3074
929.112	3237
929.218	3199
929.323	3142
929.428	3169
929.533	3340
929.638	3157
929.743	3157
929.848	3249
929.953	3237
930.058	3165
930.163	3032
930.267	3024
930.372	3207
930.477	3047
930.581	3306
930.685	3180
930.79	3077
930.894	3081
930.998	3097
931.103	3298
931.207	2975
931.311	2963
931.415	2956
931.519	2826
931.623	2800
