Data from test_V78500241_733.txt Node
Date: Fri Mar 25 16:20:16 CST 2022
User: usil
Spectrometer: V785-0024
Trigger mode: 0
Integration Time (sec): 4.000000E-1
Scans to average: 1
Nonlinearity correction enabled: false
Boxcar width: 0
Storing dark spectrum: false
XAxis mode: Wavelengths
Number of Pixels in Spectrum: 1024
>>>>>Begin Spectral Data<<<<<
801.071	2918
801.214	2925
801.356	2864
801.499	2880
801.641	2864
801.783	2899
801.926	3017
802.068	2982
802.211	2998
802.353	3032
802.496	2990
802.638	3028
802.78	3066
802.923	3093
803.065	2998
803.208	2883
803.35	2902
803.492	2948
803.635	2922
803.777	2708
803.919	2842
804.061	3199
804.204	2960
804.346	2880
804.488	2838
804.63	2990
804.773	2861
804.915	2902
805.057	3036
805.199	2918
805.341	2948
805.483	3062
805.626	2963
805.768	2979
805.91	3062
806.052	3077
806.194	3001
806.336	3218
806.478	3005
806.62	2929
806.762	2933
806.904	3062
807.046	3138
807.188	2960
807.33	2914
807.472	2982
807.614	2933
807.756	2998
807.898	2914
808.04	2887
808.182	2952
808.324	2941
808.465	2914
808.607	2857
808.749	2769
808.891	2838
809.033	2960
809.174	2929
809.316	2887
809.458	2899
809.6	2766
809.741	2746
809.883	2758
810.025	2849
810.166	2876
810.308	2857
810.45	2849
810.591	2762
810.733	2823
810.875	2815
811.016	2769
811.158	2769
811.299	2807
811.441	2925
811.582	2887
811.724	2811
811.865	2830
812.007	2876
812.148	2880
812.29	2834
812.431	2872
812.573	2956
812.714	2937
812.855	3032
812.997	3009
813.138	3138
813.279	2994
813.421	2990
813.562	2963
813.703	2861
813.845	2922
813.986	2758
814.127	2701
814.268	2792
814.41	2838
814.551	2823
814.692	2864
814.833	2857
814.974	2902
815.115	2952
815.256	2876
815.397	2792
815.539	2861
815.68	2792
815.821	2781
815.962	2922
816.103	2895
816.244	2883
816.385	2872
816.526	2948
816.666	2910
816.807	2754
816.948	2880
817.089	2891
817.23	2880
817.371	2773
817.512	2807
817.653	2864
817.793	2842
817.934	2891
818.075	3009
818.216	2975
818.356	3032
818.497	2918
818.638	2804
818.778	2830
818.919	2792
819.06	2766
819.2	2914
819.341	2807
819.481	2796
819.622	2910
819.762	3135
819.903	3043
820.043	2944
820.184	2883
820.324	2918
820.465	3020
820.605	3020
820.746	3017
820.886	2929
821.026	3112
821.167	3116
821.307	3256
821.447	3237
821.588	3195
821.728	3192
821.868	3184
822.008	3070
822.149	3203
822.289	3230
822.429	3116
822.569	3070
822.709	3203
822.849	3017
822.99	3085
823.13	3150
823.27	3207
823.41	3127
823.55	3104
823.69	3142
823.83	3157
823.97	3100
824.11	2986
824.25	2971
824.389	3081
824.529	3131
824.669	3062
824.809	3207
824.949	3237
825.089	3203
825.228	3161
825.368	3032
825.508	2944
825.648	2956
825.787	3001
825.927	3032
826.067	2963
826.206	2941
826.346	2994
826.485	3081
826.625	3123
826.765	3237
826.904	3180
827.044	2994
827.183	2922
827.323	2872
827.462	2982
827.601	2910
827.741	2944
827.88	2979
828.02	2845
828.159	2956
828.298	3028
828.437	3131
828.577	3009
828.716	3253
828.855	3055
828.994	2941
829.134	2872
829.273	2922
829.412	2872
829.551	2823
829.69	2861
829.829	2971
829.968	3116
830.107	3009
830.246	3020
830.385	2891
830.524	2883
830.663	2807
830.802	2712
830.941	2636
831.08	2632
831.219	2750
831.357	2727
831.496	2956
831.635	2701
831.774	2621
831.913	2663
832.051	2552
832.19	2571
832.329	2670
832.467	2526
832.606	2480
832.744	2556
832.883	2579
833.022	2575
833.16	2663
833.299	2686
833.437	2655
833.576	2686
833.714	2693
833.852	2720
833.991	2731
834.129	2849
834.267	2834
834.406	2766
834.544	2868
834.682	2842
834.821	2864
834.959	3039
835.097	2883
835.235	3066
835.373	3005
835.511	3024
835.65	2941
835.788	2960
835.926	2853
836.064	2796
836.202	2845
836.34	3085
836.478	3131
836.615	3028
836.753	3081
836.891	3184
837.029	3142
837.167	3142
837.305	3055
837.443	3013
837.58	2971
837.718	3112
837.856	3089
837.993	3020
838.131	3123
838.269	3085
838.406	3097
838.544	3093
838.681	2922
838.819	2933
838.956	2845
839.094	2842
839.231	2876
839.369	2998
839.506	3374
839.643	3195
839.781	3013
839.918	2960
840.055	3020
840.193	3028
840.33	3074
840.467	3089
840.604	3123
840.742	3378
840.879	3039
841.016	3039
841.153	3119
841.29	3355
841.427	3283
841.564	3264
841.701	3291
841.838	3188
841.975	3192
842.112	3241
842.249	3085
842.385	3009
842.522	3237
842.659	3112
842.796	3085
842.933	3142
843.069	3047
843.206	2982
843.343	3169
843.479	3089
843.616	3127
843.752	2864
843.889	2857
844.025	3070
844.162	2861
844.298	3104
844.435	2979
844.571	2880
844.708	3062
844.844	3184
844.98	3207
845.117	3165
845.253	3047
845.389	3013
845.525	3093
845.661	3100
845.798	3020
845.934	3100
846.07	3005
846.206	3211
846.342	3310
846.478	3218
846.614	3085
846.75	3077
846.886	3043
847.022	3218
847.158	3135
847.294	3199
847.429	3272
847.565	3207
847.701	3466
847.837	3036
847.972	3013
848.108	3154
848.244	3173
848.379	2998
848.515	2925
848.65	2971
848.786	2880
848.921	3047
849.057	3081
849.192	3123
849.328	3062
849.463	3097
849.598	3097
849.734	3024
849.869	2944
850.004	2918
850.14	2956
850.275	2914
850.41	2845
850.545	2853
850.68	2925
850.815	2963
850.95	2941
851.085	3157
851.22	3051
851.355	3028
851.49	2956
851.625	2979
851.76	3001
851.895	2948
852.03	2887
852.165	3017
852.299	3116
852.434	3180
852.569	3116
852.703	3176
852.838	3230
852.973	3325
853.107	3294
853.242	3146
853.376	3066
853.511	2975
853.645	3017
853.78	3237
853.914	3135
854.048	3089
854.183	3081
854.317	3184
854.451	3241
854.585	3146
854.72	3104
854.854	3203
854.988	3070
855.122	3074
855.256	2979
855.39	3135
855.524	3218
855.658	3169
855.792	3180
855.926	3214
856.06	3249
856.194	3272
856.327	3123
856.461	3108
856.595	3070
856.729	3070
856.862	3203
856.996	3135
857.13	3180
857.263	3195
857.397	3268
857.53	3116
857.664	3157
857.797	3230
857.931	3218
858.064	3146
858.197	3180
858.331	3100
858.464	3112
858.597	3005
858.731	3127
858.864	3135
858.997	3066
859.13	3180
859.263	3146
859.396	3161
859.529	3119
859.662	3070
859.795	3066
859.928	3127
860.061	3256
860.194	3256
860.327	3123
860.46	3085
860.592	3233
860.725	3260
860.858	3241
860.99	3089
861.123	3058
861.256	3028
861.388	3138
861.521	3793
861.653	3032
861.786	2979
861.918	3005
862.05	3077
862.183	3081
862.315	3108
862.447	3192
862.58	3097
862.712	2948
862.844	2853
862.976	2979
863.108	2986
863.24	3389
863.372	2868
863.504	2956
863.636	2960
863.768	3032
863.9	2956
864.032	2952
864.164	2941
864.296	3013
864.428	3032
864.559	3070
864.691	3070
864.823	3074
864.954	3058
865.086	3020
865.217	3001
865.349	2956
865.48	2982
865.612	3009
865.743	3131
865.875	2967
866.006	2941
866.137	2956
866.269	2948
866.4	2933
866.531	2902
866.662	2902
866.793	2929
866.924	2880
867.055	3001
867.186	2902
867.317	2887
867.448	2826
867.579	2845
867.71	2864
867.841	2807
867.972	2914
868.103	2902
868.233	2845
868.364	2887
868.495	2899
868.625	3085
868.756	3161
868.886	2960
869.017	2994
869.147	3150
869.278	3123
869.408	3028
869.539	3009
869.669	3104
869.799	3043
869.929	3131
870.06	3108
870.19	3344
870.32	3279
870.45	3279
870.58	3351
870.71	3439
870.84	3488
870.97	3291
871.1	3260
871.23	3466
871.36	3450
871.489	3348
871.619	3397
871.749	3370
871.879	3428
872.008	3496
872.138	3367
872.267	3279
872.397	3108
872.526	3116
872.656	2994
872.785	3097
872.915	3226
873.044	3268
873.173	3195
873.303	3241
873.432	3275
873.561	3214
873.69	3131
873.819	3119
873.948	3180
874.077	3093
874.206	3017
874.335	3085
874.464	3173
874.593	3340
874.722	3226
874.851	3378
874.979	3370
875.108	3313
875.237	3207
875.365	3150
875.494	3112
875.623	3222
875.751	3085
875.88	3081
876.008	3211
876.136	3188
876.265	3363
876.393	3485
876.521	3389
876.65	3409
876.778	3355
876.906	3214
877.034	3199
877.162	3226
877.29	3169
877.418	3253
877.546	3233
877.674	3214
877.802	3211
877.93	3218
878.058	3142
878.185	3161
878.313	3192
878.441	3192
878.568	3081
878.696	3165
878.824	3264
878.951	3306
879.079	3409
879.206	3622
879.333	3416
879.461	3340
879.588	3344
879.715	3473
879.842	3549
879.97	3393
880.097	3184
880.224	3131
880.351	3226
880.478	3226
880.605	3211
880.732	3192
880.859	3500
880.986	3264
881.112	3310
881.239	3199
881.366	3112
881.493	3066
881.619	3001
881.746	3055
881.872	3089
881.999	3074
882.125	3165
882.252	3233
882.378	3302
882.505	3443
882.631	3256
882.757	3131
882.883	3222
883.01	3188
883.136	3131
883.262	3127
883.388	3112
883.514	3302
883.64	3348
883.766	3321
883.892	3218
884.018	3245
884.143	3409
884.269	3526
884.395	3188
884.52	3154
884.646	3192
884.772	3127
884.897	3116
885.023	3199
885.148	3313
885.274	3416
885.399	3348
885.524	3264
885.65	3272
885.775	3317
885.9	3279
886.025	3393
886.15	3370
886.275	3302
886.4	3253
886.525	3321
886.65	3275
886.775	3279
886.9	3477
887.025	3614
887.149	3401
887.274	3203
887.399	3195
887.523	3207
887.648	3184
887.773	3157
887.897	3336
888.021	3378
888.146	3291
888.27	3443
888.395	3511
888.519	3431
888.643	3443
888.767	3458
888.891	3325
889.015	3241
889.139	3317
889.263	3211
889.387	3389
889.511	3534
889.635	3450
889.759	3294
889.883	3287
890.006	3382
890.13	3500
890.254	3256
890.377	3306
890.501	3226
890.624	3154
890.748	3279
890.871	3127
890.995	3116
891.118	3104
891.241	3188
891.364	3199
891.488	3306
891.611	3161
891.734	3222
891.857	3279
891.98	3222
892.103	3329
892.226	3260
892.349	3218
892.471	3127
892.594	3241
892.717	3279
892.839	3306
892.962	3294
893.085	3367
893.207	3321
893.33	3146
893.452	3195
893.575	3302
893.697	3222
893.819	3477
893.941	3492
894.064	3496
894.186	3260
894.308	3241
894.43	3424
894.552	3511
894.674	3477
894.796	3256
894.918	3291
895.04	3283
895.161	3420
895.283	3374
895.405	3359
895.526	3374
895.648	3416
895.769	3428
895.891	3447
896.012	3473
896.134	3447
896.255	3359
896.376	3374
896.498	3348
896.619	3424
896.74	3355
896.861	3401
896.982	3660
897.103	3823
897.224	3568
897.345	3488
897.466	3431
897.587	3492
897.708	3610
897.828	3549
897.949	3428
898.07	3294
898.19	3405
898.311	3614
898.431	3462
898.552	3523
898.672	3614
898.792	3568
898.913	3545
899.033	3397
899.153	3287
899.273	3176
899.393	3283
899.513	3302
899.633	3283
899.753	3355
899.873	3306
899.993	3367
900.113	3340
900.232	3367
900.352	3359
900.472	3298
900.591	3211
900.711	3291
900.83	3233
900.95	3420
901.069	3466
901.189	3340
901.308	3176
901.427	3108
901.546	3192
901.665	3275
901.784	3348
901.904	3184
902.023	3154
902.141	3039
902.26	2986
902.379	3112
902.498	3062
902.617	3055
902.735	3207
902.854	3180
902.973	3173
903.091	3047
903.21	3062
903.328	3123
903.446	3135
903.565	3108
903.683	3199
903.801	3131
903.919	3249
904.038	3310
904.156	3150
904.274	3256
904.392	3233
904.51	3291
904.627	3329
904.745	3458
904.863	3496
904.981	3233
905.098	3188
905.216	3256
905.334	3275
905.451	3283
905.569	3264
905.686	3416
905.803	3462
905.921	3287
906.038	3431
906.155	3374
906.272	3279
906.389	3355
906.506	3230
906.623	3287
906.74	3256
906.857	3184
906.974	3222
907.091	3450
907.208	3542
907.324	3477
907.441	3382
907.557	3214
907.674	3188
907.79	3233
907.907	3272
908.023	3393
908.139	3409
908.256	3313
908.372	3336
908.488	3363
908.604	3275
908.72	3222
908.836	3298
908.952	3237
909.068	3332
909.184	3473
909.3	3389
909.415	3538
909.531	3431
909.647	3306
909.762	3260
909.878	3249
909.993	3374
910.108	3340
910.224	3340
910.339	3435
910.454	3329
910.57	3298
910.685	3249
910.8	3561
910.915	3519
911.03	3393
911.145	3222
911.259	3237
911.374	3275
911.489	3218
911.604	3218
911.718	3142
911.833	3146
911.947	3036
912.062	2971
912.176	3138
912.291	3192
912.405	3211
912.519	3416
912.633	3428
912.748	3344
912.862	3260
912.976	3184
913.09	3081
913.204	3127
913.318	3195
913.431	3313
913.545	3325
913.659	3431
913.772	3321
913.886	3230
914	3233
914.113	3321
914.226	3409
914.34	3363
914.453	3199
914.566	3435
914.68	3279
914.793	3363
914.906	3135
915.019	3077
915.132	3062
915.245	3161
915.358	3195
915.47	3218
915.583	3241
915.696	3291
915.809	3439
915.921	3401
916.034	3283
916.146	3260
916.259	3249
916.371	3386
916.483	3363
916.595	3287
916.708	3367
916.82	3287
916.932	3344
917.044	3329
917.156	3359
917.268	3283
917.38	3313
917.491	3268
917.603	3340
917.715	3450
917.826	3466
917.938	3389
918.049	3272
918.161	3431
918.272	3580
918.384	3572
918.495	3507
918.606	3340
918.717	3279
918.828	3363
918.939	3389
919.05	3291
919.161	3348
919.272	3169
919.383	3245
919.494	3511
919.604	3629
919.715	3443
919.826	3416
919.936	3454
920.047	3515
920.157	3561
920.267	3759
920.378	3641
920.488	3561
920.598	3812
920.708	3907
920.818	3831
920.928	3838
921.038	4048
921.148	4025
921.258	3705
921.368	3633
921.477	3534
921.587	3507
921.697	3447
921.806	3644
921.916	3507
922.025	3321
922.134	3367
922.244	3302
922.353	3397
922.462	3275
922.571	3222
922.68	3127
922.789	3077
922.898	3142
923.007	3081
923.116	3203
923.224	3165
923.333	3195
923.442	3058
923.55	3062
923.659	3116
923.767	3199
923.876	3104
923.984	3214
924.092	3097
924.201	3218
924.309	3192
924.417	3279
924.525	3146
924.633	3260
924.741	4181
924.849	2994
924.956	3268
925.064	3131
925.172	3009
925.279	3123
925.387	3226
925.494	3207
925.602	3344
925.709	3317
925.816	3176
925.924	3306
926.031	3386
926.138	3329
926.245	3340
926.352	3249
926.459	3412
926.566	3473
926.673	3279
926.779	3294
926.886	3237
926.993	3119
927.099	3119
927.206	3123
927.312	3112
927.419	3268
927.525	3161
927.631	3245
927.737	3154
927.843	3150
927.95	3051
928.056	3112
928.162	3184
928.267	3256
928.373	3884
928.479	3291
928.585	3074
928.69	3199
928.796	3279
928.901	3146
929.007	3047
929.112	3180
929.218	3157
929.323	3135
929.428	3154
929.533	3313
929.638	3104
929.743	3199
929.848	3268
929.953	3264
930.058	3180
930.163	2990
930.267	3028
930.372	3192
930.477	3017
930.581	3317
930.685	3176
930.79	3081
930.894	3142
930.998	3119
931.103	3306
931.207	2971
931.311	2956
931.415	2941
931.519	2815
931.623	2792
