Data from test_V78500241_503.txt Node
Date: Fri Mar 25 16:18:41 CST 2022
User: usil
Spectrometer: V785-0024
Trigger mode: 0
Integration Time (sec): 4.000000E-1
Scans to average: 1
Nonlinearity correction enabled: false
Boxcar width: 0
Storing dark spectrum: false
XAxis mode: Wavelengths
Number of Pixels in Spectrum: 1024
>>>>>Begin Spectral Data<<<<<
801.071	2967
801.214	2975
801.356	2872
801.499	2902
801.641	2922
801.783	2941
801.926	3055
802.068	3001
802.211	3009
802.353	3039
802.496	2933
802.638	3009
802.78	3047
802.923	3119
803.065	3032
803.208	2922
803.35	2914
803.492	2971
803.635	2922
803.777	2769
803.919	2876
804.061	3199
804.204	2979
804.346	2918
804.488	2861
804.63	2979
804.773	2902
804.915	2891
805.057	3100
805.199	2952
805.341	3009
805.483	3043
805.626	3024
805.768	3005
805.91	3077
806.052	3108
806.194	3005
806.336	3237
806.478	3024
806.62	2963
806.762	2990
806.904	3089
807.046	3161
807.188	2979
807.33	2918
807.472	2982
807.614	2902
807.756	3009
807.898	2918
808.04	2880
808.182	2994
808.324	2944
808.465	2872
808.607	2842
808.749	2815
808.891	2834
809.033	2963
809.174	2933
809.316	2922
809.458	2887
809.6	2724
809.741	2807
809.883	2743
810.025	2842
810.166	2834
810.308	2842
810.45	2857
810.591	2762
810.733	2762
810.875	2792
811.016	2777
811.158	2724
811.299	2788
811.441	2902
811.582	2948
811.724	2815
811.865	2826
812.007	2914
812.148	2887
812.29	2834
812.431	2906
812.573	2956
812.714	2960
812.855	2979
812.997	3036
813.138	3112
813.279	2982
813.421	3009
813.562	2944
813.703	2864
813.845	2895
813.986	2785
814.127	2731
814.268	2811
814.41	2815
814.551	2804
814.692	2883
814.833	2785
814.974	2887
815.115	3005
815.256	2838
815.397	2830
815.539	2842
815.68	2781
815.821	2788
815.962	2925
816.103	2937
816.244	2880
816.385	2880
816.526	2933
816.666	2899
816.807	2724
816.948	2849
817.089	2872
817.23	2883
817.371	2773
817.512	2796
817.653	2838
817.793	2815
817.934	2899
818.075	2986
818.216	2986
818.356	3005
818.497	2891
818.638	2777
818.778	2834
818.919	2792
819.06	2750
819.2	2891
819.341	2788
819.481	2811
819.622	2914
819.762	3127
819.903	2990
820.043	2891
820.184	2941
820.324	2857
820.465	3028
820.605	3005
820.746	3028
820.886	2925
821.026	3089
821.167	3176
821.307	3253
821.447	3253
821.588	3195
821.728	3211
821.868	3214
822.008	3085
822.149	3157
822.289	3211
822.429	3123
822.569	3036
822.709	3173
822.849	3062
822.99	3028
823.13	3135
823.27	3180
823.41	3081
823.55	3146
823.69	3157
823.83	3154
823.97	3100
824.11	3017
824.25	2967
824.389	3047
824.529	3100
824.669	3058
824.809	3154
824.949	3226
825.089	3214
825.228	3173
825.368	3032
825.508	2975
825.648	2994
825.787	3005
825.927	3036
826.067	2994
826.206	2979
826.346	3020
826.485	3081
826.625	3123
826.765	3291
826.904	3226
827.044	3024
827.183	2929
827.323	2941
827.462	2986
827.601	2963
827.741	2952
827.88	3009
828.02	2864
828.159	2994
828.298	3062
828.437	3165
828.577	3074
828.716	3291
828.855	3116
828.994	2960
829.134	2899
829.273	2933
829.412	2880
829.551	2864
829.69	2967
829.829	3062
829.968	3165
830.107	3013
830.246	3070
830.385	2956
830.524	2922
830.663	2826
830.802	2800
830.941	2701
831.08	2674
831.219	2777
831.357	2807
831.496	3005
831.635	2781
831.774	2678
831.913	2720
832.051	2583
832.19	2606
832.329	2739
832.467	2571
832.606	2514
832.744	2606
832.883	2598
833.022	2655
833.16	2689
833.299	2716
833.437	2766
833.576	2712
833.714	2758
833.852	2743
833.991	2777
834.129	2899
834.267	2864
834.406	2830
834.544	2895
834.682	2929
834.821	2929
834.959	3119
835.097	2910
835.235	3108
835.373	3055
835.511	3051
835.65	2986
835.788	2982
835.926	2876
836.064	2883
836.202	2880
836.34	3135
836.478	3142
836.615	3070
836.753	3154
836.891	3268
837.029	3211
837.167	3108
837.305	3100
837.443	3058
837.58	2952
837.718	3161
837.856	3093
837.993	3108
838.131	3165
838.269	3157
838.406	3119
838.544	3116
838.681	2948
838.819	2929
838.956	2842
839.094	2895
839.231	2963
839.369	3051
839.506	3378
839.643	3253
839.781	3009
839.918	2994
840.055	3112
840.193	3066
840.33	3116
840.467	3135
840.604	3195
840.742	3450
840.879	3058
841.016	3047
841.153	3150
841.29	3348
841.427	3306
841.564	3306
841.701	3336
841.838	3260
841.975	3188
842.112	3245
842.249	3123
842.385	3077
842.522	3294
842.659	3116
842.796	3062
842.933	3116
843.069	3093
843.206	3028
843.343	3188
843.479	3161
843.616	3138
843.752	2941
843.889	2914
844.025	3104
844.162	2891
844.298	3108
844.435	2967
844.571	2944
844.708	3085
844.844	3218
844.98	3275
845.117	3230
845.253	3051
845.389	3047
845.525	3146
845.661	3135
845.798	3055
845.934	3169
846.07	3077
846.206	3283
846.342	3344
846.478	3237
846.614	3142
846.75	3058
846.886	3085
847.022	3249
847.158	3180
847.294	3253
847.429	3256
847.565	3233
847.701	3511
847.837	3081
847.972	3036
848.108	3199
848.244	3165
848.379	3005
848.515	2986
848.65	2941
848.786	2998
848.921	3043
849.057	3131
849.192	3127
849.328	3108
849.463	3138
849.598	3085
849.734	3108
849.869	2994
850.004	2963
850.14	2986
850.275	2902
850.41	2880
850.545	2906
850.68	2963
850.815	2952
850.95	2982
851.085	3195
851.22	3146
851.355	3123
851.49	2986
851.625	3051
851.76	3013
851.895	2944
852.03	2937
852.165	3043
852.299	3127
852.434	3264
852.569	3161
852.703	3233
852.838	3291
852.973	3409
853.107	3359
853.242	3192
853.376	3104
853.511	3017
853.645	3051
853.78	3325
853.914	3150
854.048	3138
854.183	3104
854.317	3157
854.451	3302
854.585	3150
854.72	3127
854.854	3233
854.988	3097
855.122	3108
855.256	2990
855.39	3135
855.524	3237
855.658	3192
855.792	3176
855.926	3211
856.06	3245
856.194	3306
856.327	3173
856.461	3119
856.595	3081
856.729	3146
856.862	3275
856.996	3188
857.13	3199
857.263	3222
857.397	3279
857.53	3135
857.664	3272
857.797	3260
857.931	3302
858.064	3203
858.197	3226
858.331	3173
858.464	3127
858.597	3051
858.731	3154
858.864	3150
858.997	3108
859.13	3241
859.263	3233
859.396	3253
859.529	3135
859.662	3093
859.795	3093
859.928	3180
860.061	3336
860.194	3348
860.327	3146
860.46	3127
860.592	3256
860.725	3275
860.858	3291
860.99	3154
861.123	3074
861.256	3028
861.388	3176
861.521	3896
861.653	3024
861.786	2994
861.918	3036
862.05	3074
862.183	3093
862.315	3169
862.447	3214
862.58	3123
862.712	2994
862.844	2887
862.976	3066
863.108	3043
863.24	3424
863.372	2944
863.504	3028
863.636	2960
863.768	3036
863.9	3032
864.032	2944
864.164	2960
864.296	3055
864.428	3127
864.559	3150
864.691	3097
864.823	3104
864.954	3043
865.086	3058
865.217	2986
865.349	2982
865.48	3001
865.612	3036
865.743	3154
865.875	3013
866.006	2971
866.137	2986
866.269	2975
866.4	2956
866.531	2937
866.662	2902
866.793	2918
866.924	2937
867.055	3036
867.186	2925
867.317	2914
867.448	2895
867.579	2899
867.71	2857
867.841	2823
867.972	2918
868.103	2941
868.233	2914
868.364	2887
868.495	2925
868.625	3119
868.756	3188
868.886	2998
869.017	3032
869.147	3184
869.278	3157
869.408	3036
869.539	3032
869.669	3157
869.799	3066
869.929	3173
870.06	3131
870.19	3344
870.32	3317
870.45	3310
870.58	3389
870.71	3462
870.84	3500
870.97	3287
871.1	3291
871.23	3534
871.36	3488
871.489	3382
871.619	3386
871.749	3488
871.879	3466
872.008	3496
872.138	3420
872.267	3298
872.397	3169
872.526	3097
872.656	3058
872.785	3131
872.915	3253
873.044	3348
873.173	3241
873.303	3268
873.432	3272
873.561	3264
873.69	3180
873.819	3176
873.948	3233
874.077	3138
874.206	3055
874.335	3112
874.464	3211
874.593	3401
874.722	3249
874.851	3389
874.979	3412
875.108	3370
875.237	3199
875.365	3161
875.494	3169
875.623	3264
875.751	3119
875.88	3173
876.008	3214
876.136	3256
876.265	3367
876.393	3530
876.521	3481
876.65	3397
876.778	3355
876.906	3256
877.034	3218
877.162	3249
877.29	3211
877.418	3268
877.546	3264
877.674	3253
877.802	3241
877.93	3256
878.058	3180
878.185	3119
878.313	3169
878.441	3233
878.568	3081
878.696	3142
878.824	3291
878.951	3298
879.079	3485
879.206	3625
879.333	3485
879.461	3321
879.588	3382
879.715	3507
879.842	3603
879.97	3397
880.097	3173
880.224	3161
880.351	3214
880.478	3218
880.605	3214
880.732	3230
880.859	3477
880.986	3279
881.112	3367
881.239	3207
881.366	3081
881.493	3097
881.619	3020
881.746	3116
881.872	3116
881.999	3093
882.125	3176
882.252	3256
882.378	3291
882.505	3462
882.631	3306
882.757	3127
882.883	3268
883.01	3283
883.136	3184
883.262	3138
883.388	3184
883.514	3355
883.64	3367
883.766	3321
883.892	3226
884.018	3233
884.143	3412
884.269	3580
884.395	3226
884.52	3211
884.646	3165
884.772	3112
884.897	3150
885.023	3237
885.148	3367
885.274	3420
885.399	3393
885.524	3294
885.65	3287
885.775	3291
885.9	3291
886.025	3458
886.15	3370
886.275	3336
886.4	3241
886.525	3321
886.65	3313
886.775	3283
886.9	3507
887.025	3648
887.149	3412
887.274	3268
887.399	3195
887.523	3192
887.648	3218
887.773	3188
887.897	3428
888.021	3382
888.146	3325
888.27	3473
888.395	3549
888.519	3466
888.643	3466
888.767	3447
888.891	3306
889.015	3245
889.139	3283
889.263	3260
889.387	3405
889.511	3477
889.635	3496
889.759	3294
889.883	3317
890.006	3420
890.13	3504
890.254	3325
890.377	3355
890.501	3237
890.624	3199
890.748	3317
890.871	3176
890.995	3119
891.118	3077
891.241	3199
891.364	3230
891.488	3317
891.611	3211
891.734	3245
891.857	3275
891.98	3230
892.103	3370
892.226	3275
892.349	3237
892.471	3142
892.594	3253
892.717	3306
892.839	3291
892.962	3329
893.085	3397
893.207	3294
893.33	3195
893.452	3249
893.575	3382
893.697	3291
893.819	3473
893.941	3530
894.064	3458
894.186	3283
894.308	3294
894.43	3424
894.552	3485
894.674	3469
894.796	3279
894.918	3348
895.04	3302
895.161	3447
895.283	3378
895.405	3329
895.526	3389
895.648	3412
895.769	3450
895.891	3450
896.012	3450
896.134	3511
896.255	3435
896.376	3348
896.498	3393
896.619	3454
896.74	3386
896.861	3412
896.982	3701
897.103	3804
897.224	3591
897.345	3530
897.466	3431
897.587	3519
897.708	3622
897.828	3553
897.949	3462
898.07	3389
898.19	3428
898.311	3618
898.431	3462
898.552	3534
898.672	3553
898.792	3641
898.913	3507
899.033	3420
899.153	3302
899.273	3241
899.393	3275
899.513	3325
899.633	3348
899.753	3306
899.873	3344
899.993	3367
900.113	3389
900.232	3393
900.352	3340
900.472	3294
900.591	3199
900.711	3310
900.83	3268
900.95	3397
901.069	3488
901.189	3370
901.308	3184
901.427	3161
901.546	3218
901.665	3268
901.784	3340
901.904	3241
902.023	3142
902.141	3039
902.26	2990
902.379	3142
902.498	3066
902.617	3085
902.735	3222
902.854	3237
902.973	3233
903.091	3081
903.21	3097
903.328	3150
903.446	3077
903.565	3097
903.683	3192
903.801	3127
903.919	3310
904.038	3283
904.156	3188
904.274	3275
904.392	3291
904.51	3313
904.627	3367
904.745	3447
904.863	3492
904.981	3294
905.098	3169
905.216	3287
905.334	3287
905.451	3302
905.569	3336
905.686	3401
905.803	3450
905.921	3294
906.038	3473
906.155	3359
906.272	3287
906.389	3355
906.506	3226
906.623	3260
906.74	3302
906.857	3169
906.974	3264
907.091	3466
907.208	3595
907.324	3523
907.441	3378
907.557	3260
907.674	3249
907.79	3214
907.907	3287
908.023	3409
908.139	3363
908.256	3317
908.372	3386
908.488	3382
908.604	3272
908.72	3264
908.836	3329
908.952	3298
909.068	3336
909.184	3515
909.3	3393
909.415	3511
909.531	3492
909.647	3268
909.762	3302
909.878	3256
909.993	3374
910.108	3359
910.224	3359
910.339	3443
910.454	3340
910.57	3313
910.685	3268
910.8	3610
910.915	3530
911.03	3412
911.145	3294
911.259	3302
911.374	3313
911.489	3249
911.604	3241
911.718	3135
911.833	3138
911.947	3043
912.062	3028
912.176	3184
912.291	3184
912.405	3218
912.519	3416
912.633	3496
912.748	3367
912.862	3329
912.976	3211
913.09	3077
913.204	3123
913.318	3233
913.431	3348
913.545	3355
913.659	3435
913.772	3363
913.886	3203
914	3180
914.113	3348
914.226	3424
914.34	3363
914.453	3211
914.566	3447
914.68	3294
914.793	3291
914.906	3169
915.019	3112
915.132	3062
915.245	3188
915.358	3199
915.47	3241
915.583	3237
915.696	3329
915.809	3412
915.921	3428
916.034	3249
916.146	3264
916.259	3203
916.371	3382
916.483	3359
916.595	3249
916.708	3336
916.82	3313
916.932	3332
917.044	3348
917.156	3389
917.268	3264
917.38	3291
917.491	3310
917.603	3374
917.715	3447
917.826	3431
917.938	3386
918.049	3283
918.161	3431
918.272	3576
918.384	3595
918.495	3507
918.606	3351
918.717	3287
918.828	3370
918.939	3428
919.05	3268
919.161	3367
919.272	3173
919.383	3283
919.494	3542
919.604	3709
919.715	3504
919.826	3409
919.936	3435
920.047	3610
920.157	3545
920.267	3785
920.378	3618
920.488	3610
920.598	3778
920.708	3987
920.818	3819
920.928	3838
921.038	3994
921.148	4017
921.258	3709
921.368	3629
921.477	3572
921.587	3511
921.697	3424
921.806	3641
921.916	3519
922.025	3344
922.134	3344
922.244	3336
922.353	3447
922.462	3237
922.571	3214
922.68	3146
922.789	3047
922.898	3150
923.007	3077
923.116	3218
923.224	3150
923.333	3230
923.442	3119
923.55	3089
923.659	3154
923.767	3203
923.876	3127
923.984	3241
924.092	3104
924.201	3241
924.309	3249
924.417	3275
924.525	3214
924.633	3214
924.741	4059
924.849	3047
924.956	3272
925.064	3097
925.172	3062
925.279	3055
925.387	3188
925.494	3214
925.602	3336
925.709	3336
925.816	3176
925.924	3283
926.031	3370
926.138	3351
926.245	3336
926.352	3283
926.459	3443
926.566	3462
926.673	3329
926.779	3233
926.886	3253
926.993	3138
927.099	3165
927.206	3127
927.312	3131
927.419	3211
927.525	3184
927.631	3294
927.737	3112
927.843	3116
927.95	3001
928.056	3104
928.162	3146
928.267	3241
928.373	3827
928.479	3313
928.585	3097
928.69	3188
928.796	3294
928.901	3108
929.007	3055
929.112	3214
929.218	3176
929.323	3142
929.428	3138
929.533	3291
929.638	3112
929.743	3180
929.848	3249
929.953	3233
930.058	3154
930.163	2994
930.267	3039
930.372	3214
930.477	3036
930.581	3306
930.685	3207
930.79	3093
930.894	3131
930.998	3104
931.103	3268
931.207	2960
931.311	2967
931.415	2941
931.519	2807
931.623	2807
