Data from test_V78500241_973.txt Node
Date: Fri Mar 25 16:21:56 CST 2022
User: usil
Spectrometer: V785-0024
Trigger mode: 0
Integration Time (sec): 4.000000E-1
Scans to average: 1
Nonlinearity correction enabled: false
Boxcar width: 0
Storing dark spectrum: false
XAxis mode: Wavelengths
Number of Pixels in Spectrum: 1024
>>>>>Begin Spectral Data<<<<<
801.071	2914
801.214	2948
801.356	2895
801.499	2883
801.641	2902
801.783	2975
801.926	3070
802.068	3024
802.211	3024
802.353	3036
802.496	2971
802.638	2998
802.78	3051
802.923	3074
803.065	3028
803.208	2906
803.35	2918
803.492	2902
803.635	2960
803.777	2804
803.919	2891
804.061	3226
804.204	2994
804.346	2902
804.488	2876
804.63	3024
804.773	2914
804.915	2887
805.057	3081
805.199	2944
805.341	2967
805.483	3009
805.626	2979
805.768	2971
805.91	3070
806.052	3097
806.194	3070
806.336	3218
806.478	3039
806.62	2925
806.762	2967
806.904	3055
807.046	3192
807.188	2990
807.33	2933
807.472	3005
807.614	2937
807.756	2963
807.898	2952
808.04	2880
808.182	2971
808.324	2971
808.465	2902
808.607	2861
808.749	2800
808.891	2807
809.033	2971
809.174	2990
809.316	2880
809.458	2902
809.6	2781
809.741	2773
809.883	2769
810.025	2849
810.166	2868
810.308	2845
810.45	2842
810.591	2762
810.733	2758
810.875	2834
811.016	2804
811.158	2769
811.299	2811
811.441	2933
811.582	2895
811.724	2792
811.865	2811
812.007	2883
812.148	2876
812.29	2861
812.431	2914
812.573	2944
812.714	2960
812.855	3047
812.997	3055
813.138	3116
813.279	2986
813.421	2998
813.562	2956
813.703	2845
813.845	2883
813.986	2762
814.127	2705
814.268	2823
814.41	2823
814.551	2804
814.692	2902
814.833	2800
814.974	2880
815.115	2975
815.256	2826
815.397	2796
815.539	2861
815.68	2800
815.821	2811
815.962	2933
816.103	2914
816.244	2880
816.385	2883
816.526	2967
816.666	2876
816.807	2766
816.948	2902
817.089	2906
817.23	2861
817.371	2807
817.512	2758
817.653	2838
817.793	2830
817.934	2876
818.075	2982
818.216	2994
818.356	3028
818.497	2861
818.638	2800
818.778	2834
818.919	2796
819.06	2777
819.2	2868
819.341	2804
819.481	2796
819.622	2906
819.762	3097
819.903	3047
820.043	2937
820.184	2918
820.324	2922
820.465	2998
820.605	3005
820.746	3039
820.886	2952
821.026	3116
821.167	3157
821.307	3287
821.447	3321
821.588	3260
821.728	3237
821.868	3222
822.008	3085
822.149	3195
822.289	3241
822.429	3127
822.569	3074
822.709	3203
822.849	3028
822.99	3062
823.13	3180
823.27	3249
823.41	3142
823.55	3169
823.69	3195
823.83	3245
823.97	3154
824.11	3043
824.25	3066
824.389	3070
824.529	3169
824.669	3165
824.809	3241
824.949	3275
825.089	3275
825.228	3176
825.368	3024
825.508	3020
825.648	3009
825.787	3058
825.927	3047
826.067	3017
826.206	2998
826.346	3047
826.485	3119
826.625	3116
826.765	3279
826.904	3241
827.044	3028
827.183	2990
827.323	2895
827.462	3074
827.601	2971
827.741	2948
827.88	2990
828.02	2944
828.159	3013
828.298	3077
828.437	3161
828.577	3100
828.716	3256
828.855	3146
828.994	2899
829.134	2922
829.273	2982
829.412	2906
829.551	2880
829.69	2941
829.829	3036
829.968	3165
830.107	3024
830.246	3081
830.385	2963
830.524	2914
830.663	2845
830.802	2754
830.941	2670
831.08	2636
831.219	2815
831.357	2781
831.496	2971
831.635	2743
831.774	2731
831.913	2724
832.051	2625
832.19	2651
832.329	2716
832.467	2537
832.606	2522
832.744	2625
832.883	2598
833.022	2625
833.16	2705
833.299	2724
833.437	2735
833.576	2777
833.714	2731
833.852	2720
833.991	2785
834.129	2864
834.267	2902
834.406	2845
834.544	2902
834.682	2902
834.821	2914
834.959	3062
835.097	2956
835.235	3062
835.373	3024
835.511	3055
835.65	3001
835.788	2971
835.926	2872
836.064	2834
836.202	2864
836.34	3135
836.478	3157
836.615	3051
836.753	3165
836.891	3237
837.029	3211
837.167	3135
837.305	3081
837.443	3070
837.58	3005
837.718	3169
837.856	3100
837.993	3066
838.131	3116
838.269	3157
838.406	3100
838.544	3093
838.681	2918
838.819	2933
838.956	2857
839.094	2853
839.231	2925
839.369	3066
839.506	3454
839.643	3230
839.781	3009
839.918	3001
840.055	3077
840.193	3104
840.33	3100
840.467	3142
840.604	3180
840.742	3454
840.879	3074
841.016	3108
841.153	3138
841.29	3351
841.427	3313
841.564	3302
841.701	3294
841.838	3237
841.975	3222
842.112	3245
842.249	3123
842.385	3077
842.522	3298
842.659	3127
842.796	3074
842.933	3169
843.069	3066
843.206	3097
843.343	3195
843.479	3123
843.616	3150
843.752	2910
843.889	2891
844.025	3108
844.162	2895
844.298	3097
844.435	2960
844.571	2937
844.708	3100
844.844	3195
844.98	3249
845.117	3188
845.253	3085
845.389	3066
845.525	3108
845.661	3119
845.798	3055
845.934	3146
846.07	3074
846.206	3233
846.342	3340
846.478	3245
846.614	3097
846.75	3116
846.886	3051
847.022	3249
847.158	3161
847.294	3256
847.429	3272
847.565	3226
847.701	3507
847.837	3058
847.972	3058
848.108	3165
848.244	3157
848.379	3039
848.515	2963
848.65	3024
848.786	3013
848.921	3055
849.057	3135
849.192	3154
849.328	3055
849.463	3112
849.598	3055
849.734	3047
849.869	3043
850.004	2960
850.14	3009
850.275	2929
850.41	2868
850.545	2914
850.68	2952
850.815	2994
850.95	2990
851.085	3176
851.22	3112
851.355	3058
851.49	2994
851.625	3001
851.76	3032
851.895	2960
852.03	2933
852.165	3055
852.299	3161
852.434	3199
852.569	3165
852.703	3195
852.838	3302
852.973	3374
853.107	3374
853.242	3195
853.376	3104
853.511	3013
853.645	3081
853.78	3241
853.914	3169
854.048	3138
854.183	3089
854.317	3161
854.451	3321
854.585	3154
854.72	3108
854.854	3218
854.988	3070
855.122	3104
855.256	3009
855.39	3104
855.524	3256
855.658	3226
855.792	3161
855.926	3214
856.06	3241
856.194	3317
856.327	3207
856.461	3131
856.595	3108
856.729	3123
856.862	3249
856.996	3195
857.13	3222
857.263	3260
857.397	3291
857.53	3131
857.664	3237
857.797	3275
857.931	3321
858.064	3169
858.197	3207
858.331	3138
858.464	3123
858.597	3017
858.731	3161
858.864	3173
858.997	3116
859.13	3176
859.263	3203
859.396	3214
859.529	3116
859.662	3131
859.795	3085
859.928	3184
860.061	3291
860.194	3287
860.327	3157
860.46	3135
860.592	3241
860.725	3264
860.858	3291
860.99	3119
861.123	3066
861.256	3070
861.388	3154
861.521	3838
861.653	3058
861.786	3028
861.918	3039
862.05	3097
862.183	3119
862.315	3157
862.447	3218
862.58	3123
862.712	2986
862.844	2899
862.976	3066
863.108	3039
863.24	3435
863.372	2937
863.504	2979
863.636	3001
863.768	3062
863.9	2994
864.032	2975
864.164	2952
864.296	3036
864.428	3081
864.559	3165
864.691	3089
864.823	3108
864.954	3047
865.086	3020
865.217	3017
865.349	2982
865.48	3009
865.612	3070
865.743	3146
865.875	2998
866.006	2994
866.137	2994
866.269	2975
866.4	2971
866.531	2975
866.662	2941
866.793	2880
866.924	2914
867.055	2982
867.186	2937
867.317	2906
867.448	2853
867.579	2849
867.71	2864
867.841	2823
867.972	2895
868.103	2918
868.233	2899
868.364	2929
868.495	2941
868.625	3100
868.756	3184
868.886	2979
869.017	3043
869.147	3192
869.278	3184
869.408	3032
869.539	3062
869.669	3161
869.799	3077
869.929	3123
870.06	3108
870.19	3351
870.32	3272
870.45	3279
870.58	3393
870.71	3485
870.84	3466
870.97	3317
871.1	3241
871.23	3507
871.36	3488
871.489	3363
871.619	3435
871.749	3428
871.879	3435
872.008	3511
872.138	3348
872.267	3325
872.397	3173
872.526	3108
872.656	3017
872.785	3089
872.915	3256
873.044	3382
873.173	3260
873.303	3256
873.432	3226
873.561	3222
873.69	3165
873.819	3165
873.948	3222
874.077	3123
874.206	3047
874.335	3089
874.464	3230
874.593	3382
874.722	3260
874.851	3409
874.979	3389
875.108	3348
875.237	3218
875.365	3180
875.494	3157
875.623	3256
875.751	3108
875.88	3138
876.008	3226
876.136	3233
876.265	3359
876.393	3519
876.521	3420
876.65	3386
876.778	3348
876.906	3264
877.034	3249
877.162	3264
877.29	3207
877.418	3294
877.546	3268
877.674	3268
877.802	3253
877.93	3226
878.058	3207
878.185	3116
878.313	3214
878.441	3241
878.568	3058
878.696	3154
878.824	3279
878.951	3329
879.079	3447
879.206	3633
879.333	3447
879.461	3382
879.588	3363
879.715	3519
879.842	3629
879.97	3386
880.097	3188
880.224	3135
880.351	3188
880.478	3249
880.605	3199
880.732	3211
880.859	3515
880.986	3306
881.112	3313
881.239	3203
881.366	3097
881.493	3055
881.619	3058
881.746	3089
881.872	3104
881.999	3119
882.125	3184
882.252	3287
882.378	3310
882.505	3458
882.631	3275
882.757	3188
882.883	3226
883.01	3214
883.136	3184
883.262	3097
883.388	3119
883.514	3367
883.64	3378
883.766	3310
883.892	3154
884.018	3249
884.143	3439
884.269	3549
884.395	3222
884.52	3169
884.646	3237
884.772	3135
884.897	3116
885.023	3188
885.148	3344
885.274	3447
885.399	3351
885.524	3268
885.65	3268
885.775	3329
885.9	3306
886.025	3439
886.15	3378
886.275	3294
886.4	3260
886.525	3321
886.65	3260
886.775	3283
886.9	3526
887.025	3622
887.149	3424
887.274	3268
887.399	3233
887.523	3245
887.648	3218
887.773	3226
887.897	3359
888.021	3397
888.146	3279
888.27	3485
888.395	3538
888.519	3435
888.643	3462
888.767	3462
888.891	3336
889.015	3256
889.139	3325
889.263	3260
889.387	3389
889.511	3485
889.635	3466
889.759	3294
889.883	3306
890.006	3378
890.13	3496
890.254	3253
890.377	3355
890.501	3237
890.624	3176
890.748	3348
890.871	3207
890.995	3142
891.118	3062
891.241	3199
891.364	3214
891.488	3321
891.611	3195
891.734	3233
891.857	3268
891.98	3203
892.103	3344
892.226	3279
892.349	3214
892.471	3116
892.594	3249
892.717	3298
892.839	3283
892.962	3291
893.085	3344
893.207	3260
893.33	3165
893.452	3233
893.575	3374
893.697	3272
893.819	3466
893.941	3504
894.064	3477
894.186	3329
894.308	3291
894.43	3435
894.552	3504
894.674	3492
894.796	3283
894.918	3336
895.04	3287
895.161	3439
895.283	3428
895.405	3287
895.526	3363
895.648	3420
895.769	3431
895.891	3485
896.012	3477
896.134	3485
896.255	3431
896.376	3393
896.498	3359
896.619	3466
896.74	3382
896.861	3409
896.982	3682
897.103	3857
897.224	3614
897.345	3561
897.466	3462
897.587	3496
897.708	3633
897.828	3526
897.949	3454
898.07	3359
898.19	3351
898.311	3629
898.431	3481
898.552	3511
898.672	3614
898.792	3603
898.913	3519
899.033	3431
899.153	3325
899.273	3256
899.393	3291
899.513	3313
899.633	3310
899.753	3351
899.873	3313
899.993	3378
900.113	3298
900.232	3397
900.352	3325
900.472	3272
900.591	3180
900.711	3298
900.83	3218
900.95	3439
901.069	3481
901.189	3367
901.308	3138
901.427	3157
901.546	3226
901.665	3256
901.784	3348
901.904	3207
902.023	3138
902.141	3024
902.26	3028
902.379	3123
902.498	3077
902.617	3077
902.735	3203
902.854	3245
902.973	3184
903.091	3043
903.21	3066
903.328	3131
903.446	3116
903.565	3104
903.683	3207
903.801	3150
903.919	3245
904.038	3317
904.156	3176
904.274	3298
904.392	3268
904.51	3313
904.627	3283
904.745	3424
904.863	3485
904.981	3233
905.098	3157
905.216	3241
905.334	3256
905.451	3298
905.569	3321
905.686	3450
905.803	3435
905.921	3279
906.038	3439
906.155	3348
906.272	3268
906.389	3321
906.506	3233
906.623	3264
906.74	3302
906.857	3199
906.974	3264
907.091	3477
907.208	3553
907.324	3492
907.441	3389
907.557	3241
907.674	3245
907.79	3192
907.907	3275
908.023	3386
908.139	3329
908.256	3332
908.372	3344
908.488	3348
908.604	3264
908.72	3241
908.836	3313
908.952	3287
909.068	3370
909.184	3496
909.3	3367
909.415	3473
909.531	3454
909.647	3310
909.762	3264
909.878	3294
909.993	3382
910.108	3351
910.224	3344
910.339	3405
910.454	3332
910.57	3321
910.685	3260
910.8	3622
910.915	3534
911.03	3439
911.145	3298
911.259	3260
911.374	3302
911.489	3283
911.604	3245
911.718	3138
911.833	3154
911.947	3020
912.062	2956
912.176	3131
912.291	3226
912.405	3218
912.519	3420
912.633	3477
912.748	3313
912.862	3256
912.976	3161
913.09	3085
913.204	3154
913.318	3226
913.431	3321
913.545	3359
913.659	3431
913.772	3302
913.886	3214
914	3207
914.113	3355
914.226	3416
914.34	3409
914.453	3226
914.566	3412
914.68	3260
914.793	3382
914.906	3150
915.019	3112
915.132	3062
915.245	3138
915.358	3218
915.47	3222
915.583	3256
915.696	3313
915.809	3378
915.921	3420
916.034	3260
916.146	3264
916.259	3233
916.371	3367
916.483	3317
916.595	3253
916.708	3336
916.82	3344
916.932	3329
917.044	3306
917.156	3355
917.268	3264
917.38	3313
917.491	3306
917.603	3348
917.715	3488
917.826	3469
917.938	3397
918.049	3226
918.161	3405
918.272	3610
918.384	3534
918.495	3462
918.606	3329
918.717	3313
918.828	3378
918.939	3428
919.05	3329
919.161	3401
919.272	3169
919.383	3291
919.494	3507
919.604	3679
919.715	3485
919.826	3397
919.936	3477
920.047	3591
920.157	3553
920.267	3728
920.378	3633
920.488	3576
920.598	3789
920.708	3930
920.818	3827
920.928	3823
921.038	4029
921.148	4036
921.258	3709
921.368	3595
921.477	3572
921.587	3542
921.697	3473
921.806	3648
921.916	3561
922.025	3378
922.134	3348
922.244	3355
922.353	3397
922.462	3313
922.571	3218
922.68	3127
922.789	3081
922.898	3161
923.007	3104
923.116	3214
923.224	3192
923.333	3154
923.442	3138
923.55	3051
923.659	3142
923.767	3226
923.876	3093
923.984	3287
924.092	3074
924.201	3218
924.309	3226
924.417	3233
924.525	3192
924.633	3237
924.741	4185
924.849	3066
924.956	3253
925.064	3070
925.172	3032
925.279	3097
925.387	3233
925.494	3218
925.602	3370
925.709	3336
925.816	3184
925.924	3306
926.031	3344
926.138	3336
926.245	3363
926.352	3275
926.459	3397
926.566	3481
926.673	3325
926.779	3233
926.886	3249
926.993	3104
927.099	3108
927.206	3127
927.312	3100
927.419	3233
927.525	3188
927.631	3249
927.737	3150
927.843	3112
927.95	3032
928.056	3112
928.162	3138
928.267	3237
928.373	3892
928.479	3275
928.585	3062
928.69	3207
928.796	3279
928.901	3150
929.007	3055
929.112	3176
929.218	3138
929.323	3180
929.428	3150
929.533	3294
929.638	3108
929.743	3184
929.848	3241
929.953	3184
930.058	3150
930.163	2990
930.267	3024
930.372	3184
930.477	3024
930.581	3287
930.685	3195
930.79	3032
930.894	3089
930.998	3089
931.103	3256
931.207	2941
931.311	2952
931.415	2937
931.519	2777
931.623	2796
