Data from test_V78500241_1455.txt Node
Date: Fri Mar 25 16:25:17 CST 2022
User: usil
Spectrometer: V785-0024
Trigger mode: 0
Integration Time (sec): 4.000000E-1
Scans to average: 1
Nonlinearity correction enabled: false
Boxcar width: 0
Storing dark spectrum: false
XAxis mode: Wavelengths
Number of Pixels in Spectrum: 1024
>>>>>Begin Spectral Data<<<<<
801.071	2929
801.214	2960
801.356	2914
801.499	2929
801.641	2906
801.783	2933
801.926	3085
802.068	2971
802.211	3032
802.353	3043
802.496	2986
802.638	3039
802.78	3066
802.923	3100
803.065	3028
803.208	2933
803.35	2956
803.492	2979
803.635	2941
803.777	2785
803.919	2902
804.061	3203
804.204	3001
804.346	2941
804.488	2845
804.63	3005
804.773	2895
804.915	2948
805.057	3074
805.199	2933
805.341	3005
805.483	3055
805.626	3009
805.768	2994
805.91	3100
806.052	3169
806.194	3070
806.336	3283
806.478	3017
806.62	2982
806.762	2963
806.904	3138
807.046	3195
807.188	3017
807.33	2941
807.472	3024
807.614	2914
807.756	2986
807.898	2933
808.04	2895
808.182	2986
808.324	2982
808.465	2933
808.607	2887
808.749	2819
808.891	2830
809.033	3005
809.174	2975
809.316	2922
809.458	2914
809.6	2804
809.741	2781
809.883	2781
810.025	2887
810.166	2864
810.308	2849
810.45	2883
810.591	2792
810.733	2792
810.875	2902
811.016	2815
811.158	2785
811.299	2845
811.441	2941
811.582	2891
811.724	2868
811.865	2872
812.007	2956
812.148	2880
812.29	2887
812.431	2902
812.573	2986
812.714	2986
812.855	3074
812.997	3055
813.138	3138
813.279	3013
813.421	3005
813.562	2998
813.703	2918
813.845	2937
813.986	2823
814.127	2762
814.268	2887
814.41	2880
814.551	2864
814.692	2861
814.833	2811
814.974	2929
815.115	2979
815.256	2834
815.397	2857
815.539	2895
815.68	2819
815.821	2807
815.962	2967
816.103	2975
816.244	2922
816.385	2910
816.526	3028
816.666	2914
816.807	2777
816.948	2925
817.089	2906
817.23	2887
817.371	2811
817.512	2834
817.653	2918
817.793	2861
817.934	2906
818.075	2952
818.216	2998
818.356	3066
818.497	2948
818.638	2800
818.778	2853
818.919	2838
819.06	2773
819.2	2887
819.341	2845
819.481	2811
819.622	2948
819.762	3108
819.903	3100
820.043	2941
820.184	2906
820.324	2899
820.465	3001
820.605	3017
820.746	3043
820.886	2944
821.026	3123
821.167	3146
821.307	3275
821.447	3310
821.588	3233
821.728	3192
821.868	3199
822.008	3085
822.149	3180
822.289	3241
822.429	3135
822.569	3097
822.709	3150
822.849	3024
822.99	3085
823.13	3211
823.27	3203
823.41	3131
823.55	3154
823.69	3176
823.83	3222
823.97	3142
824.11	3036
824.25	2986
824.389	3074
824.529	3135
824.669	3070
824.809	3230
824.949	3256
825.089	3249
825.228	3188
825.368	3036
825.508	2990
825.648	2994
825.787	3043
825.927	3055
826.067	2982
826.206	2990
826.346	3081
826.485	3093
826.625	3116
826.765	3268
826.904	3214
827.044	3043
827.183	2941
827.323	2899
827.462	3020
827.601	2963
827.741	2944
827.88	2960
828.02	2838
828.159	2990
828.298	3058
828.437	3135
828.577	3058
828.716	3245
828.855	3100
828.994	2948
829.134	2876
829.273	2925
829.412	2864
829.551	2868
829.69	2883
829.829	2979
829.968	3146
830.107	3020
830.246	3001
830.385	2963
830.524	2880
830.663	2823
830.802	2739
830.941	2667
831.08	2659
831.219	2769
831.357	2796
831.496	2994
831.635	2777
831.774	2655
831.913	2720
832.051	2552
832.19	2617
832.329	2720
832.467	2541
832.606	2488
832.744	2594
832.883	2613
833.022	2571
833.16	2667
833.299	2678
833.437	2667
833.576	2724
833.714	2727
833.852	2712
833.991	2804
834.129	2861
834.267	2830
834.406	2826
834.544	2899
834.682	2910
834.821	2906
834.959	3077
835.097	2914
835.235	3081
835.373	3028
835.511	2982
835.65	2994
835.788	2975
835.926	2838
836.064	2830
836.202	2849
836.34	3135
836.478	3154
836.615	3028
836.753	3180
836.891	3199
837.029	3184
837.167	3085
837.305	3085
837.443	3108
837.58	3009
837.718	3150
837.856	3085
837.993	3051
838.131	3112
838.269	3104
838.406	3138
838.544	3100
838.681	2952
838.819	2941
838.956	2811
839.094	2845
839.231	2914
839.369	3032
839.506	3420
839.643	3199
839.781	3055
839.918	3009
840.055	3058
840.193	3070
840.33	3085
840.467	3051
840.604	3131
840.742	3409
840.879	3100
841.016	3039
841.153	3131
841.29	3332
841.427	3287
841.564	3287
841.701	3313
841.838	3230
841.975	3188
842.112	3241
842.249	3081
842.385	3074
842.522	3275
842.659	3112
842.796	3097
842.933	3112
843.069	3070
843.206	3051
843.343	3184
843.479	3131
843.616	3161
843.752	2918
843.889	2861
844.025	3127
844.162	2864
844.298	3119
844.435	2982
844.571	2929
844.708	3093
844.844	3184
844.98	3237
845.117	3226
845.253	3093
845.389	2998
845.525	3123
845.661	3066
845.798	3017
845.934	3150
846.07	3055
846.206	3226
846.342	3321
846.478	3241
846.614	3116
846.75	3081
846.886	3039
847.022	3264
847.158	3161
847.294	3184
847.429	3275
847.565	3222
847.701	3492
847.837	3039
847.972	3039
848.108	3203
848.244	3169
848.379	2994
848.515	2944
848.65	2948
848.786	2952
848.921	3005
849.057	3085
849.192	3150
849.328	3051
849.463	3104
849.598	3055
849.734	3039
849.869	2979
850.004	2925
850.14	2990
850.275	2929
850.41	2857
850.545	2895
850.68	2956
850.815	2963
850.95	2960
851.085	3203
851.22	3081
851.355	3036
851.49	3001
851.625	3043
851.76	2982
851.895	2944
852.03	2933
852.165	3097
852.299	3131
852.434	3173
852.569	3192
852.703	3207
852.838	3275
852.973	3348
853.107	3298
853.242	3127
853.376	3112
853.511	2963
853.645	3074
853.78	3245
853.914	3108
854.048	3123
854.183	3100
854.317	3165
854.451	3272
854.585	3138
854.72	3097
854.854	3211
854.988	3051
855.122	3104
855.256	2975
855.39	3138
855.524	3230
855.658	3180
855.792	3150
855.926	3192
856.06	3207
856.194	3283
856.327	3123
856.461	3104
856.595	3116
856.729	3127
856.862	3184
856.996	3157
857.13	3184
857.263	3249
857.397	3287
857.53	3104
857.664	3222
857.797	3256
857.931	3291
858.064	3146
858.197	3226
858.331	3123
858.464	3119
858.597	3005
858.731	3108
858.864	3142
858.997	3104
859.13	3150
859.263	3176
859.396	3207
859.529	3116
859.662	3108
859.795	3066
859.928	3146
860.061	3294
860.194	3287
860.327	3142
860.46	3123
860.592	3268
860.725	3249
860.858	3260
860.99	3108
861.123	3085
861.256	3062
861.388	3138
861.521	3876
861.653	3039
861.786	2979
861.918	2960
862.05	3070
862.183	3089
862.315	3173
862.447	3203
862.58	3138
862.712	2948
862.844	2914
862.976	3017
863.108	2979
863.24	3313
863.372	2910
863.504	2994
863.636	2944
863.768	3001
863.9	2963
864.032	2902
864.164	2941
864.296	3047
864.428	3127
864.559	3138
864.691	3089
864.823	3097
864.954	3051
865.086	3020
865.217	2963
865.349	2933
865.48	3036
865.612	3039
865.743	3180
865.875	2990
866.006	2918
866.137	2986
866.269	2975
866.4	2986
866.531	2952
866.662	2914
866.793	2925
866.924	2876
867.055	2986
867.186	2914
867.317	2914
867.448	2804
867.579	2823
867.71	2887
867.841	2864
867.972	2925
868.103	2922
868.233	2918
868.364	2864
868.495	2891
868.625	3100
868.756	3195
868.886	2956
869.017	3013
869.147	3176
869.278	3169
869.408	3047
869.539	3028
869.669	3085
869.799	3032
869.929	3142
870.06	3116
870.19	3275
870.32	3298
870.45	3321
870.58	3378
870.71	3469
870.84	3420
870.97	3287
871.1	3264
871.23	3481
871.36	3450
871.489	3351
871.619	3416
871.749	3401
871.879	3439
872.008	3481
872.138	3370
872.267	3298
872.397	3154
872.526	3108
872.656	3043
872.785	3074
872.915	3218
873.044	3332
873.173	3260
873.303	3226
873.432	3233
873.561	3253
873.69	3165
873.819	3161
873.948	3214
874.077	3135
874.206	3043
874.335	3062
874.464	3188
874.593	3344
874.722	3283
874.851	3386
874.979	3355
875.108	3275
875.237	3188
875.365	3157
875.494	3176
875.623	3211
875.751	3077
875.88	3112
876.008	3180
876.136	3203
876.265	3340
876.393	3477
876.521	3409
876.65	3389
876.778	3283
876.906	3291
877.034	3184
877.162	3268
877.29	3195
877.418	3253
877.546	3230
877.674	3237
877.802	3241
877.93	3245
878.058	3142
878.185	3119
878.313	3192
878.441	3218
878.568	3043
878.696	3127
878.824	3268
878.951	3283
879.079	3450
879.206	3599
879.333	3397
879.461	3370
879.588	3378
879.715	3447
879.842	3580
879.97	3405
880.097	3142
880.224	3116
880.351	3169
880.478	3222
880.605	3180
880.732	3176
880.859	3473
880.986	3279
881.112	3317
881.239	3203
881.366	3123
881.493	3047
881.619	3013
881.746	3062
881.872	3074
881.999	3119
882.125	3146
882.252	3230
882.378	3302
882.505	3447
882.631	3275
882.757	3165
882.883	3214
883.01	3241
883.136	3184
883.262	3066
883.388	3138
883.514	3313
883.64	3344
883.766	3291
883.892	3150
884.018	3253
884.143	3382
884.269	3523
884.395	3222
884.52	3119
884.646	3154
884.772	3097
884.897	3085
885.023	3203
885.148	3363
885.274	3378
885.399	3401
885.524	3260
885.65	3279
885.775	3291
885.9	3294
886.025	3447
886.15	3355
886.275	3260
886.4	3241
886.525	3310
886.65	3344
886.775	3283
886.9	3477
887.025	3603
887.149	3473
887.274	3260
887.399	3157
887.523	3195
887.648	3184
887.773	3184
887.897	3336
888.021	3359
888.146	3291
888.27	3439
888.395	3523
888.519	3424
888.643	3409
888.767	3477
888.891	3317
889.015	3249
889.139	3298
889.263	3233
889.387	3389
889.511	3504
889.635	3462
889.759	3313
889.883	3294
890.006	3435
890.13	3450
890.254	3264
890.377	3332
890.501	3222
890.624	3176
890.748	3264
890.871	3165
890.995	3165
891.118	3074
891.241	3180
891.364	3241
891.488	3302
891.611	3161
891.734	3222
891.857	3298
891.98	3222
892.103	3302
892.226	3272
892.349	3176
892.471	3112
892.594	3226
892.717	3321
892.839	3264
892.962	3294
893.085	3348
893.207	3253
893.33	3157
893.452	3173
893.575	3370
893.697	3230
893.819	3496
893.941	3500
894.064	3431
894.186	3287
894.308	3272
894.43	3454
894.552	3561
894.674	3496
894.796	3287
894.918	3256
895.04	3325
895.161	3416
895.283	3389
895.405	3294
895.526	3378
895.648	3424
895.769	3424
895.891	3450
896.012	3447
896.134	3447
896.255	3424
896.376	3405
896.498	3317
896.619	3439
896.74	3393
896.861	3401
896.982	3694
897.103	3861
897.224	3568
897.345	3519
897.466	3424
897.587	3469
897.708	3591
897.828	3538
897.949	3405
898.07	3306
898.19	3435
898.311	3633
898.431	3466
898.552	3500
898.672	3599
898.792	3595
898.913	3511
899.033	3378
899.153	3325
899.273	3226
899.393	3260
899.513	3340
899.633	3294
899.753	3329
899.873	3310
899.993	3355
900.113	3287
900.232	3386
900.352	3351
900.472	3302
900.591	3165
900.711	3264
900.83	3214
900.95	3405
901.069	3496
901.189	3389
901.308	3165
901.427	3150
901.546	3184
901.665	3275
901.784	3306
901.904	3237
902.023	3142
902.141	3013
902.26	2952
902.379	3100
902.498	3062
902.617	3043
902.735	3211
902.854	3233
902.973	3169
903.091	3039
903.21	3047
903.328	3146
903.446	3112
903.565	3074
903.683	3218
903.801	3150
903.919	3203
904.038	3237
904.156	3161
904.274	3256
904.392	3264
904.51	3291
904.627	3359
904.745	3428
904.863	3481
904.981	3249
905.098	3112
905.216	3237
905.334	3279
905.451	3310
905.569	3325
905.686	3409
905.803	3412
905.921	3272
906.038	3424
906.155	3325
906.272	3260
906.389	3317
906.506	3260
906.623	3211
906.74	3268
906.857	3184
906.974	3241
907.091	3409
907.208	3564
907.324	3511
907.441	3359
907.557	3230
907.674	3222
907.79	3214
907.907	3245
908.023	3351
908.139	3344
908.256	3351
908.372	3332
908.488	3351
908.604	3264
908.72	3211
908.836	3287
908.952	3291
909.068	3340
909.184	3443
909.3	3359
909.415	3496
909.531	3481
909.647	3294
909.762	3310
909.878	3298
909.993	3344
910.108	3332
910.224	3313
910.339	3412
910.454	3317
910.57	3298
910.685	3214
910.8	3603
910.915	3545
911.03	3435
911.145	3275
911.259	3294
911.374	3294
911.489	3249
911.604	3230
911.718	3100
911.833	3112
911.947	3032
912.062	2975
912.176	3119
912.291	3192
912.405	3207
912.519	3431
912.633	3485
912.748	3298
912.862	3253
912.976	3100
913.09	3028
913.204	3138
913.318	3199
913.431	3329
913.545	3336
913.659	3420
913.772	3298
913.886	3192
914	3184
914.113	3348
914.226	3386
914.34	3416
914.453	3233
914.566	3409
914.68	3283
914.793	3363
914.906	3127
915.019	3116
915.132	3058
915.245	3150
915.358	3237
915.47	3211
915.583	3279
915.696	3283
915.809	3355
915.921	3447
916.034	3241
916.146	3260
916.259	3237
916.371	3389
916.483	3374
916.595	3291
916.708	3367
916.82	3321
916.932	3348
917.044	3321
917.156	3351
917.268	3207
917.38	3283
917.491	3291
917.603	3348
917.715	3431
917.826	3447
917.938	3378
918.049	3310
918.161	3454
918.272	3553
918.384	3538
918.495	3511
918.606	3291
918.717	3264
918.828	3363
918.939	3386
919.05	3268
919.161	3332
919.272	3146
919.383	3268
919.494	3469
919.604	3644
919.715	3504
919.826	3416
919.936	3466
920.047	3599
920.157	3568
920.267	3740
920.378	3591
920.488	3564
920.598	3766
920.708	3903
920.818	3846
920.928	3823
921.038	3998
921.148	3994
921.258	3717
921.368	3603
921.477	3576
921.587	3545
921.697	3431
921.806	3576
921.916	3534
922.025	3313
922.134	3340
922.244	3306
922.353	3443
922.462	3283
922.571	3230
922.68	3085
922.789	3077
922.898	3154
923.007	3116
923.116	3237
923.224	3161
923.333	3157
923.442	3108
923.55	3123
923.659	3131
923.767	3203
923.876	3119
923.984	3264
924.092	3100
924.201	3222
924.309	3188
924.417	3268
924.525	3157
924.633	3256
924.741	4169
924.849	3039
924.956	3218
925.064	3100
925.172	3024
925.279	3108
925.387	3165
925.494	3142
925.602	3355
925.709	3332
925.816	3192
925.924	3253
926.031	3340
926.138	3321
926.245	3397
926.352	3249
926.459	3393
926.566	3481
926.673	3310
926.779	3233
926.886	3275
926.993	3161
927.099	3146
927.206	3119
927.312	3123
927.419	3249
927.525	3173
927.631	3287
927.737	3150
927.843	3100
927.95	3009
928.056	3138
928.162	3169
928.267	3264
928.373	3755
928.479	3355
928.585	3039
928.69	3192
928.796	3249
928.901	3135
929.007	3039
929.112	3203
929.218	3184
929.323	3131
929.428	3131
929.533	3287
929.638	3119
929.743	3150
929.848	3256
929.953	3188
930.058	3157
930.163	2975
930.267	3032
930.372	3150
930.477	3032
930.581	3310
930.685	3165
930.79	3051
930.894	3146
930.998	3116
931.103	3268
931.207	2922
931.311	2929
931.415	2918
931.519	2769
931.623	2823
