Data from test_V78500241_863.txt Node
Date: Fri Mar 25 16:21:10 CST 2022
User: usil
Spectrometer: V785-0024
Trigger mode: 0
Integration Time (sec): 4.000000E-1
Scans to average: 1
Nonlinearity correction enabled: false
Boxcar width: 0
Storing dark spectrum: false
XAxis mode: Wavelengths
Number of Pixels in Spectrum: 1024
>>>>>Begin Spectral Data<<<<<
801.071	2933
801.214	2933
801.356	2868
801.499	2895
801.641	2868
801.783	2929
801.926	3024
802.068	2960
802.211	2986
802.353	3017
802.496	2990
802.638	3051
802.78	3039
802.923	3093
803.065	2994
803.208	2838
803.35	2937
803.492	2899
803.635	2929
803.777	2758
803.919	2876
804.061	3199
804.204	2929
804.346	2883
804.488	2838
804.63	2960
804.773	2887
804.915	2910
805.057	3081
805.199	2910
805.341	2982
805.483	3020
805.626	2982
805.768	2944
805.91	3097
806.052	3150
806.194	3051
806.336	3195
806.478	2990
806.62	2918
806.762	2982
806.904	3032
807.046	3127
807.188	2967
807.33	2883
807.472	2944
807.614	2895
807.756	2979
807.898	2914
808.04	2861
808.182	2986
808.324	2963
808.465	2883
808.607	2918
808.749	2826
808.891	2857
809.033	2937
809.174	2975
809.316	2849
809.458	2880
809.6	2758
809.741	2743
809.883	2788
810.025	2853
810.166	2876
810.308	2853
810.45	2849
810.591	2762
810.733	2792
810.875	2834
811.016	2781
811.158	2758
811.299	2811
811.441	2944
811.582	2880
811.724	2796
811.865	2823
812.007	2918
812.148	2891
812.29	2868
812.431	2845
812.573	2891
812.714	2937
812.855	3074
812.997	3009
813.138	3138
813.279	3017
813.421	2975
813.562	2975
813.703	2895
813.845	2910
813.986	2769
814.127	2697
814.268	2792
814.41	2838
814.551	2807
814.692	2883
814.833	2811
814.974	2891
815.115	2979
815.256	2811
815.397	2796
815.539	2857
815.68	2762
815.821	2792
815.962	2944
816.103	2933
816.244	2861
816.385	2883
816.526	2941
816.666	2895
816.807	2777
816.948	2883
817.089	2895
817.23	2853
817.371	2811
817.512	2815
817.653	2830
817.793	2861
817.934	2899
818.075	2990
818.216	2979
818.356	3020
818.497	2868
818.638	2788
818.778	2857
818.919	2773
819.06	2743
819.2	2864
819.341	2781
819.481	2815
819.622	2902
819.762	3131
819.903	3020
820.043	2929
820.184	2842
820.324	2895
820.465	3020
820.605	3013
820.746	3036
820.886	2922
821.026	3093
821.167	3165
821.307	3245
821.447	3291
821.588	3241
821.728	3211
821.868	3180
822.008	3085
822.149	3203
822.289	3233
822.429	3081
822.569	3074
822.709	3192
822.849	3039
822.99	3097
823.13	3154
823.27	3176
823.41	3119
823.55	3108
823.69	3150
823.83	3195
823.97	3089
824.11	3001
824.25	3005
824.389	3097
824.529	3108
824.669	3047
824.809	3192
824.949	3237
825.089	3226
825.228	3119
825.368	2998
825.508	2960
825.648	2948
825.787	2998
825.927	3017
826.067	2937
826.206	2975
826.346	2982
826.485	3104
826.625	3093
826.765	3260
826.904	3226
827.044	2982
827.183	2899
827.323	2845
827.462	2956
827.601	2883
827.741	2914
827.88	2925
828.02	2826
828.159	2948
828.298	3009
828.437	3135
828.577	3039
828.716	3218
828.855	3154
828.994	2948
829.134	2883
829.273	2918
829.412	2849
829.551	2834
829.69	2895
829.829	2986
829.968	3089
830.107	3001
830.246	3039
830.385	2952
830.524	2838
830.663	2792
830.802	2705
830.941	2621
831.08	2629
831.219	2762
831.357	2731
831.496	2941
831.635	2727
831.774	2644
831.913	2670
832.051	2549
832.19	2579
832.329	2686
832.467	2503
832.606	2514
832.744	2552
832.883	2583
833.022	2579
833.16	2632
833.299	2670
833.437	2674
833.576	2689
833.714	2720
833.852	2762
833.991	2720
834.129	2826
834.267	2830
834.406	2781
834.544	2895
834.682	2861
834.821	2868
834.959	3058
835.097	2891
835.235	3066
835.373	2971
835.511	3024
835.65	2956
835.788	2925
835.926	2830
836.064	2819
836.202	2845
836.34	3104
836.478	3131
836.615	3017
836.753	3123
836.891	3211
837.029	3138
837.167	3123
837.305	3058
837.443	3055
837.58	2963
837.718	3116
837.856	3058
837.993	3032
838.131	3119
838.269	3089
838.406	3066
838.544	3089
838.681	2941
838.819	2910
838.956	2792
839.094	2804
839.231	2895
839.369	3024
839.506	3355
839.643	3203
839.781	2960
839.918	2956
840.055	3020
840.193	3089
840.33	3036
840.467	3089
840.604	3138
840.742	3359
840.879	3039
841.016	3055
841.153	3131
841.29	3348
841.427	3279
841.564	3245
841.701	3275
841.838	3203
841.975	3188
842.112	3211
842.249	3055
842.385	3024
842.522	3241
842.659	3055
842.796	3047
842.933	3043
843.069	3009
843.206	3032
843.343	3142
843.479	3108
843.616	3131
843.752	2887
843.889	2872
844.025	3062
844.162	2842
844.298	3077
844.435	2937
844.571	2891
844.708	3039
844.844	3211
844.98	3188
845.117	3218
845.253	3047
845.389	2979
845.525	3112
845.661	3089
845.798	3024
845.934	3077
846.07	3047
846.206	3203
846.342	3306
846.478	3226
846.614	3062
846.75	3055
846.886	2994
847.022	3222
847.158	3108
847.294	3192
847.429	3253
847.565	3207
847.701	3500
847.837	3009
847.972	3017
848.108	3154
848.244	3169
848.379	3005
848.515	2944
848.65	2925
848.786	2956
848.921	3005
849.057	3112
849.192	3135
849.328	3062
849.463	3051
849.598	3055
849.734	3024
849.869	2960
850.004	2876
850.14	2979
850.275	2876
850.41	2864
850.545	2872
850.68	2910
850.815	2979
850.95	2929
851.085	3192
851.22	3108
851.355	3024
851.49	2929
851.625	2967
851.76	2994
851.895	2914
852.03	2887
852.165	3055
852.299	3077
852.434	3195
852.569	3131
852.703	3131
852.838	3226
852.973	3329
853.107	3351
853.242	3112
853.376	3085
853.511	2982
853.645	3032
853.78	3260
853.914	3093
854.048	3135
854.183	3116
854.317	3131
854.451	3332
854.585	3123
854.72	3077
854.854	3207
854.988	3043
855.122	3112
855.256	2967
855.39	3108
855.524	3211
855.658	3157
855.792	3142
855.926	3157
856.06	3214
856.194	3222
856.327	3142
856.461	3085
856.595	3074
856.729	3055
856.862	3214
856.996	3157
857.13	3211
857.263	3226
857.397	3291
857.53	3135
857.664	3222
857.797	3214
857.931	3222
858.064	3165
858.197	3218
858.331	3127
858.464	3116
858.597	2944
858.731	3108
858.864	3074
858.997	3051
859.13	3173
859.263	3142
859.396	3146
859.529	3070
859.662	3062
859.795	3097
859.928	3116
860.061	3294
860.194	3294
860.327	3119
860.46	3032
860.592	3230
860.725	3241
860.858	3226
860.99	3108
861.123	3066
861.256	3043
861.388	3123
861.521	3827
861.653	3001
861.786	2990
861.918	2990
862.05	3017
862.183	3070
862.315	3146
862.447	3214
862.58	3081
862.712	2948
862.844	2883
862.976	3066
863.108	2990
863.24	3279
863.372	2861
863.504	2952
863.636	2925
863.768	3017
863.9	2979
864.032	2891
864.164	2960
864.296	3013
864.428	3085
864.559	3043
864.691	3051
864.823	3070
864.954	3036
865.086	3036
865.217	2982
865.349	2902
865.48	2963
865.612	3028
865.743	3157
865.875	2994
866.006	2933
866.137	2937
866.269	2952
866.4	2925
866.531	2902
866.662	2914
866.793	2891
866.924	2864
867.055	2975
867.186	2902
867.317	2910
867.448	2811
867.579	2853
867.71	2838
867.841	2842
867.972	2895
868.103	2895
868.233	2914
868.364	2891
868.495	2910
868.625	3089
868.756	3180
868.886	2960
869.017	3013
869.147	3169
869.278	3131
869.408	3051
869.539	3032
869.669	3100
869.799	3043
869.929	3135
870.06	3093
870.19	3298
870.32	3291
870.45	3275
870.58	3367
870.71	3424
870.84	3416
870.97	3332
871.1	3195
871.23	3420
871.36	3389
871.489	3374
871.619	3363
871.749	3378
871.879	3439
872.008	3492
872.138	3344
872.267	3279
872.397	3135
872.526	3097
872.656	2990
872.785	3081
872.915	3237
873.044	3329
873.173	3203
873.303	3226
873.432	3211
873.561	3245
873.69	3116
873.819	3161
873.948	3184
874.077	3127
874.206	3062
874.335	3074
874.464	3211
874.593	3359
874.722	3241
874.851	3367
874.979	3351
875.108	3332
875.237	3184
875.365	3138
875.494	3119
875.623	3214
875.751	3112
875.88	3135
876.008	3176
876.136	3222
876.265	3336
876.393	3496
876.521	3409
876.65	3386
876.778	3374
876.906	3233
877.034	3211
877.162	3214
877.29	3199
877.418	3245
877.546	3272
877.674	3268
877.802	3279
877.93	3207
878.058	3157
878.185	3081
878.313	3203
878.441	3169
878.568	3058
878.696	3154
878.824	3241
878.951	3291
879.079	3469
879.206	3587
879.333	3412
879.461	3344
879.588	3340
879.715	3500
879.842	3584
879.97	3378
880.097	3180
880.224	3123
880.351	3138
880.478	3230
880.605	3161
880.732	3211
880.859	3462
880.986	3298
881.112	3329
881.239	3184
881.366	3100
881.493	3013
881.619	2998
881.746	3097
881.872	3104
881.999	3100
882.125	3150
882.252	3260
882.378	3272
882.505	3428
882.631	3294
882.757	3138
882.883	3214
883.01	3188
883.136	3176
883.262	3058
883.388	3089
883.514	3294
883.64	3393
883.766	3321
883.892	3199
884.018	3253
884.143	3397
884.269	3511
884.395	3176
884.52	3157
884.646	3135
884.772	3138
884.897	3097
885.023	3222
885.148	3329
885.274	3469
885.399	3363
885.524	3268
885.65	3237
885.775	3313
885.9	3283
886.025	3420
886.15	3332
886.275	3329
886.4	3214
886.525	3302
886.65	3298
886.775	3264
886.9	3511
887.025	3629
887.149	3389
887.274	3241
887.399	3180
887.523	3188
887.648	3169
887.773	3188
887.897	3401
888.021	3431
888.146	3313
888.27	3386
888.395	3542
888.519	3416
888.643	3405
888.767	3428
888.891	3268
889.015	3253
889.139	3264
889.263	3218
889.387	3409
889.511	3492
889.635	3458
889.759	3332
889.883	3287
890.006	3374
890.13	3481
890.254	3249
890.377	3348
890.501	3195
890.624	3188
890.748	3275
890.871	3207
890.995	3074
891.118	3058
891.241	3173
891.364	3226
891.488	3317
891.611	3192
891.734	3211
891.857	3275
891.98	3230
892.103	3329
892.226	3298
892.349	3165
892.471	3135
892.594	3230
892.717	3279
892.839	3287
892.962	3336
893.085	3386
893.207	3302
893.33	3123
893.452	3245
893.575	3344
893.697	3233
893.819	3439
893.941	3488
894.064	3412
894.186	3268
894.308	3253
894.43	3454
894.552	3511
894.674	3500
894.796	3283
894.918	3283
895.04	3275
895.161	3424
895.283	3393
895.405	3332
895.526	3329
895.648	3416
895.769	3443
895.891	3405
896.012	3454
896.134	3435
896.255	3389
896.376	3370
896.498	3348
896.619	3424
896.74	3348
896.861	3401
896.982	3652
897.103	3816
897.224	3587
897.345	3458
897.466	3405
897.587	3507
897.708	3587
897.828	3549
897.949	3420
898.07	3298
898.19	3412
898.311	3580
898.431	3435
898.552	3500
898.672	3610
898.792	3591
898.913	3500
899.033	3355
899.153	3310
899.273	3195
899.393	3302
899.513	3306
899.633	3306
899.753	3283
899.873	3272
899.993	3340
900.113	3313
900.232	3389
900.352	3332
900.472	3283
900.591	3192
900.711	3260
900.83	3195
900.95	3374
901.069	3488
901.189	3359
901.308	3188
901.427	3161
901.546	3199
901.665	3287
901.784	3336
901.904	3211
902.023	3169
902.141	3005
902.26	3013
902.379	3123
902.498	3058
902.617	3028
902.735	3211
902.854	3237
902.973	3214
903.091	3062
903.21	3058
903.328	3146
903.446	3066
903.565	3047
903.683	3207
903.801	3173
903.919	3241
904.038	3291
904.156	3165
904.274	3268
904.392	3283
904.51	3302
904.627	3306
904.745	3409
904.863	3496
904.981	3241
905.098	3154
905.216	3180
905.334	3287
905.451	3310
905.569	3294
905.686	3443
905.803	3454
905.921	3279
906.038	3389
906.155	3336
906.272	3245
906.389	3348
906.506	3245
906.623	3245
906.74	3279
906.857	3192
906.974	3237
907.091	3412
907.208	3553
907.324	3458
907.441	3374
907.557	3218
907.674	3237
907.79	3230
907.907	3279
908.023	3363
908.139	3378
908.256	3329
908.372	3344
908.488	3363
908.604	3264
908.72	3241
908.836	3306
908.952	3302
909.068	3329
909.184	3477
909.3	3393
909.415	3462
909.531	3416
909.647	3268
909.762	3294
909.878	3256
909.993	3351
910.108	3340
910.224	3321
910.339	3386
910.454	3340
910.57	3260
910.685	3275
910.8	3568
910.915	3576
911.03	3405
911.145	3294
911.259	3264
911.374	3313
911.489	3226
911.604	3230
911.718	3112
911.833	3146
911.947	3005
912.062	2956
912.176	3184
912.291	3165
912.405	3222
912.519	3416
912.633	3462
912.748	3332
912.862	3283
912.976	3173
913.09	3062
913.204	3119
913.318	3214
913.431	3306
913.545	3313
913.659	3378
913.772	3344
913.886	3211
914	3154
914.113	3370
914.226	3412
914.34	3367
914.453	3203
914.566	3386
914.68	3298
914.793	3294
914.906	3112
915.019	3112
915.132	3055
915.245	3150
915.358	3214
915.47	3207
915.583	3260
915.696	3298
915.809	3409
915.921	3435
916.034	3260
916.146	3237
916.259	3218
916.371	3397
916.483	3329
916.595	3275
916.708	3348
916.82	3313
916.932	3310
917.044	3332
917.156	3355
917.268	3268
917.38	3283
917.491	3294
917.603	3340
917.715	3435
917.826	3443
917.938	3336
918.049	3249
918.161	3409
918.272	3561
918.384	3515
918.495	3477
918.606	3302
918.717	3310
918.828	3363
918.939	3420
919.05	3279
919.161	3378
919.272	3203
919.383	3291
919.494	3485
919.604	3663
919.715	3481
919.826	3424
919.936	3458
920.047	3564
920.157	3519
920.267	3740
920.378	3606
920.488	3595
920.598	3812
920.708	3949
920.818	3816
920.928	3835
921.038	3972
921.148	4036
921.258	3667
921.368	3622
921.477	3564
921.587	3523
921.697	3454
921.806	3614
921.916	3526
922.025	3355
922.134	3374
922.244	3317
922.353	3431
922.462	3233
922.571	3207
922.68	3100
922.789	3055
922.898	3138
923.007	3108
923.116	3218
923.224	3173
923.333	3173
923.442	3070
923.55	3058
923.659	3150
923.767	3211
923.876	3108
923.984	3218
924.092	3131
924.201	3207
924.309	3203
924.417	3241
924.525	3161
924.633	3195
924.741	4192
924.849	3051
924.956	3230
925.064	3074
925.172	3013
925.279	3100
925.387	3180
925.494	3173
925.602	3336
925.709	3329
925.816	3230
925.924	3294
926.031	3386
926.138	3355
926.245	3363
926.352	3253
926.459	3393
926.566	3507
926.673	3291
926.779	3264
926.886	3256
926.993	3169
927.099	3150
927.206	3093
927.312	3131
927.419	3245
927.525	3173
927.631	3256
927.737	3165
927.843	3108
927.95	3005
928.056	3112
928.162	3176
928.267	3237
928.373	3785
928.479	3302
928.585	3055
928.69	3188
928.796	3253
928.901	3127
929.007	3017
929.112	3195
929.218	3176
929.323	3119
929.428	3135
929.533	3298
929.638	3081
929.743	3176
929.848	3256
929.953	3188
930.058	3112
930.163	3013
930.267	3051
930.372	3195
930.477	3028
930.581	3291
930.685	3188
930.79	3055
930.894	3077
930.998	3058
931.103	3268
931.207	2956
931.311	2922
931.415	2899
931.519	2769
931.623	2796
