Data from test_V78500241_855.txt Node
Date: Fri Mar 25 16:21:07 CST 2022
User: usil
Spectrometer: V785-0024
Trigger mode: 0
Integration Time (sec): 4.000000E-1
Scans to average: 1
Nonlinearity correction enabled: false
Boxcar width: 0
Storing dark spectrum: false
XAxis mode: Wavelengths
Number of Pixels in Spectrum: 1024
>>>>>Begin Spectral Data<<<<<
801.071	2937
801.214	2944
801.356	2845
801.499	2899
801.641	2895
801.783	2948
801.926	3039
802.068	2975
802.211	2998
802.353	3017
802.496	2960
802.638	2994
802.78	3024
802.923	3055
803.065	2994
803.208	2887
803.35	2941
803.492	2925
803.635	2902
803.777	2739
803.919	2883
804.061	3176
804.204	2937
804.346	2918
804.488	2849
804.63	2982
804.773	2887
804.915	2937
805.057	3066
805.199	2929
805.341	2963
805.483	3039
805.626	3001
805.768	2929
805.91	3070
806.052	3112
806.194	3062
806.336	3218
806.478	3047
806.62	2975
806.762	2925
806.904	3070
807.046	3173
807.188	2979
807.33	2918
807.472	3036
807.614	2880
807.756	3017
807.898	2880
808.04	2902
808.182	2971
808.324	2956
808.465	2883
808.607	2883
808.749	2815
808.891	2845
809.033	2963
809.174	2963
809.316	2887
809.458	2887
809.6	2785
809.741	2788
809.883	2796
810.025	2849
810.166	2842
810.308	2830
810.45	2834
810.591	2785
810.733	2769
810.875	2815
811.016	2819
811.158	2769
811.299	2826
811.441	2899
811.582	2883
811.724	2823
811.865	2838
812.007	2895
812.148	2861
812.29	2853
812.431	2902
812.573	2948
812.714	2933
812.855	3036
812.997	3058
813.138	3112
813.279	3005
813.421	2963
813.562	2937
813.703	2845
813.845	2883
813.986	2754
814.127	2697
814.268	2830
814.41	2800
814.551	2838
814.692	2845
814.833	2807
814.974	2902
815.115	2979
815.256	2845
815.397	2807
815.539	2876
815.68	2773
815.821	2788
815.962	2948
816.103	2929
816.244	2880
816.385	2849
816.526	2956
816.666	2902
816.807	2724
816.948	2868
817.089	2918
817.23	2880
817.371	2773
817.512	2796
817.653	2868
817.793	2811
817.934	2891
818.075	2990
818.216	2994
818.356	3009
818.497	2887
818.638	2769
818.778	2842
818.919	2769
819.06	2758
819.2	2857
819.341	2804
819.481	2804
819.622	2918
819.762	3058
819.903	3055
820.043	2895
820.184	2891
820.324	2899
820.465	3039
820.605	2967
820.746	2998
820.886	2944
821.026	3108
821.167	3146
821.307	3237
821.447	3283
821.588	3173
821.728	3203
821.868	3192
822.008	3093
822.149	3180
822.289	3241
822.429	3097
822.569	3104
822.709	3157
822.849	3062
822.99	3058
823.13	3131
823.27	3214
823.41	3123
823.55	3146
823.69	3157
823.83	3180
823.97	3058
824.11	3005
824.25	2956
824.389	3032
824.529	3104
824.669	3066
824.809	3180
824.949	3253
825.089	3199
825.228	3165
825.368	3005
825.508	2971
825.648	2960
825.787	2986
825.927	3009
826.067	2967
826.206	2963
826.346	3036
826.485	3043
826.625	3100
826.765	3241
826.904	3226
827.044	2994
827.183	2925
827.323	2887
827.462	3013
827.601	2925
827.741	2902
827.88	2952
828.02	2853
828.159	2967
828.298	3024
828.437	3089
828.577	3032
828.716	3222
828.855	3039
828.994	2910
829.134	2872
829.273	2929
829.412	2861
829.551	2880
829.69	2891
829.829	2986
829.968	3104
830.107	3017
830.246	3017
830.385	2910
830.524	2864
830.663	2830
830.802	2746
830.941	2625
831.08	2659
831.219	2766
831.357	2754
831.496	2944
831.635	2731
831.774	2655
831.913	2644
832.051	2549
832.19	2602
832.329	2682
832.467	2526
832.606	2442
832.744	2568
832.883	2610
833.022	2613
833.16	2648
833.299	2701
833.437	2651
833.576	2701
833.714	2678
833.852	2708
833.991	2743
834.129	2811
834.267	2838
834.406	2773
834.544	2845
834.682	2857
834.821	2864
834.959	3058
835.097	2864
835.235	3070
835.373	2994
835.511	3036
835.65	2944
835.788	2925
835.926	2804
836.064	2792
836.202	2842
836.34	3085
836.478	3165
836.615	3043
836.753	3100
836.891	3161
837.029	3150
837.167	3112
837.305	3055
837.443	2994
837.58	2994
837.718	3135
837.856	3036
837.993	3055
838.131	3135
838.269	3089
838.406	3081
838.544	3104
838.681	2952
838.819	2906
838.956	2807
839.094	2823
839.231	2925
839.369	3017
839.506	3386
839.643	3199
839.781	3001
839.918	2925
840.055	3039
840.193	3039
840.33	3032
840.467	3100
840.604	3176
840.742	3420
840.879	3066
841.016	3077
841.153	3116
841.29	3321
841.427	3310
841.564	3287
841.701	3306
841.838	3230
841.975	3169
842.112	3161
842.249	3039
842.385	2994
842.522	3233
842.659	3047
842.796	3039
842.933	3077
843.069	3051
843.206	3051
843.343	3142
843.479	3104
843.616	3119
843.752	2910
843.889	2819
844.025	3104
844.162	2918
844.298	3077
844.435	2922
844.571	2937
844.708	3070
844.844	3207
844.98	3199
845.117	3154
845.253	3032
845.389	3032
845.525	3089
845.661	3089
845.798	2986
845.934	3104
846.07	3081
846.206	3203
846.342	3310
846.478	3176
846.614	3074
846.75	3062
846.886	2994
847.022	3275
847.158	3142
847.294	3192
847.429	3226
847.565	3214
847.701	3504
847.837	2994
847.972	2967
848.108	3154
848.244	3108
848.379	2975
848.515	2941
848.65	2910
848.786	2941
848.921	3009
849.057	3100
849.192	3161
849.328	3032
849.463	3108
849.598	3036
849.734	3070
849.869	2975
850.004	2944
850.14	2971
850.275	2910
850.41	2826
850.545	2872
850.68	2941
850.815	2952
850.95	2967
851.085	3203
851.22	3070
851.355	3028
851.49	2990
851.625	2990
851.76	3005
851.895	2929
852.03	2906
852.165	3020
852.299	3074
852.434	3180
852.569	3142
852.703	3150
852.838	3241
852.973	3329
853.107	3302
853.242	3184
853.376	3081
853.511	2979
853.645	3028
853.78	3203
853.914	3123
854.048	3142
854.183	3074
854.317	3123
854.451	3291
854.585	3131
854.72	3097
854.854	3176
854.988	3036
855.122	3070
855.256	3005
855.39	3138
855.524	3211
855.658	3142
855.792	3135
855.926	3192
856.06	3199
856.194	3237
856.327	3123
856.461	3058
856.595	3066
856.729	3062
856.862	3241
856.996	3173
857.13	3161
857.263	3199
857.397	3249
857.53	3119
857.664	3188
857.797	3222
857.931	3272
858.064	3165
858.197	3173
858.331	3100
858.464	3062
858.597	3047
858.731	3112
858.864	3104
858.997	3070
859.13	3192
859.263	3188
859.396	3154
859.529	3074
859.662	3047
859.795	3055
859.928	3150
860.061	3279
860.194	3313
860.327	3123
860.46	3100
860.592	3173
860.725	3222
860.858	3253
860.99	3089
861.123	3043
861.256	3058
861.388	3157
861.521	3850
861.653	3009
861.786	2998
861.918	3009
862.05	3020
862.183	3089
862.315	3150
862.447	3165
862.58	3089
862.712	2948
862.844	2834
862.976	3005
863.108	2990
863.24	3321
863.372	2876
863.504	2971
863.636	2925
863.768	3028
863.9	2990
864.032	2872
864.164	2929
864.296	2998
864.428	3093
864.559	3066
864.691	3077
864.823	3062
864.954	3055
865.086	3047
865.217	2979
865.349	2948
865.48	2998
865.612	3001
865.743	3112
865.875	2979
866.006	2937
866.137	2982
866.269	2960
866.4	2910
866.531	2899
866.662	2895
866.793	2887
866.924	2895
867.055	2956
867.186	2910
867.317	2861
867.448	2811
867.579	2815
867.71	2819
867.841	2804
867.972	2891
868.103	2906
868.233	2906
868.364	2887
868.495	2872
868.625	3051
868.756	3142
868.886	2986
869.017	3020
869.147	3146
869.278	3169
869.408	3020
869.539	3055
869.669	3089
869.799	3043
869.929	3089
870.06	3058
870.19	3298
870.32	3253
870.45	3245
870.58	3332
870.71	3462
870.84	3412
870.97	3264
871.1	3237
871.23	3462
871.36	3409
871.489	3367
871.619	3409
871.749	3401
871.879	3439
872.008	3447
872.138	3382
872.267	3249
872.397	3165
872.526	3077
872.656	2948
872.785	3119
872.915	3272
873.044	3287
873.173	3173
873.303	3287
873.432	3222
873.561	3192
873.69	3138
873.819	3135
873.948	3180
874.077	3093
874.206	3020
874.335	3055
874.464	3176
874.593	3340
874.722	3195
874.851	3382
874.979	3332
875.108	3313
875.237	3207
875.365	3165
875.494	3184
875.623	3245
875.751	3085
875.88	3097
876.008	3157
876.136	3226
876.265	3302
876.393	3538
876.521	3382
876.65	3393
876.778	3310
876.906	3203
877.034	3184
877.162	3188
877.29	3131
877.418	3218
877.546	3241
877.674	3249
877.802	3211
877.93	3226
878.058	3104
878.185	3097
878.313	3169
878.441	3146
878.568	3093
878.696	3165
878.824	3264
878.951	3298
879.079	3428
879.206	3625
879.333	3447
879.461	3279
879.588	3370
879.715	3473
879.842	3576
879.97	3370
880.097	3138
880.224	3085
880.351	3184
880.478	3233
880.605	3222
880.732	3192
880.859	3473
880.986	3313
881.112	3332
881.239	3192
881.366	3112
881.493	2998
881.619	3024
881.746	3032
881.872	3127
881.999	3108
882.125	3138
882.252	3260
882.378	3275
882.505	3435
882.631	3245
882.757	3173
882.883	3218
883.01	3256
883.136	3173
883.262	3112
883.388	3142
883.514	3348
883.64	3363
883.766	3302
883.892	3157
884.018	3245
884.143	3416
884.269	3523
884.395	3241
884.52	3195
884.646	3184
884.772	3157
884.897	3138
885.023	3245
885.148	3397
885.274	3428
885.399	3386
885.524	3310
885.65	3317
885.775	3351
885.9	3306
886.025	3462
886.15	3420
886.275	3348
886.4	3241
886.525	3336
886.65	3317
886.775	3287
886.9	3538
887.025	3698
887.149	3443
887.274	3260
887.399	3203
887.523	3256
887.648	3230
887.773	3237
887.897	3401
888.021	3409
888.146	3310
888.27	3450
888.395	3538
888.519	3530
888.643	3473
888.767	3473
888.891	3336
889.015	3302
889.139	3386
889.263	3283
889.387	3447
889.511	3500
889.635	3507
889.759	3355
889.883	3306
890.006	3439
890.13	3511
890.254	3291
890.377	3367
890.501	3180
890.624	3176
890.748	3313
890.871	3222
890.995	3112
891.118	3116
891.241	3222
891.364	3294
891.488	3332
891.611	3222
891.734	3294
891.857	3321
891.98	3283
892.103	3363
892.226	3302
892.349	3241
892.471	3119
892.594	3298
892.717	3329
892.839	3321
892.962	3306
893.085	3382
893.207	3325
893.33	3135
893.452	3203
893.575	3332
893.697	3294
893.819	3507
893.941	3549
894.064	3462
894.186	3268
894.308	3287
894.43	3458
894.552	3580
894.674	3500
894.796	3306
894.918	3355
895.04	3359
895.161	3466
895.283	3454
895.405	3332
895.526	3378
895.648	3504
895.769	3454
895.891	3462
896.012	3557
896.134	3469
896.255	3458
896.376	3420
896.498	3401
896.619	3458
896.74	3393
896.861	3428
896.982	3701
897.103	3842
897.224	3625
897.345	3496
897.466	3439
897.587	3519
897.708	3675
897.828	3599
897.949	3450
898.07	3401
898.19	3443
898.311	3614
898.431	3485
898.552	3526
898.672	3606
898.792	3599
898.913	3580
899.033	3447
899.153	3336
899.273	3245
899.393	3287
899.513	3367
899.633	3332
899.753	3374
899.873	3321
899.993	3416
900.113	3340
900.232	3405
900.352	3367
900.472	3306
900.591	3241
900.711	3344
900.83	3264
900.95	3431
901.069	3496
901.189	3367
901.308	3195
901.427	3154
901.546	3222
901.665	3279
901.784	3348
901.904	3211
902.023	3214
902.141	3036
902.26	3005
902.379	3146
902.498	3081
902.617	3085
902.735	3237
902.854	3275
902.973	3222
903.091	3104
903.21	3081
903.328	3195
903.446	3161
903.565	3135
903.683	3245
903.801	3165
903.919	3264
904.038	3294
904.156	3188
904.274	3321
904.392	3291
904.51	3329
904.627	3367
904.745	3454
904.863	3507
904.981	3294
905.098	3192
905.216	3287
905.334	3298
905.451	3336
905.569	3397
905.686	3439
905.803	3473
905.921	3298
906.038	3492
906.155	3359
906.272	3302
906.389	3386
906.506	3279
906.623	3275
906.74	3283
906.857	3203
906.974	3272
907.091	3454
907.208	3584
907.324	3511
907.441	3428
907.557	3241
907.674	3249
907.79	3233
907.907	3329
908.023	3393
908.139	3401
908.256	3382
908.372	3401
908.488	3401
908.604	3317
908.72	3253
908.836	3279
908.952	3332
909.068	3344
909.184	3519
909.3	3405
909.415	3542
909.531	3492
909.647	3313
909.762	3382
909.878	3287
909.993	3382
910.108	3355
910.224	3344
910.339	3443
910.454	3370
910.57	3344
910.685	3272
910.8	3679
910.915	3568
911.03	3454
911.145	3313
911.259	3298
911.374	3359
911.489	3302
911.604	3275
911.718	3161
911.833	3176
911.947	3104
912.062	3017
912.176	3214
912.291	3226
912.405	3207
912.519	3424
912.633	3477
912.748	3344
912.862	3291
912.976	3207
913.09	3077
913.204	3192
913.318	3306
913.431	3359
913.545	3321
913.659	3439
913.772	3370
913.886	3260
914	3241
914.113	3401
914.226	3469
914.34	3348
914.453	3214
914.566	3431
914.68	3291
914.793	3336
914.906	3184
915.019	3123
915.132	3074
915.245	3207
915.358	3279
915.47	3230
915.583	3329
915.696	3325
915.809	3443
915.921	3447
916.034	3310
916.146	3291
916.259	3268
916.371	3443
916.483	3397
916.595	3253
916.708	3351
916.82	3363
916.932	3363
917.044	3363
917.156	3393
917.268	3272
917.38	3287
917.491	3310
917.603	3401
917.715	3477
917.826	3504
917.938	3378
918.049	3283
918.161	3450
918.272	3595
918.384	3618
918.495	3507
918.606	3336
918.717	3275
918.828	3393
918.939	3450
919.05	3321
919.161	3382
919.272	3237
919.383	3313
919.494	3511
919.604	3755
919.715	3523
919.826	3401
919.936	3466
920.047	3603
920.157	3526
920.267	3736
920.378	3625
920.488	3610
920.598	3789
920.708	3979
920.818	3857
920.928	3835
921.038	4006
921.148	4071
921.258	3686
921.368	3644
921.477	3580
921.587	3557
921.697	3492
921.806	3698
921.916	3610
922.025	3389
922.134	3378
922.244	3348
922.353	3412
922.462	3283
922.571	3249
922.68	3127
922.789	3104
922.898	3150
923.007	3131
923.116	3199
923.224	3199
923.333	3207
923.442	3127
923.55	3138
923.659	3184
923.767	3249
923.876	3097
923.984	3260
924.092	3116
924.201	3218
924.309	3237
924.417	3287
924.525	3253
924.633	3264
924.741	4055
924.849	3066
924.956	3268
925.064	3085
925.172	3066
925.279	3112
925.387	3241
925.494	3241
925.602	3382
925.709	3329
925.816	3230
925.924	3351
926.031	3431
926.138	3348
926.245	3332
926.352	3291
926.459	3397
926.566	3519
926.673	3325
926.779	3245
926.886	3302
926.993	3169
927.099	3127
927.206	3131
927.312	3100
927.419	3241
927.525	3214
927.631	3291
927.737	3154
927.843	3142
927.95	3089
928.056	3135
928.162	3207
928.267	3302
928.373	3789
928.479	3325
928.585	3043
928.69	3233
928.796	3302
928.901	3214
929.007	3051
929.112	3211
929.218	3214
929.323	3173
929.428	3184
929.533	3332
929.638	3112
929.743	3154
929.848	3245
929.953	3249
930.058	3135
930.163	2998
930.267	3051
930.372	3195
930.477	3070
930.581	3306
930.685	3173
930.79	3055
930.894	3157
930.998	3146
931.103	3329
931.207	3005
931.311	2914
931.415	2929
931.519	2792
931.623	2811
