Data from test_V78500241_1407.txt Node
Date: Fri Mar 25 16:24:57 CST 2022
User: usil
Spectrometer: V785-0024
Trigger mode: 0
Integration Time (sec): 4.000000E-1
Scans to average: 1
Nonlinearity correction enabled: false
Boxcar width: 0
Storing dark spectrum: false
XAxis mode: Wavelengths
Number of Pixels in Spectrum: 1024
>>>>>Begin Spectral Data<<<<<
801.071	2933
801.214	3032
801.356	2910
801.499	2925
801.641	2883
801.783	2967
801.926	3062
802.068	3009
802.211	3043
802.353	3085
802.496	3001
802.638	3043
802.78	3062
802.923	3081
803.065	3074
803.208	2952
803.35	2971
803.492	2979
803.635	2952
803.777	2800
803.919	2899
804.061	3241
804.204	2998
804.346	2975
804.488	2883
804.63	3017
804.773	2925
804.915	2948
805.057	3112
805.199	2944
805.341	3001
805.483	3058
805.626	3039
805.768	3005
805.91	3135
806.052	3173
806.194	3066
806.336	3241
806.478	3066
806.62	3013
806.762	3039
806.904	3100
807.046	3199
807.188	2979
807.33	2956
807.472	3036
807.614	2971
807.756	3001
807.898	2994
808.04	2902
808.182	2956
808.324	2967
808.465	2941
808.607	2922
808.749	2880
808.891	2891
809.033	3020
809.174	3005
809.316	2922
809.458	2944
809.6	2785
809.741	2815
809.883	2773
810.025	2895
810.166	2925
810.308	2826
810.45	2887
810.591	2838
810.733	2830
810.875	2838
811.016	2804
811.158	2788
811.299	2826
811.441	2933
811.582	2895
811.724	2868
811.865	2857
812.007	2933
812.148	2918
812.29	2864
812.431	2918
812.573	2960
812.714	2982
812.855	3043
812.997	3039
813.138	3112
813.279	3032
813.421	3009
813.562	2979
813.703	2880
813.845	2941
813.986	2811
814.127	2766
814.268	2838
814.41	2864
814.551	2830
814.692	2868
814.833	2845
814.974	2910
815.115	2963
815.256	2853
815.397	2811
815.539	2857
815.68	2815
815.821	2838
815.962	2956
816.103	2906
816.244	2925
816.385	2902
816.526	3001
816.666	2944
816.807	2766
816.948	2948
817.089	2899
817.23	2861
817.371	2830
817.512	2819
817.653	2868
817.793	2830
817.934	2914
818.075	2994
818.216	3020
818.356	3036
818.497	2922
818.638	2773
818.778	2880
818.919	2819
819.06	2785
819.2	2933
819.341	2845
819.481	2811
819.622	2925
819.762	3135
819.903	3062
820.043	2956
820.184	2925
820.324	2979
820.465	3066
820.605	3024
820.746	3047
820.886	2933
821.026	3116
821.167	3142
821.307	3291
821.447	3291
821.588	3264
821.728	3211
821.868	3184
822.008	3097
822.149	3237
822.289	3237
822.429	3100
822.569	3093
822.709	3176
822.849	3070
822.99	3081
823.13	3176
823.27	3211
823.41	3146
823.55	3165
823.69	3161
823.83	3188
823.97	3146
824.11	3001
824.25	3013
824.389	3070
824.529	3169
824.669	3062
824.809	3241
824.949	3268
825.089	3249
825.228	3176
825.368	3017
825.508	2979
825.648	2979
825.787	3032
825.927	3028
826.067	2967
826.206	2971
826.346	3070
826.485	3119
826.625	3104
826.765	3279
826.904	3253
827.044	3043
827.183	2967
827.323	2864
827.462	3024
827.601	2925
827.741	2975
827.88	2944
828.02	2845
828.159	2990
828.298	3039
828.437	3127
828.577	3070
828.716	3260
828.855	3097
828.994	2952
829.134	2914
829.273	2933
829.412	2914
829.551	2887
829.69	2864
829.829	3001
829.968	3157
830.107	3032
830.246	3055
830.385	2922
830.524	2899
830.663	2842
830.802	2731
830.941	2663
831.08	2667
831.219	2781
831.357	2781
831.496	2963
831.635	2754
831.774	2644
831.913	2667
832.051	2594
832.19	2590
832.329	2735
832.467	2541
832.606	2533
832.744	2606
832.883	2617
833.022	2613
833.16	2659
833.299	2701
833.437	2720
833.576	2720
833.714	2724
833.852	2773
833.991	2781
834.129	2826
834.267	2857
834.406	2834
834.544	2864
834.682	2906
834.821	2910
834.959	3085
835.097	2937
835.235	3089
835.373	2998
835.511	3032
835.65	2948
835.788	2990
835.926	2864
836.064	2849
836.202	2872
836.34	3108
836.478	3192
836.615	3024
836.753	3165
836.891	3233
837.029	3211
837.167	3135
837.305	3100
837.443	3066
837.58	2986
837.718	3138
837.856	3089
837.993	3043
838.131	3100
838.269	3142
838.406	3131
838.544	3104
838.681	2937
838.819	2914
838.956	2830
839.094	2826
839.231	2918
839.369	3001
839.506	3424
839.643	3192
839.781	3020
839.918	2990
840.055	3070
840.193	3085
840.33	3085
840.467	3100
840.604	3150
840.742	3428
840.879	3108
841.016	3108
841.153	3108
841.29	3344
841.427	3298
841.564	3321
841.701	3310
841.838	3256
841.975	3165
842.112	3195
842.249	3074
842.385	3062
842.522	3283
842.659	3119
842.796	3036
842.933	3097
843.069	3047
843.206	3070
843.343	3188
843.479	3093
843.616	3165
843.752	2914
843.889	2880
844.025	3085
844.162	2922
844.298	3074
844.435	2956
844.571	2979
844.708	3070
844.844	3199
844.98	3230
845.117	3188
845.253	3085
845.389	3020
845.525	3089
845.661	3085
845.798	3043
845.934	3150
846.07	3081
846.206	3226
846.342	3321
846.478	3245
846.614	3089
846.75	3039
846.886	3036
847.022	3222
847.158	3119
847.294	3241
847.429	3245
847.565	3203
847.701	3492
847.837	3032
847.972	3024
848.108	3154
848.244	3157
848.379	2979
848.515	2956
848.65	2948
848.786	2979
848.921	3009
849.057	3127
849.192	3127
849.328	3104
849.463	3123
849.598	3047
849.734	3097
849.869	3005
850.004	2956
850.14	2956
850.275	2906
850.41	2834
850.545	2880
850.68	2925
850.815	2990
850.95	3001
851.085	3199
851.22	3097
851.355	3020
851.49	3017
851.625	3017
851.76	3009
851.895	2937
852.03	2979
852.165	3032
852.299	3097
852.434	3199
852.569	3146
852.703	3169
852.838	3310
852.973	3367
853.107	3329
853.242	3150
853.376	3097
853.511	2998
853.645	3058
853.78	3256
853.914	3131
854.048	3138
854.183	3123
854.317	3176
854.451	3306
854.585	3142
854.72	3070
854.854	3195
854.988	3043
855.122	3085
855.256	2952
855.39	3123
855.524	3245
855.658	3207
855.792	3218
855.926	3188
856.06	3184
856.194	3253
856.327	3138
856.461	3066
856.595	3077
856.729	3127
856.862	3249
856.996	3169
857.13	3203
857.263	3272
857.397	3291
857.53	3116
857.664	3176
857.797	3283
857.931	3279
858.064	3131
858.197	3207
858.331	3154
858.464	3112
858.597	3001
858.731	3097
858.864	3135
858.997	3085
859.13	3154
859.263	3188
859.396	3218
859.529	3081
859.662	3089
859.795	3043
859.928	3207
860.061	3321
860.194	3332
860.327	3150
860.46	3135
860.592	3264
860.725	3298
860.858	3245
860.99	3135
861.123	3100
861.256	3104
861.388	3165
861.521	3690
861.653	3005
861.786	2971
861.918	2963
862.05	3097
862.183	3089
862.315	3150
862.447	3169
862.58	3085
862.712	2956
862.844	2891
862.976	3024
863.108	3036
863.24	3313
863.372	2864
863.504	2982
863.636	2967
863.768	3028
863.9	2982
864.032	2963
864.164	2941
864.296	3020
864.428	3089
864.559	3081
864.691	3043
864.823	3070
864.954	3032
865.086	3062
865.217	3005
865.349	2937
865.48	2982
865.612	2994
865.743	3146
865.875	2982
866.006	2982
866.137	2975
866.269	2948
866.4	2956
866.531	2952
866.662	2880
866.793	2887
866.924	2918
867.055	2948
867.186	2933
867.317	2876
867.448	2826
867.579	2842
867.71	2853
867.841	2811
867.972	2906
868.103	2895
868.233	2853
868.364	2895
868.495	2883
868.625	3066
868.756	3127
868.886	3001
869.017	3032
869.147	3161
869.278	3180
869.408	3032
869.539	3028
869.669	3127
869.799	3039
869.929	3138
870.06	3097
870.19	3317
870.32	3287
870.45	3302
870.58	3329
870.71	3504
870.84	3458
870.97	3310
871.1	3241
871.23	3454
871.36	3454
871.489	3370
871.619	3393
871.749	3416
871.879	3416
872.008	3481
872.138	3340
872.267	3294
872.397	3100
872.526	3097
872.656	3017
872.785	3085
872.915	3237
873.044	3313
873.173	3226
873.303	3211
873.432	3249
873.561	3237
873.69	3157
873.819	3131
873.948	3173
874.077	3127
874.206	3074
874.335	3081
874.464	3199
874.593	3306
874.722	3233
874.851	3431
874.979	3329
875.108	3317
875.237	3192
875.365	3169
875.494	3176
875.623	3222
875.751	3127
875.88	3127
876.008	3233
876.136	3287
876.265	3344
876.393	3496
876.521	3393
876.65	3393
876.778	3336
876.906	3241
877.034	3199
877.162	3272
877.29	3184
877.418	3256
877.546	3214
877.674	3283
877.802	3233
877.93	3222
878.058	3154
878.185	3058
878.313	3188
878.441	3226
878.568	3093
878.696	3142
878.824	3237
878.951	3321
879.079	3473
879.206	3622
879.333	3450
879.461	3313
879.588	3332
879.715	3496
879.842	3618
879.97	3428
880.097	3161
880.224	3104
880.351	3157
880.478	3203
880.605	3173
880.732	3211
880.859	3526
880.986	3272
881.112	3329
881.239	3214
881.366	3100
881.493	3028
881.619	3013
881.746	3081
881.872	3085
881.999	3127
882.125	3150
882.252	3245
882.378	3283
882.505	3420
882.631	3249
882.757	3154
882.883	3176
883.01	3237
883.136	3180
883.262	3108
883.388	3093
883.514	3325
883.64	3367
883.766	3317
883.892	3157
884.018	3222
884.143	3401
884.269	3530
884.395	3195
884.52	3192
884.646	3146
884.772	3119
884.897	3112
885.023	3218
885.148	3306
885.274	3435
885.399	3374
885.524	3241
885.65	3264
885.775	3294
885.9	3294
886.025	3435
886.15	3355
886.275	3306
886.4	3195
886.525	3298
886.65	3291
886.775	3245
886.9	3473
887.025	3633
887.149	3386
887.274	3249
887.399	3184
887.523	3192
887.648	3199
887.773	3184
887.897	3367
888.021	3420
888.146	3256
888.27	3393
888.395	3507
888.519	3504
888.643	3454
888.767	3454
888.891	3329
889.015	3264
889.139	3306
889.263	3203
889.387	3424
889.511	3462
889.635	3401
889.759	3260
889.883	3294
890.006	3359
890.13	3515
890.254	3253
890.377	3363
890.501	3188
890.624	3157
890.748	3302
890.871	3161
890.995	3093
891.118	3108
891.241	3184
891.364	3180
891.488	3302
891.611	3161
891.734	3226
891.857	3283
891.98	3211
892.103	3329
892.226	3306
892.349	3203
892.471	3093
892.594	3233
892.717	3321
892.839	3272
892.962	3264
893.085	3355
893.207	3275
893.33	3142
893.452	3233
893.575	3336
893.697	3218
893.819	3454
893.941	3523
894.064	3447
894.186	3272
894.308	3253
894.43	3447
894.552	3492
894.674	3481
894.796	3249
894.918	3310
895.04	3272
895.161	3431
895.283	3389
895.405	3287
895.526	3378
895.648	3458
895.769	3428
895.891	3443
896.012	3462
896.134	3454
896.255	3405
896.376	3393
896.498	3348
896.619	3420
896.74	3363
896.861	3420
896.982	3660
897.103	3804
897.224	3545
897.345	3526
897.466	3462
897.587	3477
897.708	3606
897.828	3523
897.949	3454
898.07	3367
898.19	3405
898.311	3610
898.431	3428
898.552	3515
898.672	3603
898.792	3576
898.913	3534
899.033	3409
899.153	3275
899.273	3222
899.393	3279
899.513	3287
899.633	3325
899.753	3355
899.873	3302
899.993	3386
900.113	3325
900.232	3397
900.352	3340
900.472	3313
900.591	3184
900.711	3306
900.83	3226
900.95	3401
901.069	3504
901.189	3355
901.308	3165
901.427	3123
901.546	3180
901.665	3264
901.784	3317
901.904	3203
902.023	3161
902.141	3020
902.26	2982
902.379	3146
902.498	3066
902.617	3055
902.735	3226
902.854	3233
902.973	3192
903.091	3043
903.21	3081
903.328	3150
903.446	3127
903.565	3112
903.683	3211
903.801	3154
903.919	3253
904.038	3317
904.156	3192
904.274	3310
904.392	3260
904.51	3283
904.627	3332
904.745	3477
904.863	3488
904.981	3249
905.098	3165
905.216	3260
905.334	3279
905.451	3310
905.569	3287
905.686	3389
905.803	3443
905.921	3275
906.038	3458
906.155	3378
906.272	3256
906.389	3382
906.506	3222
906.623	3279
906.74	3245
906.857	3203
906.974	3279
907.091	3443
907.208	3549
907.324	3485
907.441	3351
907.557	3233
907.674	3245
907.79	3237
907.907	3294
908.023	3374
908.139	3378
908.256	3294
908.372	3374
908.488	3363
908.604	3264
908.72	3245
908.836	3260
908.952	3294
909.068	3340
909.184	3458
909.3	3386
909.415	3496
909.531	3507
909.647	3241
909.762	3302
909.878	3241
909.993	3359
910.108	3336
910.224	3310
910.339	3416
910.454	3321
910.57	3260
910.685	3241
910.8	3568
910.915	3568
911.03	3443
911.145	3264
911.259	3256
911.374	3306
911.489	3230
911.604	3192
911.718	3138
911.833	3127
911.947	3017
912.062	3001
912.176	3180
912.291	3203
912.405	3192
912.519	3431
912.633	3416
912.748	3321
912.862	3298
912.976	3169
913.09	3047
913.204	3123
913.318	3192
913.431	3389
913.545	3340
913.659	3401
913.772	3283
913.886	3203
914	3184
914.113	3329
914.226	3374
914.34	3351
914.453	3203
914.566	3382
914.68	3283
914.793	3302
914.906	3154
915.019	3127
915.132	3043
915.245	3173
915.358	3173
915.47	3192
915.583	3253
915.696	3294
915.809	3382
915.921	3401
916.034	3249
916.146	3230
916.259	3233
916.371	3397
916.483	3348
916.595	3275
916.708	3306
916.82	3317
916.932	3359
917.044	3340
917.156	3329
917.268	3256
917.38	3291
917.491	3359
917.603	3374
917.715	3454
917.826	3409
917.938	3397
918.049	3294
918.161	3401
918.272	3549
918.384	3549
918.495	3488
918.606	3329
918.717	3264
918.828	3386
918.939	3386
919.05	3275
919.161	3382
919.272	3169
919.383	3279
919.494	3469
919.604	3633
919.715	3504
919.826	3374
919.936	3454
920.047	3587
920.157	3576
920.267	3762
920.378	3568
920.488	3568
920.598	3785
920.708	3975
920.818	3827
920.928	3781
921.038	4040
921.148	3960
921.258	3728
921.368	3663
921.477	3584
921.587	3561
921.697	3420
921.806	3648
921.916	3511
922.025	3329
922.134	3359
922.244	3321
922.353	3386
922.462	3275
922.571	3256
922.68	3100
922.789	3093
922.898	3154
923.007	3119
923.116	3188
923.224	3176
923.333	3161
923.442	3100
923.55	3093
923.659	3127
923.767	3222
923.876	3116
923.984	3226
924.092	3077
924.201	3211
924.309	3226
924.417	3237
924.525	3173
924.633	3241
924.741	4013
924.849	3074
924.956	3260
925.064	3055
925.172	3051
925.279	3093
925.387	3184
925.494	3165
925.602	3363
925.709	3317
925.816	3150
925.924	3306
926.031	3393
926.138	3298
926.245	3351
926.352	3241
926.459	3416
926.566	3439
926.673	3291
926.779	3241
926.886	3241
926.993	3146
927.099	3150
927.206	3081
927.312	3093
927.419	3233
927.525	3218
927.631	3245
927.737	3157
927.843	3116
927.95	3013
928.056	3138
928.162	3142
928.267	3279
928.373	3823
928.479	3283
928.585	3077
928.69	3173
928.796	3279
928.901	3157
929.007	3051
929.112	3154
929.218	3195
929.323	3138
929.428	3100
929.533	3294
929.638	3142
929.743	3207
929.848	3264
929.953	3199
930.058	3188
930.163	2994
930.267	3028
930.372	3180
930.477	3013
930.581	3310
930.685	3192
930.79	3036
930.894	3127
930.998	3112
931.103	3249
931.207	2925
931.311	2944
931.415	2891
931.519	2769
931.623	2781
