Data from test_V78500241_144.txt Node
Date: Fri Mar 25 16:16:12 CST 2022
User: usil
Spectrometer: V785-0024
Trigger mode: 0
Integration Time (sec): 4.000000E-1
Scans to average: 1
Nonlinearity correction enabled: false
Boxcar width: 0
Storing dark spectrum: false
XAxis mode: Wavelengths
Number of Pixels in Spectrum: 1024
>>>>>Begin Spectral Data<<<<<
801.071	2956
801.214	2960
801.356	2883
801.499	2902
801.641	2902
801.783	2956
801.926	3051
802.068	2963
802.211	3001
802.353	3058
802.496	2979
802.638	2998
802.78	3066
802.923	3055
803.065	3005
803.208	2895
803.35	2922
803.492	2910
803.635	2944
803.777	2781
803.919	2880
804.061	3192
804.204	2967
804.346	2887
804.488	2845
804.63	2986
804.773	2868
804.915	2914
805.057	3123
805.199	2910
805.341	2994
805.483	3051
805.626	2994
805.768	2994
805.91	3119
806.052	3138
806.194	3058
806.336	3230
806.478	2998
806.62	2971
806.762	2998
806.904	3085
807.046	3150
807.188	2994
807.33	2929
807.472	3028
807.614	2929
807.756	2994
807.898	2963
808.04	2902
808.182	2971
808.324	2952
808.465	2887
808.607	2864
808.749	2807
808.891	2838
809.033	2990
809.174	3005
809.316	2902
809.458	2902
809.6	2788
809.741	2777
809.883	2743
810.025	2838
810.166	2880
810.308	2849
810.45	2861
810.591	2762
810.733	2796
810.875	2815
811.016	2796
811.158	2788
811.299	2815
811.441	2944
811.582	2914
811.724	2826
811.865	2792
812.007	2914
812.148	2880
812.29	2918
812.431	2895
812.573	2941
812.714	3001
812.855	3070
812.997	3089
813.138	3131
813.279	3009
813.421	2994
813.562	2994
813.703	2925
813.845	2895
813.986	2792
814.127	2762
814.268	2826
814.41	2849
814.551	2838
814.692	2883
814.833	2845
814.974	2864
815.115	2929
815.256	2796
815.397	2823
815.539	2857
815.68	2773
815.821	2781
815.962	2956
816.103	2937
816.244	2906
816.385	2910
816.526	2975
816.666	2960
816.807	2758
816.948	2887
817.089	2948
817.23	2861
817.371	2762
817.512	2796
817.653	2838
817.793	2849
817.934	2891
818.075	2944
818.216	2990
818.356	3032
818.497	2876
818.638	2807
818.778	2826
818.919	2781
819.06	2800
819.2	2899
819.341	2819
819.481	2842
819.622	2922
819.762	3127
819.903	3051
820.043	2914
820.184	2918
820.324	2925
820.465	3047
820.605	3036
820.746	3036
820.886	2944
821.026	3127
821.167	3135
821.307	3241
821.447	3298
821.588	3226
821.728	3211
821.868	3199
822.008	3089
822.149	3199
822.289	3275
822.429	3100
822.569	3085
822.709	3214
822.849	3070
822.99	3085
823.13	3165
823.27	3214
823.41	3142
823.55	3176
823.69	3165
823.83	3226
823.97	3104
824.11	3009
824.25	2967
824.389	3062
824.529	3131
824.669	3093
824.809	3211
824.949	3294
825.089	3245
825.228	3119
825.368	3013
825.508	2918
825.648	2998
825.787	3093
825.927	2994
826.067	2971
826.206	2986
826.346	3017
826.485	3104
826.625	3108
826.765	3264
826.904	3237
827.044	2994
827.183	2956
827.323	2872
827.462	2986
827.601	2937
827.741	2925
827.88	2994
828.02	2876
828.159	3028
828.298	3039
828.437	3127
828.577	3066
828.716	3264
828.855	3100
828.994	2899
829.134	2902
829.273	2944
829.412	2853
829.551	2861
829.69	2910
829.829	3017
829.968	3138
830.107	3001
830.246	3028
830.385	2925
830.524	2883
830.663	2823
830.802	2754
830.941	2678
831.08	2636
831.219	2762
831.357	2811
831.496	3001
831.635	2712
831.774	2655
831.913	2670
832.051	2541
832.19	2636
832.329	2712
832.467	2533
832.606	2469
832.744	2571
832.883	2617
833.022	2587
833.16	2670
833.299	2693
833.437	2667
833.576	2716
833.714	2762
833.852	2727
833.991	2762
834.129	2857
834.267	2826
834.406	2807
834.544	2880
834.682	2872
834.821	2823
834.959	3028
835.097	2918
835.235	3066
835.373	2967
835.511	3055
835.65	3013
835.788	2975
835.926	2845
836.064	2788
836.202	2876
836.34	3093
836.478	3131
836.615	3077
836.753	3161
836.891	3203
837.029	3169
837.167	3108
837.305	3062
837.443	3055
837.58	2941
837.718	3123
837.856	3093
837.993	3047
838.131	3131
838.269	3119
838.406	3100
838.544	3093
838.681	2941
838.819	2906
838.956	2826
839.094	2830
839.231	2929
839.369	3055
839.506	3405
839.643	3203
839.781	3043
839.918	2975
840.055	3062
840.193	3066
840.33	3058
840.467	3100
840.604	3131
840.742	3443
840.879	3039
841.016	3058
841.153	3093
841.29	3329
841.427	3306
841.564	3260
841.701	3325
841.838	3203
841.975	3184
842.112	3195
842.249	3100
842.385	3047
842.522	3226
842.659	3085
842.796	3074
842.933	3108
843.069	3055
843.206	3058
843.343	3214
843.479	3100
843.616	3165
843.752	2914
843.889	2887
844.025	3116
844.162	2910
844.298	3104
844.435	2914
844.571	2948
844.708	3077
844.844	3180
844.98	3230
845.117	3203
845.253	3043
845.389	3024
845.525	3100
845.661	3070
845.798	2982
845.934	3108
846.07	3070
846.206	3207
846.342	3321
846.478	3245
846.614	3055
846.75	3047
846.886	3039
847.022	3256
847.158	3138
847.294	3165
847.429	3245
847.565	3211
847.701	3507
847.837	3039
847.972	3005
848.108	3161
848.244	3157
848.379	2990
848.515	2944
848.65	2944
848.786	2971
848.921	3001
849.057	3104
849.192	3142
849.328	3062
849.463	3146
849.598	3074
849.734	3020
849.869	2960
850.004	2910
850.14	2967
850.275	2922
850.41	2861
850.545	2883
850.68	2929
850.815	2971
850.95	2986
851.085	3180
851.22	3138
851.355	3055
851.49	3024
851.625	3024
851.76	3043
851.895	2948
852.03	2925
852.165	3039
852.299	3127
852.434	3176
852.569	3157
852.703	3203
852.838	3283
852.973	3370
853.107	3336
853.242	3161
853.376	3150
853.511	2986
853.645	3089
853.78	3249
853.914	3146
854.048	3154
854.183	3112
854.317	3157
854.451	3378
854.585	3150
854.72	3123
854.854	3237
854.988	3097
855.122	3112
855.256	2982
855.39	3150
855.524	3306
855.658	3192
855.792	3188
855.926	3230
856.06	3241
856.194	3321
856.327	3192
856.461	3146
856.595	3116
856.729	3154
856.862	3260
856.996	3211
857.13	3272
857.263	3237
857.397	3374
857.53	3146
857.664	3241
857.797	3279
857.931	3313
858.064	3211
858.197	3264
858.331	3207
858.464	3154
858.597	3055
858.731	3199
858.864	3192
858.997	3142
859.13	3226
859.263	3218
859.396	3256
859.529	3123
859.662	3112
859.795	3074
859.928	3157
860.061	3317
860.194	3355
860.327	3192
860.46	3135
860.592	3317
860.725	3302
860.858	3294
860.99	3138
861.123	3104
861.256	3112
861.388	3154
861.521	3732
861.653	3081
861.786	3005
861.918	3051
862.05	3127
862.183	3116
862.315	3237
862.447	3264
862.58	3165
862.712	2994
862.844	2922
862.976	3062
863.108	3058
863.24	3466
863.372	2895
863.504	3051
863.636	2979
863.768	3085
863.9	3001
864.032	2982
864.164	3024
864.296	3043
864.428	3123
864.559	3119
864.691	3131
864.823	3127
864.954	3108
865.086	3108
865.217	3051
865.349	3024
865.48	3024
865.612	3093
865.743	3199
865.875	3055
866.006	3020
866.137	3032
866.269	2979
866.4	2998
866.531	2963
866.662	2944
866.793	2948
866.924	2922
867.055	3005
867.186	2986
867.317	2937
867.448	2880
867.579	2861
867.71	2918
867.841	2872
867.972	2906
868.103	2937
868.233	2937
868.364	2941
868.495	2982
868.625	3146
868.756	3184
868.886	3036
869.017	3077
869.147	3199
869.278	3218
869.408	3089
869.539	3066
869.669	3173
869.799	3097
869.929	3192
870.06	3146
870.19	3370
870.32	3325
870.45	3336
870.58	3420
870.71	3488
870.84	3530
870.97	3355
871.1	3302
871.23	3549
871.36	3492
871.489	3397
871.619	3431
871.749	3469
871.879	3454
872.008	3523
872.138	3405
872.267	3313
872.397	3222
872.526	3173
872.656	3055
872.785	3138
872.915	3306
873.044	3351
873.173	3272
873.303	3298
873.432	3275
873.561	3268
873.69	3207
873.819	3169
873.948	3260
874.077	3180
874.206	3112
874.335	3123
874.464	3249
874.593	3401
874.722	3260
874.851	3431
874.979	3351
875.108	3359
875.237	3245
875.365	3203
875.494	3226
875.623	3283
875.751	3184
875.88	3180
876.008	3253
876.136	3294
876.265	3428
876.393	3526
876.521	3481
876.65	3424
876.778	3401
876.906	3245
877.034	3253
877.162	3283
877.29	3249
877.418	3264
877.546	3249
877.674	3332
877.802	3260
877.93	3279
878.058	3192
878.185	3157
878.313	3275
878.441	3279
878.568	3112
878.696	3180
878.824	3272
878.951	3355
879.079	3500
879.206	3667
879.333	3515
879.461	3405
879.588	3443
879.715	3564
879.842	3686
879.97	3428
880.097	3218
880.224	3211
880.351	3245
880.478	3317
880.605	3245
880.732	3249
880.859	3488
880.986	3359
881.112	3393
881.239	3268
881.366	3188
881.493	3070
881.619	3100
881.746	3119
881.872	3131
881.999	3146
882.125	3169
882.252	3306
882.378	3321
882.505	3473
882.631	3272
882.757	3241
882.883	3256
883.01	3222
883.136	3207
883.262	3169
883.388	3165
883.514	3363
883.64	3462
883.766	3363
883.892	3211
884.018	3313
884.143	3504
884.269	3618
884.395	3264
884.52	3211
884.646	3211
884.772	3176
884.897	3165
885.023	3241
885.148	3401
885.274	3454
885.399	3473
885.524	3321
885.65	3321
885.775	3416
885.9	3294
886.025	3466
886.15	3393
886.275	3325
886.4	3294
886.525	3348
886.65	3321
886.775	3283
886.9	3538
887.025	3690
887.149	3439
887.274	3291
887.399	3203
887.523	3241
887.648	3241
887.773	3245
887.897	3416
888.021	3462
888.146	3340
888.27	3492
888.395	3618
888.519	3477
888.643	3504
888.767	3507
888.891	3325
889.015	3260
889.139	3336
889.263	3294
889.387	3450
889.511	3530
889.635	3496
889.759	3321
889.883	3336
890.006	3378
890.13	3526
890.254	3344
890.377	3424
890.501	3207
890.624	3260
890.748	3382
890.871	3230
890.995	3119
891.118	3127
891.241	3256
891.364	3272
891.488	3370
891.611	3230
891.734	3260
891.857	3329
891.98	3310
892.103	3393
892.226	3332
892.349	3268
892.471	3169
892.594	3317
892.717	3336
892.839	3306
892.962	3317
893.085	3405
893.207	3310
893.33	3256
893.452	3275
893.575	3405
893.697	3264
893.819	3530
893.941	3553
894.064	3462
894.186	3321
894.308	3321
894.43	3473
894.552	3606
894.674	3545
894.796	3317
894.918	3329
895.04	3359
895.161	3469
895.283	3420
895.405	3370
895.526	3431
895.648	3473
895.769	3462
895.891	3488
896.012	3523
896.134	3507
896.255	3454
896.376	3450
896.498	3378
896.619	3454
896.74	3439
896.861	3439
896.982	3709
897.103	3865
897.224	3637
897.345	3576
897.466	3462
897.587	3618
897.708	3652
897.828	3553
897.949	3485
898.07	3382
898.19	3435
898.311	3641
898.431	3515
898.552	3587
898.672	3637
898.792	3667
898.913	3557
899.033	3401
899.153	3367
899.273	3264
899.393	3321
899.513	3325
899.633	3351
899.753	3393
899.873	3329
899.993	3431
900.113	3389
900.232	3439
900.352	3374
900.472	3325
900.591	3253
900.711	3344
900.83	3283
900.95	3428
901.069	3507
901.189	3405
901.308	3203
901.427	3169
901.546	3245
901.665	3332
901.784	3397
901.904	3260
902.023	3207
902.141	3074
902.26	3020
902.379	3188
902.498	3142
902.617	3097
902.735	3260
902.854	3291
902.973	3237
903.091	3116
903.21	3165
903.328	3161
903.446	3127
903.565	3116
903.683	3233
903.801	3173
903.919	3317
904.038	3336
904.156	3241
904.274	3344
904.392	3268
904.51	3344
904.627	3367
904.745	3473
904.863	3545
904.981	3275
905.098	3195
905.216	3272
905.334	3325
905.451	3336
905.569	3329
905.686	3488
905.803	3507
905.921	3325
906.038	3466
906.155	3378
906.272	3329
906.389	3382
906.506	3272
906.623	3272
906.74	3283
906.857	3275
906.974	3329
907.091	3450
907.208	3599
907.324	3538
907.441	3473
907.557	3306
907.674	3310
907.79	3237
907.907	3332
908.023	3466
908.139	3382
908.256	3378
908.372	3382
908.488	3351
908.604	3310
908.72	3249
908.836	3348
908.952	3298
909.068	3363
909.184	3485
909.3	3439
909.415	3549
909.531	3507
909.647	3340
909.762	3332
909.878	3291
909.993	3378
910.108	3393
910.224	3405
910.339	3431
910.454	3389
910.57	3344
910.685	3283
910.8	3606
910.915	3591
911.03	3492
911.145	3321
911.259	3332
911.374	3336
911.489	3310
911.604	3260
911.718	3142
911.833	3169
911.947	3100
912.062	3020
912.176	3157
912.291	3211
912.405	3230
912.519	3454
912.633	3492
912.748	3393
912.862	3313
912.976	3207
913.09	3089
913.204	3199
913.318	3237
913.431	3351
913.545	3370
913.659	3473
913.772	3344
913.886	3256
914	3230
914.113	3420
914.226	3428
914.34	3393
914.453	3275
914.566	3412
914.68	3298
914.793	3367
914.906	3195
915.019	3112
915.132	3077
915.245	3180
915.358	3214
915.47	3230
915.583	3291
915.696	3332
915.809	3424
915.921	3462
916.034	3302
916.146	3268
916.259	3230
916.371	3450
916.483	3439
916.595	3348
916.708	3370
916.82	3348
916.932	3367
917.044	3359
917.156	3363
917.268	3291
917.38	3321
917.491	3348
917.603	3409
917.715	3473
917.826	3485
917.938	3412
918.049	3313
918.161	3462
918.272	3580
918.384	3591
918.495	3481
918.606	3340
918.717	3298
918.828	3393
918.939	3405
919.05	3389
919.161	3397
919.272	3180
919.383	3310
919.494	3553
919.604	3720
919.715	3553
919.826	3428
919.936	3481
920.047	3660
920.157	3599
920.267	3827
920.378	3663
920.488	3595
920.598	3831
920.708	4002
920.818	3865
920.928	3876
921.038	4017
921.148	4010
921.258	3740
921.368	3686
921.477	3633
921.587	3599
921.697	3477
921.806	3675
921.916	3603
922.025	3401
922.134	3355
922.244	3389
922.353	3496
922.462	3363
922.571	3302
922.68	3188
922.789	3093
922.898	3203
923.007	3173
923.116	3241
923.224	3264
923.333	3249
923.442	3180
923.55	3173
923.659	3211
923.767	3298
923.876	3184
923.984	3321
924.092	3127
924.201	3249
924.309	3298
924.417	3355
924.525	3264
924.633	3317
924.741	4242
924.849	3138
924.956	3374
925.064	3165
925.172	3131
925.279	3180
925.387	3260
925.494	3245
925.602	3412
925.709	3386
925.816	3268
925.924	3321
926.031	3454
926.138	3409
926.245	3462
926.352	3332
926.459	3496
926.566	3564
926.673	3367
926.779	3325
926.886	3264
926.993	3211
927.099	3188
927.206	3180
927.312	3207
927.419	3275
927.525	3207
927.631	3313
927.737	3211
927.843	3154
927.95	3077
928.056	3192
928.162	3249
928.267	3340
928.373	3937
928.479	3374
928.585	3138
928.69	3264
928.796	3348
928.901	3230
929.007	3127
929.112	3241
929.218	3294
929.323	3173
929.428	3184
929.533	3367
929.638	3161
929.743	3249
929.848	3336
929.953	3291
930.058	3195
930.163	3077
930.267	3123
930.372	3249
930.477	3119
930.581	3367
930.685	3176
930.79	3123
930.894	3161
930.998	3165
931.103	3332
931.207	3017
931.311	3005
931.415	2963
931.519	2845
931.623	2834
