Data from test_V78500241_204.txt Node
Date: Fri Mar 25 16:16:37 CST 2022
User: usil
Spectrometer: V785-0024
Trigger mode: 0
Integration Time (sec): 4.000000E-1
Scans to average: 1
Nonlinearity correction enabled: false
Boxcar width: 0
Storing dark spectrum: false
XAxis mode: Wavelengths
Number of Pixels in Spectrum: 1024
>>>>>Begin Spectral Data<<<<<
801.071	2902
801.214	2941
801.356	2887
801.499	2910
801.641	2906
801.783	2979
801.926	3066
802.068	2982
802.211	3017
802.353	3043
802.496	2975
802.638	3047
802.78	3058
802.923	3100
803.065	2975
803.208	2944
803.35	2948
803.492	2967
803.635	2925
803.777	2766
803.919	2842
804.061	3226
804.204	2982
804.346	2906
804.488	2853
804.63	2982
804.773	2899
804.915	2925
805.057	3100
805.199	2948
805.341	2990
805.483	3028
805.626	3005
805.768	2967
805.91	3104
806.052	3127
806.194	3058
806.336	3237
806.478	3062
806.62	2998
806.762	2967
806.904	3051
807.046	3173
807.188	2982
807.33	2902
807.472	3017
807.614	2902
807.756	3001
807.898	2937
808.04	2880
808.182	2963
808.324	2960
808.465	2895
808.607	2891
808.749	2800
808.891	2853
809.033	2990
809.174	2986
809.316	2925
809.458	2918
809.6	2758
809.741	2781
809.883	2769
810.025	2861
810.166	2842
810.308	2864
810.45	2857
810.591	2800
810.733	2800
810.875	2845
811.016	2811
811.158	2781
811.299	2845
811.441	2929
811.582	2895
811.724	2815
811.865	2849
812.007	2929
812.148	2883
812.29	2849
812.431	2925
812.573	2937
812.714	2971
812.855	3036
812.997	3081
813.138	3085
813.279	3032
813.421	2990
813.562	2967
813.703	2922
813.845	2887
813.986	2777
814.127	2754
814.268	2830
814.41	2830
814.551	2807
814.692	2895
814.833	2815
814.974	2899
815.115	2941
815.256	2819
815.397	2823
815.539	2845
815.68	2777
815.821	2800
815.962	2963
816.103	2925
816.244	2902
816.385	2895
816.526	2952
816.666	2922
816.807	2758
816.948	2857
817.089	2929
817.23	2857
817.371	2819
817.512	2796
817.653	2868
817.793	2849
817.934	2887
818.075	2963
818.216	2990
818.356	3024
818.497	2891
818.638	2845
818.778	2845
818.919	2826
819.06	2750
819.2	2872
819.341	2823
819.481	2815
819.622	2933
819.762	3112
819.903	3062
820.043	2933
820.184	2910
820.324	2895
820.465	3039
820.605	3062
820.746	3047
820.886	2944
821.026	3127
821.167	3214
821.307	3256
821.447	3268
821.588	3237
821.728	3157
821.868	3218
822.008	3058
822.149	3207
822.289	3203
822.429	3100
822.569	3100
822.709	3199
822.849	3028
822.99	3047
823.13	3161
823.27	3195
823.41	3142
823.55	3154
823.69	3142
823.83	3199
823.97	3093
824.11	3017
824.25	2979
824.389	3074
824.529	3131
824.669	3070
824.809	3203
824.949	3268
825.089	3222
825.228	3157
825.368	2994
825.508	2941
825.648	2979
825.787	3017
825.927	2998
826.067	3001
826.206	2971
826.346	3024
826.485	3077
826.625	3119
826.765	3237
826.904	3268
827.044	3039
827.183	2960
827.323	2857
827.462	3013
827.601	2941
827.741	2902
827.88	2937
828.02	2868
828.159	2963
828.298	3047
828.437	3142
828.577	3039
828.716	3256
828.855	3085
828.994	2941
829.134	2902
829.273	2937
829.412	2895
829.551	2872
829.69	2952
829.829	3013
829.968	3157
830.107	3024
830.246	3032
830.385	2925
830.524	2910
830.663	2819
830.802	2769
830.941	2659
831.08	2693
831.219	2777
831.357	2769
831.496	2971
831.635	2720
831.774	2670
831.913	2655
832.051	2484
832.19	2590
832.329	2716
832.467	2537
832.606	2484
832.744	2598
832.883	2598
833.022	2621
833.16	2697
833.299	2670
833.437	2678
833.576	2693
833.714	2750
833.852	2754
833.991	2766
834.129	2819
834.267	2872
834.406	2815
834.544	2891
834.682	2895
834.821	2861
834.959	3085
835.097	2910
835.235	3070
835.373	3013
835.511	3017
835.65	2952
835.788	3009
835.926	2838
836.064	2807
836.202	2864
836.34	3104
836.478	3180
836.615	3074
836.753	3112
836.891	3192
837.029	3165
837.167	3097
837.305	3062
837.443	3058
837.58	2922
837.718	3161
837.856	3058
837.993	3013
838.131	3104
838.269	3108
838.406	3093
838.544	3085
838.681	2971
838.819	2937
838.956	2815
839.094	2826
839.231	2895
839.369	3024
839.506	3344
839.643	3199
839.781	2990
839.918	2982
840.055	3028
840.193	3039
840.33	3074
840.467	3119
840.604	3127
840.742	3405
840.879	3058
841.016	3081
841.153	3146
841.29	3367
841.427	3313
841.564	3272
841.701	3321
841.838	3256
841.975	3180
842.112	3218
842.249	3116
842.385	3047
842.522	3241
842.659	3112
842.796	3081
842.933	3116
843.069	3051
843.206	3058
843.343	3173
843.479	3173
843.616	3154
843.752	2906
843.889	2876
844.025	3123
844.162	2891
844.298	3097
844.435	2937
844.571	2922
844.708	3104
844.844	3180
844.98	3249
845.117	3226
845.253	3024
845.389	3009
845.525	3108
845.661	3123
845.798	3001
845.934	3142
846.07	3039
846.206	3207
846.342	3325
846.478	3222
846.614	3074
846.75	3070
846.886	3043
847.022	3264
847.158	3154
847.294	3188
847.429	3253
847.565	3226
847.701	3500
847.837	3051
847.972	2990
848.108	3195
848.244	3161
848.379	3001
848.515	2941
848.65	2948
848.786	2952
848.921	2990
849.057	3104
849.192	3154
849.328	3077
849.463	3104
849.598	3066
849.734	3051
849.869	2963
850.004	2925
850.14	2990
850.275	2948
850.41	2838
850.545	2861
850.68	2937
850.815	2967
850.95	2979
851.085	3237
851.22	3081
851.355	3036
851.49	2998
851.625	3036
851.76	2998
851.895	2948
852.03	2906
852.165	3036
852.299	3066
852.434	3218
852.569	3131
852.703	3169
852.838	3264
852.973	3378
853.107	3344
853.242	3161
853.376	3100
853.511	3009
853.645	3020
853.78	3275
853.914	3176
854.048	3131
854.183	3097
854.317	3135
854.451	3325
854.585	3116
854.72	3123
854.854	3226
854.988	3055
855.122	3108
855.256	2986
855.39	3150
855.524	3211
855.658	3188
855.792	3157
855.926	3211
856.06	3192
856.194	3279
856.327	3176
856.461	3081
856.595	3097
856.729	3100
856.862	3222
856.996	3173
857.13	3199
857.263	3249
857.397	3275
857.53	3146
857.664	3211
857.797	3199
857.931	3279
858.064	3203
858.197	3233
858.331	3123
858.464	3135
858.597	3081
858.731	3131
858.864	3135
858.997	3127
859.13	3180
859.263	3161
859.396	3199
859.529	3074
859.662	3097
859.795	3077
859.928	3135
860.061	3317
860.194	3279
860.327	3146
860.46	3112
860.592	3233
860.725	3214
860.858	3268
860.99	3142
861.123	3032
861.256	3043
861.388	3127
861.521	3888
861.653	3013
861.786	2975
861.918	3005
862.05	3070
862.183	3119
862.315	3157
862.447	3207
862.58	3074
862.712	2975
862.844	2906
862.976	3070
863.108	3024
863.24	3313
863.372	2895
863.504	2952
863.636	2933
863.768	3047
863.9	2975
864.032	2925
864.164	3001
864.296	3066
864.428	3062
864.559	3112
864.691	3062
864.823	3066
864.954	3066
865.086	3039
865.217	2994
865.349	2998
865.48	2986
865.612	3028
865.743	3154
865.875	2975
866.006	2975
866.137	2967
866.269	2979
866.4	2937
866.531	2899
866.662	2899
866.793	2891
866.924	2933
867.055	2967
867.186	2960
867.317	2887
867.448	2857
867.579	2864
867.71	2807
867.841	2815
867.972	2895
868.103	2914
868.233	2883
868.364	2883
868.495	2887
868.625	3089
868.756	3154
868.886	3024
869.017	3032
869.147	3173
869.278	3195
869.408	3039
869.539	3013
869.669	3085
869.799	3051
869.929	3135
870.06	3119
870.19	3298
870.32	3268
870.45	3302
870.58	3409
870.71	3443
870.84	3496
870.97	3279
871.1	3253
871.23	3492
871.36	3458
871.489	3351
871.619	3439
871.749	3439
871.879	3458
872.008	3466
872.138	3405
872.267	3302
872.397	3154
872.526	3108
872.656	2971
872.785	3127
872.915	3294
873.044	3355
873.173	3230
873.303	3275
873.432	3283
873.561	3222
873.69	3135
873.819	3157
873.948	3214
874.077	3093
874.206	3058
874.335	3070
874.464	3192
874.593	3325
874.722	3283
874.851	3386
874.979	3363
875.108	3313
875.237	3211
875.365	3165
875.494	3157
875.623	3253
875.751	3077
875.88	3135
876.008	3184
876.136	3214
876.265	3367
876.393	3538
876.521	3420
876.65	3386
876.778	3340
876.906	3256
877.034	3218
877.162	3222
877.29	3214
877.418	3237
877.546	3253
877.674	3237
877.802	3245
877.93	3184
878.058	3176
878.185	3104
878.313	3192
878.441	3192
878.568	3089
878.696	3173
878.824	3310
878.951	3279
879.079	3439
879.206	3644
879.333	3416
879.461	3294
879.588	3416
879.715	3469
879.842	3557
879.97	3359
880.097	3176
880.224	3165
880.351	3195
880.478	3245
880.605	3195
880.732	3192
880.859	3488
880.986	3317
881.112	3325
881.239	3245
881.366	3112
881.493	3047
881.619	3077
881.746	3081
881.872	3142
881.999	3112
882.125	3169
882.252	3245
882.378	3306
882.505	3469
882.631	3291
882.757	3169
882.883	3226
883.01	3237
883.136	3176
883.262	3104
883.388	3131
883.514	3317
883.64	3367
883.766	3325
883.892	3226
884.018	3264
884.143	3405
884.269	3545
884.395	3226
884.52	3154
884.646	3203
884.772	3112
884.897	3074
885.023	3207
885.148	3344
885.274	3424
885.399	3397
885.524	3275
885.65	3264
885.775	3382
885.9	3272
886.025	3473
886.15	3416
886.275	3245
886.4	3237
886.525	3294
886.65	3279
886.775	3291
886.9	3511
887.025	3633
887.149	3435
887.274	3226
887.399	3176
887.523	3222
887.648	3176
887.773	3226
887.897	3393
888.021	3447
888.146	3298
888.27	3412
888.395	3542
888.519	3443
888.643	3447
888.767	3473
888.891	3321
889.015	3264
889.139	3279
889.263	3268
889.387	3405
889.511	3523
889.635	3462
889.759	3294
889.883	3325
890.006	3378
890.13	3496
890.254	3230
890.377	3340
890.501	3184
890.624	3233
890.748	3317
890.871	3161
890.995	3112
891.118	3047
891.241	3195
891.364	3237
891.488	3348
891.611	3169
891.734	3214
891.857	3279
891.98	3272
892.103	3367
892.226	3272
892.349	3222
892.471	3081
892.594	3260
892.717	3291
892.839	3279
892.962	3294
893.085	3344
893.207	3287
893.33	3176
893.452	3241
893.575	3389
893.697	3226
893.819	3435
893.941	3507
894.064	3500
894.186	3268
894.308	3287
894.43	3435
894.552	3534
894.674	3469
894.796	3294
894.918	3329
895.04	3283
895.161	3428
895.283	3370
895.405	3348
895.526	3374
895.648	3431
895.769	3424
895.891	3473
896.012	3462
896.134	3428
896.255	3462
896.376	3424
896.498	3340
896.619	3466
896.74	3355
896.861	3447
896.982	3675
897.103	3876
897.224	3584
897.345	3519
897.466	3450
897.587	3488
897.708	3606
897.828	3507
897.949	3473
898.07	3374
898.19	3405
898.311	3603
898.431	3447
898.552	3515
898.672	3599
898.792	3553
898.913	3526
899.033	3439
899.153	3310
899.273	3218
899.393	3306
899.513	3325
899.633	3313
899.753	3344
899.873	3313
899.993	3409
900.113	3325
900.232	3389
900.352	3332
900.472	3310
900.591	3222
900.711	3294
900.83	3279
900.95	3405
901.069	3492
901.189	3359
901.308	3180
901.427	3176
901.546	3184
901.665	3298
901.784	3355
901.904	3211
902.023	3161
902.141	3043
902.26	2975
902.379	3123
902.498	3081
902.617	3039
902.735	3226
902.854	3222
902.973	3230
903.091	3051
903.21	3066
903.328	3154
903.446	3074
903.565	3108
903.683	3195
903.801	3135
903.919	3272
904.038	3264
904.156	3173
904.274	3317
904.392	3302
904.51	3249
904.627	3302
904.745	3447
904.863	3500
904.981	3283
905.098	3161
905.216	3226
905.334	3283
905.451	3325
905.569	3370
905.686	3416
905.803	3450
905.921	3317
906.038	3515
906.155	3329
906.272	3256
906.389	3401
906.506	3237
906.623	3211
906.74	3260
906.857	3188
906.974	3272
907.091	3428
907.208	3591
907.324	3473
907.441	3336
907.557	3253
907.674	3230
907.79	3211
907.907	3298
908.023	3397
908.139	3424
908.256	3344
908.372	3389
908.488	3382
908.604	3321
908.72	3241
908.836	3340
908.952	3264
909.068	3367
909.184	3496
909.3	3378
909.415	3538
909.531	3485
909.647	3249
909.762	3256
909.878	3256
909.993	3378
910.108	3363
910.224	3332
910.339	3431
910.454	3313
910.57	3344
910.685	3222
910.8	3618
910.915	3526
911.03	3393
911.145	3256
911.259	3317
911.374	3325
911.489	3260
911.604	3294
911.718	3108
911.833	3119
911.947	3032
912.062	2990
912.176	3188
912.291	3195
912.405	3218
912.519	3428
912.633	3439
912.748	3336
912.862	3313
912.976	3188
913.09	3074
913.204	3154
913.318	3207
913.431	3317
913.545	3355
913.659	3439
913.772	3363
913.886	3237
914	3214
914.113	3329
914.226	3428
914.34	3367
914.453	3214
914.566	3443
914.68	3279
914.793	3294
914.906	3138
915.019	3108
915.132	3089
915.245	3161
915.358	3230
915.47	3237
915.583	3260
915.696	3317
915.809	3412
915.921	3420
916.034	3272
916.146	3245
916.259	3173
916.371	3409
916.483	3428
916.595	3260
916.708	3336
916.82	3359
916.932	3370
917.044	3344
917.156	3340
917.268	3256
917.38	3313
917.491	3329
917.603	3340
917.715	3466
917.826	3488
917.938	3382
918.049	3291
918.161	3431
918.272	3591
918.384	3568
918.495	3477
918.606	3340
918.717	3302
918.828	3363
918.939	3447
919.05	3321
919.161	3374
919.272	3184
919.383	3253
919.494	3481
919.604	3705
919.715	3477
919.826	3424
919.936	3447
920.047	3572
920.157	3538
920.267	3793
920.378	3599
920.488	3561
920.598	3819
920.708	3953
920.818	3869
920.928	3816
921.038	4048
921.148	3979
921.258	3717
921.368	3633
921.477	3584
921.587	3542
921.697	3492
921.806	3660
921.916	3492
922.025	3355
922.134	3351
922.244	3313
922.353	3439
922.462	3287
922.571	3245
922.68	3108
922.789	3062
922.898	3184
923.007	3138
923.116	3226
923.224	3173
923.333	3222
923.442	3146
923.55	3062
923.659	3131
923.767	3233
923.876	3157
923.984	3264
924.092	3100
924.201	3203
924.309	3192
924.417	3298
924.525	3199
924.633	3268
924.741	4242
924.849	3058
924.956	3268
925.064	3097
925.172	3066
925.279	3116
925.387	3226
925.494	3184
925.602	3382
925.709	3348
925.816	3173
925.924	3298
926.031	3374
926.138	3321
926.245	3351
926.352	3279
926.459	3405
926.566	3526
926.673	3363
926.779	3237
926.886	3241
926.993	3138
927.099	3131
927.206	3169
927.312	3135
927.419	3241
927.525	3211
927.631	3253
927.737	3135
927.843	3100
927.95	3013
928.056	3135
928.162	3214
928.267	3260
928.373	3888
928.479	3306
928.585	3043
928.69	3165
928.796	3260
928.901	3192
929.007	3055
929.112	3222
929.218	3195
929.323	3138
929.428	3138
929.533	3298
929.638	3093
929.743	3203
929.848	3230
929.953	3192
930.058	3146
930.163	3001
930.267	3070
930.372	3188
930.477	3043
930.581	3298
930.685	3169
930.79	3043
930.894	3142
930.998	3123
931.103	3340
931.207	2941
931.311	2925
931.415	2933
931.519	2735
931.623	2766
