Data from test_V78500241_1932.txt Node
Date: Fri Mar 25 16:28:35 CST 2022
User: usil
Spectrometer: V785-0024
Trigger mode: 0
Integration Time (sec): 4.000000E-1
Scans to average: 1
Nonlinearity correction enabled: false
Boxcar width: 0
Storing dark spectrum: false
XAxis mode: Wavelengths
Number of Pixels in Spectrum: 1024
>>>>>Begin Spectral Data<<<<<
801.071	2937
801.214	2941
801.356	2918
801.499	2914
801.641	2929
801.783	2925
801.926	3032
802.068	2990
802.211	3058
802.353	3036
802.496	3020
802.638	3039
802.78	3028
802.923	3077
803.065	3009
803.208	2944
803.35	2941
803.492	2948
803.635	2948
803.777	2830
803.919	2899
804.061	3195
804.204	3009
804.346	2929
804.488	2883
804.63	2979
804.773	2883
804.915	2929
805.057	3089
805.199	2925
805.341	2979
805.483	3024
805.626	2990
805.768	2960
805.91	3157
806.052	3104
806.194	3047
806.336	3249
806.478	3024
806.62	2960
806.762	2967
806.904	3028
807.046	3176
807.188	2982
807.33	2937
807.472	3024
807.614	2929
807.756	2990
807.898	2929
808.04	2899
808.182	2979
808.324	2967
808.465	2918
808.607	2910
808.749	2804
808.891	2845
809.033	2975
809.174	2967
809.316	2914
809.458	2895
809.6	2815
809.741	2777
809.883	2773
810.025	2845
810.166	2834
810.308	2838
810.45	2845
810.591	2743
810.733	2781
810.875	2811
811.016	2819
811.158	2785
811.299	2849
811.441	2918
811.582	2883
811.724	2838
811.865	2857
812.007	2922
812.148	2891
812.29	2891
812.431	2883
812.573	2952
812.714	2941
812.855	3020
812.997	3047
813.138	3100
813.279	3036
813.421	2967
813.562	2986
813.703	2861
813.845	2887
813.986	2788
814.127	2720
814.268	2830
814.41	2853
814.551	2842
814.692	2895
814.833	2834
814.974	2895
815.115	2929
815.256	2849
815.397	2842
815.539	2845
815.68	2781
815.821	2766
815.962	2967
816.103	2963
816.244	2883
816.385	2876
816.526	3001
816.666	2918
816.807	2746
816.948	2910
817.089	2933
817.23	2830
817.371	2815
817.512	2800
817.653	2853
817.793	2861
817.934	2906
818.075	2982
818.216	2941
818.356	3047
818.497	2910
818.638	2788
818.778	2830
818.919	2826
819.06	2762
819.2	2880
819.341	2807
819.481	2788
819.622	2922
819.762	3112
819.903	3039
820.043	2944
820.184	2880
820.324	2899
820.465	3020
820.605	3028
820.746	3043
820.886	2944
821.026	3104
821.167	3131
821.307	3306
821.447	3317
821.588	3249
821.728	3188
821.868	3218
822.008	3108
822.149	3188
822.289	3214
822.429	3097
822.569	3100
822.709	3157
822.849	3047
822.99	3058
823.13	3188
823.27	3192
823.41	3127
823.55	3142
823.69	3169
823.83	3195
823.97	3077
824.11	3032
824.25	2986
824.389	3081
824.529	3100
824.669	3097
824.809	3195
824.949	3279
825.089	3241
825.228	3180
825.368	3009
825.508	2982
825.648	2948
825.787	3024
825.927	3028
826.067	2979
826.206	2967
826.346	3051
826.485	3089
826.625	3131
826.765	3317
826.904	3188
827.044	3020
827.183	2986
827.323	2876
827.462	2975
827.601	2925
827.741	2925
827.88	2994
828.02	2902
828.159	2960
828.298	3039
828.437	3119
828.577	3074
828.716	3264
828.855	3097
828.994	2956
829.134	2880
829.273	2925
829.412	2868
829.551	2864
829.69	2864
829.829	3043
829.968	3135
830.107	3001
830.246	3024
830.385	2899
830.524	2876
830.663	2804
830.802	2746
830.941	2655
831.08	2651
831.219	2743
831.357	2739
831.496	2918
831.635	2743
831.774	2625
831.913	2651
832.051	2541
832.19	2556
832.329	2670
832.467	2575
832.606	2495
832.744	2587
832.883	2594
833.022	2583
833.16	2632
833.299	2705
833.437	2712
833.576	2693
833.714	2746
833.852	2739
833.991	2823
834.129	2823
834.267	2845
834.406	2792
834.544	2872
834.682	2914
834.821	2891
834.959	3058
835.097	2902
835.235	3085
835.373	2998
835.511	3005
835.65	2982
835.788	2941
835.926	2857
836.064	2823
836.202	2849
836.34	3119
836.478	3123
836.615	3062
836.753	3146
836.891	3207
837.029	3188
837.167	3142
837.305	3077
837.443	3036
837.58	2944
837.718	3138
837.856	3085
837.993	3074
838.131	3074
838.269	3093
838.406	3127
838.544	3051
838.681	2925
838.819	2918
838.956	2838
839.094	2815
839.231	2914
839.369	3013
839.506	3382
839.643	3214
839.781	3039
839.918	2937
840.055	3024
840.193	3024
840.33	3070
840.467	3112
840.604	3112
840.742	3393
840.879	3055
841.016	3051
841.153	3135
841.29	3351
841.427	3332
841.564	3294
841.701	3291
841.838	3241
841.975	3157
842.112	3222
842.249	3074
842.385	3055
842.522	3275
842.659	3089
842.796	3066
842.933	3146
843.069	3017
843.206	3058
843.343	3154
843.479	3116
843.616	3180
843.752	2883
843.889	2838
844.025	3074
844.162	2883
844.298	3039
844.435	2971
844.571	2918
844.708	3062
844.844	3203
844.98	3253
845.117	3188
845.253	3036
845.389	3009
845.525	3089
845.661	3108
845.798	3009
845.934	3127
846.07	3039
846.206	3222
846.342	3294
846.478	3260
846.614	3077
846.75	3051
846.886	3013
847.022	3222
847.158	3138
847.294	3203
847.429	3207
847.565	3192
847.701	3462
847.837	3043
847.972	2963
848.108	3176
848.244	3150
848.379	2986
848.515	2914
848.65	2891
848.786	2967
848.921	3032
849.057	3085
849.192	3150
849.328	3093
849.463	3123
849.598	3017
849.734	3028
849.869	2979
850.004	2899
850.14	2975
850.275	2937
850.41	2842
850.545	2899
850.68	2899
850.815	2941
850.95	2963
851.085	3184
851.22	3089
851.355	3058
851.49	2971
851.625	3009
851.76	3005
851.895	2899
852.03	2914
852.165	3039
852.299	3112
852.434	3199
852.569	3169
852.703	3157
852.838	3218
852.973	3336
853.107	3355
853.242	3138
853.376	3077
853.511	2979
853.645	3055
853.78	3237
853.914	3116
854.048	3100
854.183	3043
854.317	3161
854.451	3272
854.585	3112
854.72	3108
854.854	3214
854.988	3055
855.122	3112
855.256	2963
855.39	3131
855.524	3226
855.658	3138
855.792	3184
855.926	3214
856.06	3218
856.194	3253
856.327	3116
856.461	3104
856.595	3074
856.729	3104
856.862	3218
856.996	3131
857.13	3207
857.263	3230
857.397	3294
857.53	3112
857.664	3184
857.797	3218
857.931	3256
858.064	3150
858.197	3203
858.331	3104
858.464	3119
858.597	3005
858.731	3108
858.864	3097
858.997	3085
859.13	3165
859.263	3142
859.396	3199
859.529	3089
859.662	3077
859.795	3009
859.928	3165
860.061	3275
860.194	3302
860.327	3146
860.46	3097
860.592	3218
860.725	3222
860.858	3245
860.99	3093
861.123	3047
861.256	3017
861.388	3169
861.521	3823
861.653	3009
861.786	2982
861.918	3017
862.05	3062
862.183	3093
862.315	3154
862.447	3237
862.58	3070
862.712	2986
862.844	2868
862.976	3036
863.108	2998
863.24	3336
863.372	2880
863.504	2963
863.636	2960
863.768	3005
863.9	2994
864.032	2895
864.164	2929
864.296	3028
864.428	3135
864.559	3104
864.691	3055
864.823	3039
864.954	3001
865.086	3039
865.217	3013
865.349	2956
865.48	3005
865.612	3051
865.743	3150
865.875	2960
866.006	2941
866.137	2971
866.269	2960
866.4	2895
866.531	2933
866.662	2883
866.793	2857
866.924	2895
867.055	2967
867.186	2895
867.317	2899
867.448	2876
867.579	2807
867.71	2826
867.841	2838
867.972	2922
868.103	2887
868.233	2922
868.364	2864
868.495	2902
868.625	3093
868.756	3173
868.886	3017
869.017	2998
869.147	3188
869.278	3138
869.408	3097
869.539	3013
869.669	3100
869.799	3066
869.929	3123
870.06	3081
870.19	3325
870.32	3302
870.45	3302
870.58	3313
870.71	3424
870.84	3409
870.97	3332
871.1	3203
871.23	3447
871.36	3405
871.489	3355
871.619	3405
871.749	3397
871.879	3405
872.008	3469
872.138	3325
872.267	3230
872.397	3157
872.526	3138
872.656	3051
872.785	3108
872.915	3260
873.044	3321
873.173	3233
873.303	3237
873.432	3237
873.561	3306
873.69	3154
873.819	3142
873.948	3184
874.077	3085
874.206	3051
874.335	3089
874.464	3184
874.593	3363
874.722	3283
874.851	3397
874.979	3329
875.108	3336
875.237	3222
875.365	3173
875.494	3165
875.623	3268
875.751	3112
875.88	3104
876.008	3165
876.136	3230
876.265	3378
876.393	3473
876.521	3409
876.65	3431
876.778	3336
876.906	3283
877.034	3207
877.162	3233
877.29	3188
877.418	3241
877.546	3241
877.674	3268
877.802	3218
877.93	3222
878.058	3169
878.185	3108
878.313	3173
878.441	3192
878.568	3081
878.696	3150
878.824	3245
878.951	3317
879.079	3443
879.206	3599
879.333	3450
879.461	3336
879.588	3344
879.715	3431
879.842	3633
879.97	3389
880.097	3135
880.224	3142
880.351	3184
880.478	3218
880.605	3214
880.732	3203
880.859	3485
880.986	3287
881.112	3317
881.239	3188
881.366	3089
881.493	3028
881.619	3005
881.746	3100
881.872	3062
881.999	3085
882.125	3119
882.252	3283
882.378	3272
882.505	3420
882.631	3291
882.757	3154
882.883	3214
883.01	3241
883.136	3161
883.262	3112
883.388	3104
883.514	3351
883.64	3405
883.766	3306
883.892	3154
884.018	3275
884.143	3386
884.269	3542
884.395	3233
884.52	3165
884.646	3214
884.772	3127
884.897	3093
885.023	3199
885.148	3325
885.274	3477
885.399	3321
885.524	3294
885.65	3272
885.775	3325
885.9	3268
886.025	3416
886.15	3336
886.275	3298
886.4	3218
886.525	3306
886.65	3313
886.775	3264
886.9	3496
887.025	3614
887.149	3401
887.274	3237
887.399	3169
887.523	3199
887.648	3176
887.773	3165
887.897	3363
888.021	3420
888.146	3332
888.27	3435
888.395	3557
888.519	3439
888.643	3431
888.767	3439
888.891	3268
889.015	3268
889.139	3294
889.263	3253
889.387	3386
889.511	3454
889.635	3435
889.759	3279
889.883	3313
890.006	3374
890.13	3473
890.254	3256
890.377	3348
890.501	3180
890.624	3188
890.748	3302
890.871	3184
890.995	3108
891.118	3077
891.241	3211
891.364	3253
891.488	3287
891.611	3138
891.734	3222
891.857	3321
891.98	3222
892.103	3340
892.226	3264
892.349	3188
892.471	3131
892.594	3241
892.717	3291
892.839	3249
892.962	3294
893.085	3291
893.207	3306
893.33	3138
893.452	3207
893.575	3329
893.697	3253
893.819	3469
893.941	3492
894.064	3435
894.186	3264
894.308	3302
894.43	3439
894.552	3542
894.674	3469
894.796	3279
894.918	3313
895.04	3283
895.161	3412
895.283	3389
895.405	3313
895.526	3340
895.648	3466
895.769	3435
895.891	3443
896.012	3469
896.134	3450
896.255	3382
896.376	3355
896.498	3348
896.619	3405
896.74	3363
896.861	3382
896.982	3614
897.103	3876
897.224	3584
897.345	3488
897.466	3409
897.587	3469
897.708	3625
897.828	3530
897.949	3420
898.07	3329
898.19	3405
898.311	3606
898.431	3473
898.552	3481
898.672	3595
898.792	3606
898.913	3511
899.033	3401
899.153	3298
899.273	3230
899.393	3268
899.513	3291
899.633	3321
899.753	3351
899.873	3287
899.993	3340
900.113	3344
900.232	3409
900.352	3325
900.472	3279
900.591	3195
900.711	3291
900.83	3260
900.95	3378
901.069	3428
901.189	3363
901.308	3150
901.427	3104
901.546	3180
901.665	3260
901.784	3336
901.904	3214
902.023	3161
902.141	3013
902.26	2994
902.379	3127
902.498	3085
902.617	3062
902.735	3218
902.854	3233
902.973	3195
903.091	3028
903.21	3058
903.328	3119
903.446	3108
903.565	3157
903.683	3173
903.801	3142
903.919	3226
904.038	3310
904.156	3176
904.274	3306
904.392	3256
904.51	3294
904.627	3386
904.745	3473
904.863	3469
904.981	3245
905.098	3135
905.216	3214
905.334	3279
905.451	3325
905.569	3283
905.686	3454
905.803	3492
905.921	3279
906.038	3443
906.155	3355
906.272	3260
906.389	3310
906.506	3241
906.623	3253
906.74	3214
906.857	3161
906.974	3241
907.091	3393
907.208	3504
907.324	3481
907.441	3355
907.557	3188
907.674	3245
907.79	3169
907.907	3260
908.023	3374
908.139	3382
908.256	3310
908.372	3401
908.488	3370
908.604	3256
908.72	3188
908.836	3321
908.952	3283
909.068	3298
909.184	3443
909.3	3367
909.415	3507
909.531	3431
909.647	3253
909.762	3283
909.878	3249
909.993	3344
910.108	3332
910.224	3359
910.339	3416
910.454	3332
910.57	3275
910.685	3218
910.8	3603
910.915	3526
911.03	3409
911.145	3287
911.259	3275
911.374	3283
911.489	3253
911.604	3195
911.718	3108
911.833	3138
911.947	3001
912.062	2948
912.176	3173
912.291	3176
912.405	3180
912.519	3397
912.633	3428
912.748	3344
912.862	3260
912.976	3169
913.09	3066
913.204	3127
913.318	3245
913.431	3321
913.545	3332
913.659	3397
913.772	3291
913.886	3211
914	3188
914.113	3370
914.226	3405
914.34	3367
914.453	3214
914.566	3389
914.68	3294
914.793	3287
914.906	3169
915.019	3100
915.132	3055
915.245	3150
915.358	3173
915.47	3211
915.583	3268
915.696	3279
915.809	3405
915.921	3393
916.034	3260
916.146	3245
916.259	3207
916.371	3378
916.483	3370
916.595	3275
916.708	3317
916.82	3351
916.932	3291
917.044	3389
917.156	3363
917.268	3302
917.38	3283
917.491	3313
917.603	3351
917.715	3492
917.826	3443
917.938	3389
918.049	3264
918.161	3412
918.272	3580
918.384	3591
918.495	3447
918.606	3313
918.717	3287
918.828	3367
918.939	3424
919.05	3272
919.161	3340
919.272	3199
919.383	3279
919.494	3466
919.604	3713
919.715	3496
919.826	3401
919.936	3481
920.047	3591
920.157	3561
920.267	3717
920.378	3568
920.488	3553
920.598	3781
920.708	3953
920.818	3819
920.928	3884
921.038	3979
921.148	3983
921.258	3675
921.368	3644
921.477	3587
921.587	3504
921.697	3431
921.806	3587
921.916	3545
922.025	3355
922.134	3340
922.244	3291
922.353	3439
922.462	3272
922.571	3214
922.68	3127
922.789	3093
922.898	3146
923.007	3070
923.116	3203
923.224	3123
923.333	3192
923.442	3074
923.55	3097
923.659	3169
923.767	3214
923.876	3108
923.984	3256
924.092	3093
924.201	3180
924.309	3214
924.417	3233
924.525	3214
924.633	3222
924.741	4166
924.849	3066
924.956	3272
925.064	3100
925.172	3024
925.279	3100
925.387	3222
925.494	3173
925.602	3344
925.709	3336
925.816	3157
925.924	3306
926.031	3351
926.138	3348
926.245	3348
926.352	3275
926.459	3386
926.566	3454
926.673	3336
926.779	3279
926.886	3245
926.993	3169
927.099	3127
927.206	3077
927.312	3135
927.419	3260
927.525	3230
927.631	3302
927.737	3138
927.843	3119
927.95	3039
928.056	3100
928.162	3165
928.267	3260
928.373	3926
928.479	3294
928.585	3066
928.69	3180
928.796	3313
928.901	3173
929.007	3074
929.112	3237
929.218	3192
929.323	3131
929.428	3127
929.533	3317
929.638	3119
929.743	3165
929.848	3218
929.953	3233
930.058	3142
930.163	2963
930.267	3036
930.372	3222
930.477	3032
930.581	3268
930.685	3192
930.79	3055
930.894	3112
930.998	3127
931.103	3279
931.207	2963
931.311	2922
931.415	2948
931.519	2762
931.623	2815
