Data from test_V78500241_1444.txt Node
Date: Fri Mar 25 16:25:12 CST 2022
User: usil
Spectrometer: V785-0024
Trigger mode: 0
Integration Time (sec): 4.000000E-1
Scans to average: 1
Nonlinearity correction enabled: false
Boxcar width: 0
Storing dark spectrum: false
XAxis mode: Wavelengths
Number of Pixels in Spectrum: 1024
>>>>>Begin Spectral Data<<<<<
801.071	2910
801.214	2956
801.356	2902
801.499	2902
801.641	2918
801.783	2933
801.926	3062
802.068	2960
802.211	2998
802.353	3051
802.496	2998
802.638	3028
802.78	3051
802.923	3119
803.065	2994
803.208	2929
803.35	2899
803.492	2948
803.635	2941
803.777	2781
803.919	2872
804.061	3230
804.204	2967
804.346	2944
804.488	2876
804.63	2975
804.773	2880
804.915	2933
805.057	3112
805.199	2929
805.341	2967
805.483	3058
805.626	3001
805.768	2956
805.91	3108
806.052	3100
806.194	3039
806.336	3203
806.478	3043
806.62	2944
806.762	2948
806.904	3081
807.046	3203
807.188	3013
807.33	2937
807.472	2998
807.614	2918
807.756	2982
807.898	2971
808.04	2902
808.182	3005
808.324	2975
808.465	2933
808.607	2868
808.749	2826
808.891	2853
809.033	2994
809.174	2971
809.316	2872
809.458	2933
809.6	2800
809.741	2785
809.883	2769
810.025	2868
810.166	2876
810.308	2845
810.45	2834
810.591	2762
810.733	2800
810.875	2838
811.016	2811
811.158	2785
811.299	2811
811.441	2906
811.582	2891
811.724	2807
811.865	2830
812.007	2891
812.148	2906
812.29	2883
812.431	2914
812.573	2925
812.714	2956
812.855	3051
812.997	3070
813.138	3097
813.279	3013
813.421	2994
813.562	2982
813.703	2876
813.845	2899
813.986	2769
814.127	2731
814.268	2830
814.41	2834
814.551	2887
814.692	2906
814.833	2842
814.974	2887
815.115	2963
815.256	2826
815.397	2781
815.539	2906
815.68	2773
815.821	2838
815.962	2941
816.103	2933
816.244	2861
816.385	2887
816.526	3009
816.666	2963
816.807	2766
816.948	2914
817.089	2899
817.23	2868
817.371	2785
817.512	2815
817.653	2853
817.793	2830
817.934	2880
818.075	2982
818.216	3024
818.356	3028
818.497	2864
818.638	2811
818.778	2857
818.919	2796
819.06	2788
819.2	2925
819.341	2804
819.481	2792
819.622	2922
819.762	3108
819.903	3051
820.043	2933
820.184	2922
820.324	2952
820.465	2971
820.605	2990
820.746	3028
820.886	2963
821.026	3093
821.167	3165
821.307	3264
821.447	3321
821.588	3226
821.728	3233
821.868	3150
822.008	3150
822.149	3207
822.289	3230
822.429	3062
822.569	3077
822.709	3146
822.849	3032
822.99	3039
823.13	3165
823.27	3214
823.41	3097
823.55	3161
823.69	3150
823.83	3173
823.97	3119
824.11	3058
824.25	3020
824.389	3070
824.529	3066
824.669	3074
824.809	3173
824.949	3253
825.089	3233
825.228	3165
825.368	3020
825.508	2937
825.648	2979
825.787	3009
825.927	3039
826.067	2986
826.206	2948
826.346	3070
826.485	3047
826.625	3116
826.765	3287
826.904	3230
827.044	2956
827.183	2937
827.323	2864
827.462	2982
827.601	2891
827.741	2933
827.88	2967
828.02	2872
828.159	2971
828.298	3043
828.437	3093
828.577	3070
828.716	3245
828.855	3047
828.994	2887
829.134	2895
829.273	2944
829.412	2872
829.551	2929
829.69	2899
829.829	3017
829.968	3123
830.107	2994
830.246	3036
830.385	2922
830.524	2902
830.663	2819
830.802	2746
830.941	2617
831.08	2651
831.219	2746
831.357	2773
831.496	2967
831.635	2735
831.774	2617
831.913	2648
832.051	2564
832.19	2541
832.329	2697
832.467	2579
832.606	2473
832.744	2564
832.883	2590
833.022	2575
833.16	2640
833.299	2682
833.437	2716
833.576	2689
833.714	2735
833.852	2712
833.991	2777
834.129	2823
834.267	2792
834.406	2792
834.544	2861
834.682	2891
834.821	2861
834.959	3066
835.097	2902
835.235	3062
835.373	2998
835.511	3005
835.65	2941
835.788	2925
835.926	2842
836.064	2811
836.202	2830
836.34	3055
836.478	3154
836.615	3028
836.753	3108
836.891	3222
837.029	3169
837.167	3123
837.305	3058
837.443	3001
837.58	2975
837.718	3097
837.856	3081
837.993	3005
838.131	3138
838.269	3085
838.406	3074
838.544	3093
838.681	2933
838.819	2906
838.956	2842
839.094	2834
839.231	2918
839.369	2994
839.506	3344
839.643	3203
839.781	3009
839.918	2994
840.055	3032
840.193	3093
840.33	3051
840.467	3135
840.604	3165
840.742	3393
840.879	3017
841.016	3058
841.153	3074
841.29	3344
841.427	3310
841.564	3264
841.701	3260
841.838	3211
841.975	3195
842.112	3161
842.249	3081
842.385	3047
842.522	3233
842.659	3055
842.796	3077
842.933	3089
843.069	3062
843.206	3013
843.343	3184
843.479	3146
843.616	3142
843.752	2899
843.889	2861
844.025	3058
844.162	2872
844.298	3066
844.435	2952
844.571	2880
844.708	3070
844.844	3150
844.98	3226
845.117	3214
845.253	3039
845.389	3020
845.525	3085
845.661	3108
845.798	3028
845.934	3131
846.07	3051
846.206	3199
846.342	3298
846.478	3237
846.614	3089
846.75	3070
846.886	3070
847.022	3279
847.158	3112
847.294	3245
847.429	3291
847.565	3203
847.701	3488
847.837	3051
847.972	3036
848.108	3169
848.244	3169
848.379	3009
848.515	2944
848.65	2975
848.786	3009
848.921	3020
849.057	3131
849.192	3207
849.328	3131
849.463	3119
849.598	3093
849.734	3085
849.869	3055
850.004	2941
850.14	2990
850.275	2944
850.41	2899
850.545	2918
850.68	2960
850.815	2986
850.95	3005
851.085	3245
851.22	3169
851.355	3077
851.49	3017
851.625	3020
851.76	3062
851.895	3009
852.03	2963
852.165	3070
852.299	3173
852.434	3199
852.569	3150
852.703	3207
852.838	3237
852.973	3363
853.107	3359
853.242	3180
853.376	3119
853.511	3024
853.645	3100
853.78	3253
853.914	3157
854.048	3169
854.183	3142
854.317	3195
854.451	3325
854.585	3169
854.72	3146
854.854	3230
854.988	3062
855.122	3142
855.256	3020
855.39	3154
855.524	3283
855.658	3207
855.792	3207
855.926	3264
856.06	3245
856.194	3317
856.327	3188
856.461	3123
856.595	3100
856.729	3135
856.862	3268
856.996	3176
857.13	3237
857.263	3275
857.397	3325
857.53	3161
857.664	3207
857.797	3287
857.931	3272
858.064	3214
858.197	3268
858.331	3176
858.464	3119
858.597	3043
858.731	3142
858.864	3211
858.997	3116
859.13	3188
859.263	3233
859.396	3241
859.529	3142
859.662	3127
859.795	3097
859.928	3161
860.061	3279
860.194	3336
860.327	3135
860.46	3138
860.592	3241
860.725	3241
860.858	3302
860.99	3161
861.123	3085
861.256	3062
861.388	3195
861.521	3911
861.653	3077
861.786	3043
861.918	3024
862.05	3119
862.183	3184
862.315	3188
862.447	3230
862.58	3180
862.712	2979
862.844	2918
862.976	3070
863.108	2998
863.24	3370
863.372	2902
863.504	2971
863.636	2982
863.768	3062
863.9	3013
864.032	2918
864.164	3005
864.296	3055
864.428	3097
864.559	3131
864.691	3119
864.823	3100
864.954	3058
865.086	3062
865.217	3070
865.349	2975
865.48	3001
865.612	3009
865.743	3150
865.875	2998
866.006	2975
866.137	3032
866.269	2967
866.4	2956
866.531	2929
866.662	2910
866.793	2975
866.924	2925
867.055	3013
867.186	2952
867.317	2906
867.448	2883
867.579	2861
867.71	2864
867.841	2849
867.972	2952
868.103	2929
868.233	2914
868.364	2925
868.495	2933
868.625	3123
868.756	3207
868.886	3001
869.017	3055
869.147	3176
869.278	3192
869.408	3089
869.539	3043
869.669	3123
869.799	3036
869.929	3169
870.06	3108
870.19	3302
870.32	3298
870.45	3351
870.58	3443
870.71	3462
870.84	3477
870.97	3336
871.1	3272
871.23	3485
871.36	3477
871.489	3367
871.619	3389
871.749	3435
871.879	3454
872.008	3492
872.138	3389
872.267	3283
872.397	3180
872.526	3150
872.656	3024
872.785	3123
872.915	3214
873.044	3351
873.173	3256
873.303	3275
873.432	3279
873.561	3241
873.69	3211
873.819	3127
873.948	3207
874.077	3150
874.206	3097
874.335	3089
874.464	3249
874.593	3348
874.722	3272
874.851	3412
874.979	3355
875.108	3340
875.237	3207
875.365	3207
875.494	3161
875.623	3264
875.751	3119
875.88	3131
876.008	3218
876.136	3233
876.265	3378
876.393	3564
876.521	3443
876.65	3420
876.778	3351
876.906	3253
877.034	3207
877.162	3218
877.29	3199
877.418	3275
877.546	3237
877.674	3298
877.802	3291
877.93	3272
878.058	3188
878.185	3146
878.313	3237
878.441	3260
878.568	3077
878.696	3211
878.824	3256
878.951	3332
879.079	3466
879.206	3641
879.333	3458
879.461	3348
879.588	3355
879.715	3519
879.842	3633
879.97	3431
880.097	3214
880.224	3169
880.351	3233
880.478	3283
880.605	3218
880.732	3192
880.859	3542
880.986	3351
881.112	3336
881.239	3199
881.366	3108
881.493	3043
881.619	3024
881.746	3047
881.872	3108
881.999	3157
882.125	3203
882.252	3279
882.378	3306
882.505	3473
882.631	3317
882.757	3161
882.883	3199
883.01	3237
883.136	3226
883.262	3112
883.388	3146
883.514	3321
883.64	3374
883.766	3313
883.892	3222
884.018	3272
884.143	3401
884.269	3568
884.395	3211
884.52	3173
884.646	3192
884.772	3135
884.897	3131
885.023	3214
885.148	3359
885.274	3439
885.399	3393
885.524	3321
885.65	3306
885.775	3287
885.9	3287
886.025	3466
886.15	3393
886.275	3317
886.4	3245
886.525	3313
886.65	3313
886.775	3272
886.9	3538
887.025	3667
887.149	3466
887.274	3272
887.399	3214
887.523	3226
887.648	3222
887.773	3207
887.897	3393
888.021	3420
888.146	3336
888.27	3443
888.395	3553
888.519	3469
888.643	3439
888.767	3447
888.891	3374
889.015	3249
889.139	3317
889.263	3272
889.387	3435
889.511	3526
889.635	3443
889.759	3302
889.883	3306
890.006	3420
890.13	3534
890.254	3291
890.377	3374
890.501	3211
890.624	3214
890.748	3298
890.871	3237
890.995	3131
891.118	3066
891.241	3188
891.364	3245
891.488	3310
891.611	3203
891.734	3260
891.857	3275
891.98	3272
892.103	3325
892.226	3256
892.349	3199
892.471	3131
892.594	3279
892.717	3321
892.839	3283
892.962	3298
893.085	3329
893.207	3329
893.33	3154
893.452	3218
893.575	3359
893.697	3214
893.819	3488
893.941	3507
894.064	3466
894.186	3291
894.308	3317
894.43	3431
894.552	3542
894.674	3458
894.796	3272
894.918	3355
895.04	3329
895.161	3466
895.283	3428
895.405	3325
895.526	3401
895.648	3462
895.769	3424
895.891	3485
896.012	3473
896.134	3500
896.255	3393
896.376	3389
896.498	3367
896.619	3454
896.74	3386
896.861	3416
896.982	3743
897.103	3873
897.224	3625
897.345	3564
897.466	3439
897.587	3542
897.708	3633
897.828	3557
897.949	3443
898.07	3332
898.19	3412
898.311	3591
898.431	3462
898.552	3534
898.672	3564
898.792	3603
898.913	3564
899.033	3405
899.153	3344
899.273	3256
899.393	3321
899.513	3332
899.633	3344
899.753	3370
899.873	3329
899.993	3378
900.113	3351
900.232	3409
900.352	3378
900.472	3298
900.591	3218
900.711	3294
900.83	3226
900.95	3447
901.069	3515
901.189	3363
901.308	3214
901.427	3161
901.546	3214
901.665	3294
901.784	3332
901.904	3226
902.023	3157
902.141	3024
902.26	2998
902.379	3131
902.498	3097
902.617	3051
902.735	3230
902.854	3260
902.973	3218
903.091	3058
903.21	3097
903.328	3173
903.446	3131
903.565	3123
903.683	3180
903.801	3131
903.919	3245
904.038	3310
904.156	3192
904.274	3275
904.392	3283
904.51	3321
904.627	3355
904.745	3431
904.863	3496
904.981	3268
905.098	3176
905.216	3237
905.334	3329
905.451	3317
905.569	3298
905.686	3428
905.803	3401
905.921	3306
906.038	3454
906.155	3325
906.272	3249
906.389	3344
906.506	3241
906.623	3306
906.74	3287
906.857	3176
906.974	3294
907.091	3462
907.208	3587
907.324	3462
907.441	3374
907.557	3237
907.674	3279
907.79	3253
907.907	3298
908.023	3416
908.139	3397
908.256	3325
908.372	3351
908.488	3378
908.604	3310
908.72	3241
908.836	3279
908.952	3310
909.068	3340
909.184	3492
909.3	3401
909.415	3473
909.531	3496
909.647	3287
909.762	3302
909.878	3283
909.993	3367
910.108	3359
910.224	3370
910.339	3412
910.454	3317
910.57	3340
910.685	3218
910.8	3587
910.915	3564
911.03	3450
911.145	3287
911.259	3317
911.374	3317
911.489	3272
911.604	3230
911.718	3104
911.833	3157
911.947	3055
912.062	2975
912.176	3173
912.291	3199
912.405	3222
912.519	3439
912.633	3496
912.748	3359
912.862	3310
912.976	3176
913.09	3100
913.204	3154
913.318	3233
913.431	3344
913.545	3348
913.659	3450
913.772	3329
913.886	3272
914	3211
914.113	3409
914.226	3397
914.34	3329
914.453	3203
914.566	3420
914.68	3275
914.793	3313
914.906	3169
915.019	3116
915.132	3062
915.245	3176
915.358	3199
915.47	3233
915.583	3249
915.696	3294
915.809	3386
915.921	3431
916.034	3249
916.146	3272
916.259	3256
916.371	3359
916.483	3393
916.595	3287
916.708	3370
916.82	3302
916.932	3348
917.044	3348
917.156	3329
917.268	3249
917.38	3279
917.491	3291
917.603	3382
917.715	3469
917.826	3458
917.938	3370
918.049	3264
918.161	3409
918.272	3564
918.384	3564
918.495	3462
918.606	3310
918.717	3310
918.828	3367
918.939	3428
919.05	3317
919.161	3348
919.272	3176
919.383	3287
919.494	3500
919.604	3694
919.715	3458
919.826	3420
919.936	3492
920.047	3610
920.157	3530
920.267	3751
920.378	3637
920.488	3580
920.598	3785
920.708	3975
920.818	3854
920.928	3880
921.038	4036
921.148	3975
921.258	3755
921.368	3618
921.477	3564
921.587	3530
921.697	3439
921.806	3618
921.916	3523
922.025	3367
922.134	3348
922.244	3313
922.353	3416
922.462	3272
922.571	3214
922.68	3093
922.789	3043
922.898	3131
923.007	3104
923.116	3203
923.224	3184
923.333	3184
923.442	3112
923.55	3116
923.659	3131
923.767	3214
923.876	3157
923.984	3245
924.092	3135
924.201	3180
924.309	3260
924.417	3249
924.525	3207
924.633	3218
924.741	4143
924.849	3043
924.956	3256
925.064	3100
925.172	3036
925.279	3089
925.387	3214
925.494	3222
925.602	3351
925.709	3329
925.816	3199
925.924	3287
926.031	3393
926.138	3329
926.245	3351
926.352	3230
926.459	3447
926.566	3485
926.673	3321
926.779	3283
926.886	3260
926.993	3123
927.099	3116
927.206	3119
927.312	3077
927.419	3203
927.525	3214
927.631	3264
927.737	3146
927.843	3123
927.95	3009
928.056	3146
928.162	3184
928.267	3226
928.373	3850
928.479	3287
928.585	3077
928.69	3211
928.796	3294
928.901	3218
929.007	3055
929.112	3214
929.218	3157
929.323	3146
929.428	3142
929.533	3317
929.638	3176
929.743	3203
929.848	3226
929.953	3279
930.058	3154
930.163	3005
930.267	3066
930.372	3199
930.477	3058
930.581	3306
930.685	3173
930.79	3055
930.894	3123
930.998	3077
931.103	3268
931.207	2944
931.311	2941
931.415	2922
931.519	2792
931.623	2804
