Data from test_V78500241_320.txt Node
Date: Fri Mar 25 16:17:25 CST 2022
User: usil
Spectrometer: V785-0024
Trigger mode: 0
Integration Time (sec): 4.000000E-1
Scans to average: 1
Nonlinearity correction enabled: false
Boxcar width: 0
Storing dark spectrum: false
XAxis mode: Wavelengths
Number of Pixels in Spectrum: 1024
>>>>>Begin Spectral Data<<<<<
801.071	2899
801.214	2948
801.356	2864
801.499	2922
801.641	2853
801.783	2918
801.926	3005
802.068	2986
802.211	2986
802.353	3036
802.496	2944
802.638	3028
802.78	3062
802.923	3081
803.065	2986
803.208	2868
803.35	2944
803.492	2937
803.635	2902
803.777	2735
803.919	2868
804.061	3245
804.204	2971
804.346	2899
804.488	2872
804.63	2990
804.773	2853
804.915	2933
805.057	3066
805.199	2922
805.341	2971
805.483	3036
805.626	2998
805.768	3001
805.91	3077
806.052	3112
806.194	3047
806.336	3207
806.478	3024
806.62	2902
806.762	2944
806.904	3043
807.046	3192
807.188	3005
807.33	2902
807.472	2982
807.614	2910
807.756	2979
807.898	2906
808.04	2906
808.182	2998
808.324	2982
808.465	2902
808.607	2872
808.749	2792
808.891	2880
809.033	2956
809.174	2960
809.316	2914
809.458	2906
809.6	2785
809.741	2766
809.883	2746
810.025	2849
810.166	2864
810.308	2819
810.45	2853
810.591	2762
810.733	2773
810.875	2849
811.016	2766
811.158	2746
811.299	2804
811.441	2914
811.582	2910
811.724	2857
811.865	2815
812.007	2872
812.148	2876
812.29	2842
812.431	2887
812.573	2944
812.714	2982
812.855	3043
812.997	3058
813.138	3127
813.279	3024
813.421	2960
813.562	2956
813.703	2891
813.845	2899
813.986	2773
814.127	2731
814.268	2861
814.41	2857
814.551	2853
814.692	2876
814.833	2804
814.974	2861
815.115	2899
815.256	2807
815.397	2788
815.539	2853
815.68	2788
815.821	2804
815.962	2941
816.103	2952
816.244	2883
816.385	2880
816.526	2967
816.666	2914
816.807	2735
816.948	2883
817.089	2914
817.23	2876
817.371	2785
817.512	2823
817.653	2800
817.793	2857
817.934	2902
818.075	2971
818.216	3001
818.356	3066
818.497	2895
818.638	2785
818.778	2842
818.919	2819
819.06	2781
819.2	2883
819.341	2826
819.481	2830
819.622	2956
819.762	3100
819.903	3062
820.043	2872
820.184	2929
820.324	2887
820.465	3028
820.605	3009
820.746	3024
820.886	2937
821.026	3093
821.167	3173
821.307	3249
821.447	3256
821.588	3241
821.728	3233
821.868	3192
822.008	3093
822.149	3211
822.289	3211
822.429	3058
822.569	3051
822.709	3173
822.849	3009
822.99	3077
823.13	3157
823.27	3211
823.41	3108
823.55	3142
823.69	3180
823.83	3188
823.97	3104
824.11	2990
824.25	2990
824.389	3081
824.529	3119
824.669	3077
824.809	3184
824.949	3291
825.089	3211
825.228	3150
825.368	2990
825.508	2963
825.648	2933
825.787	3032
825.927	2979
826.067	2979
826.206	2960
826.346	3058
826.485	3100
826.625	3104
826.765	3264
826.904	3180
827.044	3001
827.183	2914
827.323	2880
827.462	2986
827.601	2902
827.741	2922
827.88	2910
828.02	2864
828.159	2982
828.298	3036
828.437	3138
828.577	3085
828.716	3241
828.855	3097
828.994	2952
829.134	2906
829.273	2887
829.412	2883
829.551	2853
829.69	2902
829.829	2998
829.968	3123
830.107	3039
830.246	3032
830.385	2902
830.524	2883
830.663	2796
830.802	2739
830.941	2640
831.08	2640
831.219	2766
831.357	2758
831.496	2952
831.635	2712
831.774	2629
831.913	2625
832.051	2541
832.19	2587
832.329	2670
832.467	2541
832.606	2492
832.744	2575
832.883	2564
833.022	2560
833.16	2648
833.299	2686
833.437	2701
833.576	2670
833.714	2727
833.852	2731
833.991	2720
834.129	2815
834.267	2815
834.406	2792
834.544	2876
834.682	2857
834.821	2838
834.959	3100
835.097	2872
835.235	3081
835.373	3013
835.511	3005
835.65	2979
835.788	2994
835.926	2815
836.064	2792
836.202	2834
836.34	3093
836.478	3192
836.615	3013
836.753	3119
836.891	3195
837.029	3150
837.167	3108
837.305	3081
837.443	3036
837.58	2963
837.718	3146
837.856	3051
837.993	3036
838.131	3104
838.269	3108
838.406	3058
838.544	3097
838.681	2956
838.819	2933
838.956	2845
839.094	2819
839.231	2933
839.369	3001
839.506	3359
839.643	3176
839.781	3001
839.918	2967
840.055	3055
840.193	3032
840.33	3028
840.467	3100
840.604	3127
840.742	3382
840.879	3047
841.016	3047
841.153	3097
841.29	3310
841.427	3310
841.564	3260
841.701	3279
841.838	3237
841.975	3169
842.112	3218
842.249	3070
842.385	3039
842.522	3253
842.659	3097
842.796	3055
842.933	3093
843.069	3058
843.206	3036
843.343	3188
843.479	3116
843.616	3146
843.752	2883
843.889	2868
844.025	3051
844.162	2891
844.298	3070
844.435	2925
844.571	2902
844.708	3066
844.844	3203
844.98	3222
845.117	3226
845.253	3066
845.389	3005
845.525	3070
845.661	3089
845.798	3005
845.934	3077
846.07	3085
846.206	3233
846.342	3302
846.478	3207
846.614	3089
846.75	3039
846.886	2994
847.022	3222
847.158	3131
847.294	3214
847.429	3241
847.565	3195
847.701	3477
847.837	2998
847.972	2990
848.108	3184
848.244	3116
848.379	3005
848.515	2952
848.65	2929
848.786	2990
848.921	2967
849.057	3119
849.192	3180
849.328	3028
849.463	3093
849.598	3085
849.734	3039
849.869	2963
850.004	2899
850.14	2925
850.275	2922
850.41	2887
850.545	2872
850.68	2941
850.815	2933
850.95	2960
851.085	3173
851.22	3093
851.355	3036
851.49	3005
851.625	2975
851.76	3005
851.895	2941
852.03	2876
852.165	3043
852.299	3085
852.434	3157
852.569	3142
852.703	3214
852.838	3249
852.973	3325
853.107	3306
853.242	3161
853.376	3097
853.511	2960
853.645	3062
853.78	3207
853.914	3104
854.048	3070
854.183	3074
854.317	3142
854.451	3272
854.585	3108
854.72	3039
854.854	3245
854.988	3036
855.122	3062
855.256	2967
855.39	3116
855.524	3211
855.658	3188
855.792	3142
855.926	3176
856.06	3222
856.194	3264
856.327	3135
856.461	3036
856.595	3085
856.729	3100
856.862	3211
856.996	3173
857.13	3195
857.263	3222
857.397	3287
857.53	3104
857.664	3195
857.797	3214
857.931	3237
858.064	3169
858.197	3211
858.331	3108
858.464	3093
858.597	3001
858.731	3131
858.864	3100
858.997	3123
859.13	3150
859.263	3142
859.396	3195
859.529	3089
859.662	3081
859.795	3017
859.928	3165
860.061	3260
860.194	3291
860.327	3100
860.46	3066
860.592	3222
860.725	3211
860.858	3256
860.99	3108
861.123	3020
861.256	3047
861.388	3150
861.521	3873
861.653	2986
861.786	2998
861.918	3009
862.05	3093
862.183	3093
862.315	3157
862.447	3207
862.58	3077
862.712	2925
862.844	2826
862.976	2998
863.108	3047
863.24	3294
863.372	2861
863.504	2960
863.636	2929
863.768	3047
863.9	3005
864.032	2922
864.164	2944
864.296	3024
864.428	3058
864.559	3074
864.691	3085
864.823	3020
864.954	3032
865.086	3036
865.217	2994
865.349	2952
865.48	2944
865.612	3005
865.743	3127
865.875	2975
866.006	2910
866.137	2990
866.269	2922
866.4	2937
866.531	2914
866.662	2918
866.793	2914
866.924	2895
867.055	3032
867.186	2902
867.317	2906
867.448	2830
867.579	2842
867.71	2868
867.841	2807
867.972	2925
868.103	2891
868.233	2910
868.364	2823
868.495	2883
868.625	3066
868.756	3173
868.886	2986
869.017	3039
869.147	3199
869.278	3123
869.408	3066
869.539	2994
869.669	3089
869.799	3036
869.929	3131
870.06	3047
870.19	3340
870.32	3291
870.45	3306
870.58	3348
870.71	3435
870.84	3462
870.97	3294
871.1	3237
871.23	3466
871.36	3473
871.489	3367
871.619	3367
871.749	3405
871.879	3473
872.008	3477
872.138	3355
872.267	3283
872.397	3146
872.526	3100
872.656	2998
872.785	3108
872.915	3260
873.044	3283
873.173	3253
873.303	3268
873.432	3245
873.561	3214
873.69	3150
873.819	3146
873.948	3173
874.077	3066
874.206	3028
874.335	3024
874.464	3184
874.593	3374
874.722	3245
874.851	3405
874.979	3348
875.108	3306
875.237	3199
875.365	3146
875.494	3127
875.623	3230
875.751	3097
875.88	3123
876.008	3165
876.136	3264
876.265	3363
876.393	3519
876.521	3416
876.65	3389
876.778	3302
876.906	3218
877.034	3199
877.162	3275
877.29	3157
877.418	3283
877.546	3241
877.674	3203
877.802	3233
877.93	3226
878.058	3138
878.185	3112
878.313	3226
878.441	3203
878.568	3081
878.696	3127
878.824	3207
878.951	3294
879.079	3409
879.206	3625
879.333	3435
879.461	3313
879.588	3344
879.715	3485
879.842	3610
879.97	3336
880.097	3176
880.224	3119
880.351	3192
880.478	3226
880.605	3154
880.732	3184
880.859	3500
880.986	3249
881.112	3317
881.239	3184
881.366	3055
881.493	3043
881.619	3032
881.746	3104
881.872	3047
881.999	3108
882.125	3127
882.252	3249
882.378	3279
882.505	3443
882.631	3294
882.757	3176
882.883	3195
883.01	3199
883.136	3135
883.262	3108
883.388	3123
883.514	3355
883.64	3359
883.766	3283
883.892	3176
884.018	3230
884.143	3412
884.269	3534
884.395	3226
884.52	3127
884.646	3146
884.772	3150
884.897	3119
885.023	3161
885.148	3325
885.274	3409
885.399	3359
885.524	3253
885.65	3306
885.775	3359
885.9	3313
886.025	3416
886.15	3351
886.275	3313
886.4	3192
886.525	3321
886.65	3302
886.775	3283
886.9	3492
887.025	3629
887.149	3447
887.274	3283
887.399	3146
887.523	3222
887.648	3142
887.773	3195
887.897	3348
888.021	3405
888.146	3298
888.27	3450
888.395	3557
888.519	3420
888.643	3458
888.767	3439
888.891	3302
889.015	3211
889.139	3264
889.263	3245
889.387	3443
889.511	3511
889.635	3447
889.759	3291
889.883	3302
890.006	3401
890.13	3500
890.254	3245
890.377	3355
890.501	3268
890.624	3161
890.748	3287
890.871	3173
890.995	3100
891.118	3028
891.241	3214
891.364	3214
891.488	3302
891.611	3180
891.734	3249
891.857	3279
891.98	3226
892.103	3340
892.226	3237
892.349	3195
892.471	3100
892.594	3264
892.717	3298
892.839	3249
892.962	3310
893.085	3348
893.207	3260
893.33	3135
893.452	3245
893.575	3321
893.697	3226
893.819	3481
893.941	3504
894.064	3412
894.186	3313
894.308	3306
894.43	3424
894.552	3553
894.674	3435
894.796	3283
894.918	3340
895.04	3287
895.161	3447
895.283	3344
895.405	3313
895.526	3386
895.648	3424
895.769	3443
895.891	3401
896.012	3466
896.134	3443
896.255	3405
896.376	3386
896.498	3382
896.619	3443
896.74	3397
896.861	3412
896.982	3679
897.103	3842
897.224	3580
897.345	3534
897.466	3420
897.587	3454
897.708	3625
897.828	3568
897.949	3481
898.07	3310
898.19	3416
898.311	3652
898.431	3462
898.552	3538
898.672	3557
898.792	3603
898.913	3485
899.033	3378
899.153	3298
899.273	3203
899.393	3264
899.513	3264
899.633	3313
899.753	3359
899.873	3287
899.993	3359
900.113	3344
900.232	3382
900.352	3348
900.472	3336
900.591	3188
900.711	3310
900.83	3233
900.95	3447
901.069	3477
901.189	3336
901.308	3192
901.427	3138
901.546	3207
901.665	3253
901.784	3363
901.904	3199
902.023	3123
902.141	3043
902.26	3009
902.379	3135
902.498	3085
902.617	3055
902.735	3241
902.854	3222
902.973	3188
903.091	3058
903.21	3055
903.328	3131
903.446	3123
903.565	3100
903.683	3195
903.801	3135
903.919	3256
904.038	3294
904.156	3184
904.274	3226
904.392	3256
904.51	3264
904.627	3348
904.745	3458
904.863	3504
904.981	3241
905.098	3188
905.216	3195
905.334	3302
905.451	3306
905.569	3294
905.686	3443
905.803	3428
905.921	3317
906.038	3401
906.155	3363
906.272	3264
906.389	3321
906.506	3233
906.623	3218
906.74	3283
906.857	3199
906.974	3214
907.091	3458
907.208	3526
907.324	3492
907.441	3386
907.557	3264
907.674	3233
907.79	3211
907.907	3291
908.023	3370
908.139	3389
908.256	3317
908.372	3401
908.488	3363
908.604	3214
908.72	3207
908.836	3310
908.952	3287
909.068	3382
909.184	3515
909.3	3431
909.415	3462
909.531	3473
909.647	3268
909.762	3275
909.878	3260
909.993	3386
910.108	3317
910.224	3336
910.339	3397
910.454	3332
910.57	3268
910.685	3214
910.8	3587
910.915	3526
911.03	3431
911.145	3249
911.259	3253
911.374	3313
911.489	3230
911.604	3218
911.718	3127
911.833	3142
911.947	3024
912.062	2956
912.176	3173
912.291	3211
912.405	3195
912.519	3439
912.633	3469
912.748	3306
912.862	3264
912.976	3161
913.09	3066
913.204	3142
913.318	3195
913.431	3348
913.545	3310
913.659	3405
913.772	3294
913.886	3233
914	3195
914.113	3351
914.226	3363
914.34	3359
914.453	3214
914.566	3412
914.68	3272
914.793	3283
914.906	3112
915.019	3119
915.132	3024
915.245	3142
915.358	3260
915.47	3230
915.583	3260
915.696	3283
915.809	3389
915.921	3401
916.034	3253
916.146	3272
916.259	3230
916.371	3416
916.483	3344
916.595	3283
916.708	3325
916.82	3325
916.932	3336
917.044	3325
917.156	3332
917.268	3279
917.38	3310
917.491	3291
917.603	3393
917.715	3469
917.826	3488
917.938	3363
918.049	3264
918.161	3405
918.272	3591
918.384	3580
918.495	3466
918.606	3321
918.717	3306
918.828	3336
918.939	3420
919.05	3294
919.161	3367
919.272	3188
919.383	3272
919.494	3473
919.604	3694
919.715	3538
919.826	3386
919.936	3431
920.047	3599
920.157	3549
920.267	3709
920.378	3587
920.488	3549
920.598	3778
920.708	3934
920.818	3842
920.928	3842
921.038	3994
921.148	4036
921.258	3686
921.368	3629
921.477	3576
921.587	3534
921.697	3450
921.806	3625
921.916	3492
922.025	3325
922.134	3367
922.244	3313
922.353	3424
922.462	3249
922.571	3195
922.68	3104
922.789	3066
922.898	3123
923.007	3089
923.116	3199
923.224	3138
923.333	3169
923.442	3123
923.55	3100
923.659	3123
923.767	3195
923.876	3131
923.984	3237
924.092	3123
924.201	3192
924.309	3226
924.417	3233
924.525	3176
924.633	3237
924.741	4204
924.849	3028
924.956	3291
925.064	3100
925.172	3036
925.279	3077
925.387	3176
925.494	3161
925.602	3393
925.709	3294
925.816	3169
925.924	3279
926.031	3355
926.138	3279
926.245	3355
926.352	3241
926.459	3393
926.566	3439
926.673	3275
926.779	3260
926.886	3237
926.993	3131
927.099	3116
927.206	3104
927.312	3119
927.419	3214
927.525	3192
927.631	3302
927.737	3131
927.843	3127
927.95	3055
928.056	3112
928.162	3184
928.267	3222
928.373	3892
928.479	3306
928.585	3062
928.69	3226
928.796	3272
928.901	3169
929.007	3028
929.112	3233
929.218	3195
929.323	3161
929.428	3127
929.533	3287
929.638	3116
929.743	3192
929.848	3249
929.953	3241
930.058	3154
930.163	2998
930.267	3017
930.372	3218
930.477	3055
930.581	3294
930.685	3184
930.79	3020
930.894	3146
930.998	3097
931.103	3272
931.207	2975
931.311	2941
931.415	2960
931.519	2781
931.623	2819
