Data from test_V78500241_1009.txt Node
Date: Fri Mar 25 16:22:11 CST 2022
User: usil
Spectrometer: V785-0024
Trigger mode: 0
Integration Time (sec): 4.000000E-1
Scans to average: 1
Nonlinearity correction enabled: false
Boxcar width: 0
Storing dark spectrum: false
XAxis mode: Wavelengths
Number of Pixels in Spectrum: 1024
>>>>>Begin Spectral Data<<<<<
801.071	2952
801.214	3001
801.356	2895
801.499	2933
801.641	2891
801.783	2914
801.926	3055
802.068	2990
802.211	3039
802.353	3005
802.496	2986
802.638	3039
802.78	3051
802.923	3104
803.065	3001
803.208	2895
803.35	2925
803.492	2941
803.635	2933
803.777	2781
803.919	2838
804.061	3222
804.204	2979
804.346	2914
804.488	2864
804.63	3001
804.773	2883
804.915	2891
805.057	3116
805.199	2994
805.341	2975
805.483	3043
805.626	3005
805.768	2971
805.91	3097
806.052	3138
806.194	3055
806.336	3249
806.478	3039
806.62	2975
806.762	2998
806.904	3062
807.046	3161
807.188	2986
807.33	2929
807.472	3024
807.614	2902
807.756	3013
807.898	2918
808.04	2887
808.182	2979
808.324	2967
808.465	2902
808.607	2922
808.749	2838
808.891	2868
809.033	3028
809.174	2956
809.316	2891
809.458	2906
809.6	2800
809.741	2766
809.883	2781
810.025	2807
810.166	2872
810.308	2819
810.45	2842
810.591	2819
810.733	2792
810.875	2811
811.016	2781
811.158	2762
811.299	2815
811.441	2922
811.582	2914
811.724	2830
811.865	2842
812.007	2914
812.148	2880
812.29	2895
812.431	2883
812.573	2941
812.714	2998
812.855	3024
812.997	3032
813.138	3108
813.279	3066
813.421	2990
813.562	2960
813.703	2868
813.845	2925
813.986	2804
814.127	2720
814.268	2819
814.41	2861
814.551	2815
814.692	2868
814.833	2838
814.974	2876
815.115	2948
815.256	2823
815.397	2807
815.539	2868
815.68	2777
815.821	2826
815.962	2952
816.103	2933
816.244	2864
816.385	2872
816.526	2979
816.666	2883
816.807	2746
816.948	2918
817.089	2914
817.23	2868
817.371	2743
817.512	2804
817.653	2815
817.793	2811
817.934	2872
818.075	2948
818.216	3005
818.356	3039
818.497	2845
818.638	2792
818.778	2815
818.919	2758
819.06	2743
819.2	2861
819.341	2807
819.481	2785
819.622	2952
819.762	3108
819.903	3051
820.043	2956
820.184	2906
820.324	2887
820.465	3005
820.605	3032
820.746	3032
820.886	2902
821.026	3119
821.167	3135
821.307	3291
821.447	3298
821.588	3237
821.728	3211
821.868	3195
822.008	3077
822.149	3165
822.289	3203
822.429	3077
822.569	3093
822.709	3169
822.849	3039
822.99	3032
823.13	3173
823.27	3207
823.41	3142
823.55	3146
823.69	3165
823.83	3211
823.97	3119
824.11	3024
824.25	2994
824.389	3108
824.529	3108
824.669	3085
824.809	3184
824.949	3249
825.089	3245
825.228	3173
825.368	3013
825.508	2925
825.648	2948
825.787	2994
825.927	3024
826.067	2948
826.206	2960
826.346	3077
826.485	3093
826.625	3123
826.765	3256
826.904	3199
827.044	2952
827.183	2929
827.323	2887
827.462	2952
827.601	2941
827.741	2960
827.88	2956
828.02	2804
828.159	2952
828.298	3066
828.437	3123
828.577	3055
828.716	3230
828.855	3077
828.994	2971
829.134	2891
829.273	2944
829.412	2887
829.551	2880
829.69	2910
829.829	2979
829.968	3119
830.107	3051
830.246	3001
830.385	2918
830.524	2872
830.663	2830
830.802	2716
830.941	2632
831.08	2667
831.219	2773
831.357	2731
831.496	2948
831.635	2727
831.774	2632
831.913	2651
832.051	2511
832.19	2583
832.329	2659
832.467	2560
832.606	2484
832.744	2613
832.883	2568
833.022	2590
833.16	2636
833.299	2682
833.437	2701
833.576	2689
833.714	2724
833.852	2766
833.991	2769
834.129	2864
834.267	2815
834.406	2804
834.544	2861
834.682	2849
834.821	2853
834.959	3058
835.097	2887
835.235	3100
835.373	2967
835.511	3001
835.65	2960
835.788	2937
835.926	2864
836.064	2815
836.202	2834
836.34	3089
836.478	3135
836.615	3028
836.753	3131
836.891	3195
837.029	3184
837.167	3108
837.305	3116
837.443	3070
837.58	2948
837.718	3165
837.856	3089
837.993	3001
838.131	3135
838.269	3081
838.406	3074
838.544	3074
838.681	2914
838.819	2895
838.956	2792
839.094	2807
839.231	2902
839.369	3020
839.506	3348
839.643	3218
839.781	3036
839.918	2971
840.055	3032
840.193	3036
840.33	3089
840.467	3093
840.604	3150
840.742	3370
840.879	3043
841.016	3077
841.153	3108
841.29	3313
841.427	3302
841.564	3245
841.701	3283
841.838	3218
841.975	3138
842.112	3226
842.249	3112
842.385	3009
842.522	3272
842.659	3055
842.796	3066
842.933	3123
843.069	3066
843.206	3013
843.343	3131
843.479	3081
843.616	3146
843.752	2842
843.889	2868
844.025	3081
844.162	2838
844.298	3077
844.435	2963
844.571	2883
844.708	3097
844.844	3203
844.98	3256
845.117	3199
845.253	3070
845.389	3043
845.525	3112
845.661	3085
845.798	3032
845.934	3112
846.07	3081
846.206	3226
846.342	3370
846.478	3256
846.614	3131
846.75	3062
846.886	3055
847.022	3260
847.158	3184
847.294	3207
847.429	3268
847.565	3253
847.701	3542
847.837	3047
847.972	3024
848.108	3173
848.244	3184
848.379	3043
848.515	3009
848.65	2967
848.786	3020
848.921	3039
849.057	3116
849.192	3138
849.328	3100
849.463	3108
849.598	3119
849.734	3070
849.869	3028
850.004	2941
850.14	2979
850.275	2952
850.41	2899
850.545	2960
850.68	2963
850.815	2998
850.95	3028
851.085	3207
851.22	3127
851.355	3077
851.49	3009
851.625	3039
851.76	3066
851.895	2986
852.03	2944
852.165	3043
852.299	3131
852.434	3222
852.569	3176
852.703	3218
852.838	3287
852.973	3382
853.107	3412
853.242	3180
853.376	3074
853.511	3047
853.645	3070
853.78	3233
853.914	3180
854.048	3138
854.183	3081
854.317	3135
854.451	3332
854.585	3123
854.72	3104
854.854	3256
854.988	3135
855.122	3169
855.256	3024
855.39	3192
855.524	3287
855.658	3230
855.792	3203
855.926	3199
856.06	3230
856.194	3313
856.327	3173
856.461	3131
856.595	3127
856.729	3135
856.862	3230
856.996	3218
857.13	3253
857.263	3268
857.397	3294
857.53	3176
857.664	3195
857.797	3291
857.931	3321
858.064	3199
858.197	3260
858.331	3188
858.464	3104
858.597	3024
858.731	3180
858.864	3176
858.997	3116
859.13	3154
859.263	3192
859.396	3249
859.529	3116
859.662	3104
859.795	3066
859.928	3211
860.061	3306
860.194	3329
860.327	3161
860.46	3123
860.592	3287
860.725	3294
860.858	3222
860.99	3131
861.123	3074
861.256	3097
861.388	3161
861.521	3835
861.653	3032
861.786	3055
861.918	3017
862.05	3097
862.183	3135
862.315	3203
862.447	3230
862.58	3116
862.712	2956
862.844	2895
862.976	3066
863.108	3062
863.24	3477
863.372	2933
863.504	3001
863.636	2982
863.768	3043
863.9	3028
864.032	2906
864.164	3009
864.296	3058
864.428	3081
864.559	3131
864.691	3077
864.823	3077
864.954	3028
865.086	3077
865.217	3036
865.349	2960
865.48	2982
865.612	3081
865.743	3161
865.875	2998
866.006	2975
866.137	3005
866.269	2975
866.4	2956
866.531	2902
866.662	2941
866.793	2922
866.924	2914
867.055	2986
867.186	2960
867.317	2922
867.448	2857
867.579	2876
867.71	2861
867.841	2845
867.972	2922
868.103	2941
868.233	2922
868.364	2902
868.495	2910
868.625	3089
868.756	3203
868.886	3032
869.017	3036
869.147	3214
869.278	3146
869.408	3039
869.539	3062
869.669	3127
869.799	3058
869.929	3161
870.06	3131
870.19	3359
870.32	3325
870.45	3351
870.58	3428
870.71	3504
870.84	3458
870.97	3325
871.1	3249
871.23	3511
871.36	3447
871.489	3386
871.619	3412
871.749	3382
871.879	3454
872.008	3481
872.138	3386
872.267	3283
872.397	3176
872.526	3131
872.656	3047
872.785	3100
872.915	3253
873.044	3340
873.173	3218
873.303	3302
873.432	3260
873.561	3237
873.69	3199
873.819	3161
873.948	3249
874.077	3142
874.206	3085
874.335	3119
874.464	3226
874.593	3340
874.722	3264
874.851	3409
874.979	3382
875.108	3329
875.237	3146
875.365	3214
875.494	3199
875.623	3260
875.751	3138
875.88	3142
876.008	3207
876.136	3245
876.265	3374
876.393	3538
876.521	3420
876.65	3420
876.778	3351
876.906	3268
877.034	3222
877.162	3253
877.29	3184
877.418	3287
877.546	3279
877.674	3275
877.802	3268
877.93	3222
878.058	3173
878.185	3108
878.313	3203
878.441	3226
878.568	3093
878.696	3188
878.824	3249
878.951	3329
879.079	3450
879.206	3652
879.333	3473
879.461	3382
879.588	3393
879.715	3481
879.842	3622
879.97	3393
880.097	3169
880.224	3150
880.351	3192
880.478	3241
880.605	3233
880.732	3211
880.859	3477
880.986	3310
881.112	3332
881.239	3233
881.366	3138
881.493	3058
881.619	3077
881.746	3123
881.872	3093
881.999	3127
882.125	3173
882.252	3268
882.378	3317
882.505	3469
882.631	3294
882.757	3199
882.883	3260
883.01	3222
883.136	3173
883.262	3112
883.388	3142
883.514	3329
883.64	3367
883.766	3340
883.892	3222
884.018	3233
884.143	3443
884.269	3553
884.395	3203
884.52	3203
884.646	3188
884.772	3180
884.897	3089
885.023	3249
885.148	3359
885.274	3420
885.399	3348
885.524	3268
885.65	3294
885.775	3359
885.9	3313
886.025	3428
886.15	3370
886.275	3344
886.4	3249
886.525	3344
886.65	3283
886.775	3275
886.9	3549
887.025	3648
887.149	3450
887.274	3294
887.399	3207
887.523	3176
887.648	3230
887.773	3253
887.897	3420
888.021	3416
888.146	3306
888.27	3450
888.395	3553
888.519	3458
888.643	3466
888.767	3458
888.891	3336
889.015	3241
889.139	3298
889.263	3245
889.387	3416
889.511	3553
889.635	3428
889.759	3313
889.883	3340
890.006	3351
890.13	3511
890.254	3302
890.377	3382
890.501	3214
890.624	3226
890.748	3321
890.871	3211
890.995	3150
891.118	3104
891.241	3184
891.364	3222
891.488	3313
891.611	3165
891.734	3249
891.857	3283
891.98	3233
892.103	3359
892.226	3321
892.349	3249
892.471	3150
892.594	3256
892.717	3321
892.839	3268
892.962	3291
893.085	3382
893.207	3317
893.33	3165
893.452	3226
893.575	3367
893.697	3245
893.819	3504
893.941	3549
894.064	3439
894.186	3272
894.308	3321
894.43	3431
894.552	3526
894.674	3526
894.796	3340
894.918	3321
895.04	3279
895.161	3397
895.283	3389
895.405	3321
895.526	3386
895.648	3420
895.769	3477
895.891	3500
896.012	3458
896.134	3500
896.255	3405
896.376	3393
896.498	3325
896.619	3454
896.74	3405
896.861	3416
896.982	3713
897.103	3831
897.224	3625
897.345	3549
897.466	3420
897.587	3538
897.708	3622
897.828	3545
897.949	3477
898.07	3336
898.19	3397
898.311	3618
898.431	3485
898.552	3485
898.672	3622
898.792	3625
898.913	3511
899.033	3420
899.153	3275
899.273	3237
899.393	3306
899.513	3321
899.633	3325
899.753	3359
899.873	3317
899.993	3393
900.113	3363
900.232	3420
900.352	3344
900.472	3302
900.591	3241
900.711	3287
900.83	3260
900.95	3443
901.069	3488
901.189	3370
901.308	3169
901.427	3150
901.546	3214
901.665	3313
901.784	3321
901.904	3207
902.023	3173
902.141	3024
902.26	2990
902.379	3119
902.498	3119
902.617	3074
902.735	3230
902.854	3272
902.973	3233
903.091	3058
903.21	3055
903.328	3146
903.446	3123
903.565	3097
903.683	3207
903.801	3157
903.919	3298
904.038	3291
904.156	3203
904.274	3287
904.392	3272
904.51	3313
904.627	3332
904.745	3405
904.863	3534
904.981	3253
905.098	3199
905.216	3233
905.334	3287
905.451	3321
905.569	3321
905.686	3447
905.803	3466
905.921	3287
906.038	3416
906.155	3382
906.272	3294
906.389	3344
906.506	3230
906.623	3272
906.74	3283
906.857	3176
906.974	3249
907.091	3469
907.208	3557
907.324	3500
907.441	3382
907.557	3230
907.674	3241
907.79	3211
907.907	3306
908.023	3367
908.139	3435
908.256	3355
908.372	3386
908.488	3386
908.604	3268
908.72	3237
908.836	3294
908.952	3279
909.068	3348
909.184	3500
909.3	3374
909.415	3549
909.531	3462
909.647	3272
909.762	3302
909.878	3249
909.993	3370
910.108	3370
910.224	3317
910.339	3405
910.454	3294
910.57	3294
910.685	3249
910.8	3614
910.915	3526
911.03	3424
911.145	3260
911.259	3268
911.374	3378
911.489	3260
911.604	3245
911.718	3119
911.833	3138
911.947	3051
912.062	3013
912.176	3188
912.291	3222
912.405	3214
912.519	3466
912.633	3454
912.748	3336
912.862	3253
912.976	3169
913.09	3077
913.204	3169
913.318	3211
913.431	3367
913.545	3348
913.659	3409
913.772	3363
913.886	3260
914	3230
914.113	3359
914.226	3428
914.34	3332
914.453	3222
914.566	3481
914.68	3298
914.793	3317
914.906	3150
915.019	3104
915.132	3039
915.245	3165
915.358	3226
915.47	3256
915.583	3283
915.696	3256
915.809	3424
915.921	3424
916.034	3241
916.146	3260
916.259	3226
916.371	3393
916.483	3367
916.595	3294
916.708	3336
916.82	3325
916.932	3340
917.044	3344
917.156	3351
917.268	3260
917.38	3294
917.491	3291
917.603	3443
917.715	3412
917.826	3466
917.938	3386
918.049	3256
918.161	3477
918.272	3584
918.384	3587
918.495	3515
918.606	3359
918.717	3245
918.828	3409
918.939	3416
919.05	3313
919.161	3359
919.272	3165
919.383	3275
919.494	3488
919.604	3667
919.715	3466
919.826	3374
919.936	3462
920.047	3564
920.157	3568
920.267	3740
920.378	3599
920.488	3526
920.598	3778
920.708	3968
920.818	3861
920.928	3835
921.038	3994
921.148	3994
921.258	3743
921.368	3637
921.477	3576
921.587	3557
921.697	3420
921.806	3633
921.916	3511
922.025	3370
922.134	3378
922.244	3283
922.353	3412
922.462	3268
922.571	3256
922.68	3119
922.789	3108
922.898	3135
923.007	3123
923.116	3218
923.224	3192
923.333	3184
923.442	3077
923.55	3085
923.659	3146
923.767	3207
923.876	3131
923.984	3241
924.092	3142
924.201	3192
924.309	3256
924.417	3260
924.525	3207
924.633	3230
924.741	4227
924.849	3055
924.956	3253
925.064	3116
925.172	3062
925.279	3081
925.387	3199
925.494	3241
925.602	3370
925.709	3325
925.816	3214
925.924	3287
926.031	3351
926.138	3332
926.245	3351
926.352	3245
926.459	3405
926.566	3462
926.673	3336
926.779	3226
926.886	3272
926.993	3165
927.099	3138
927.206	3116
927.312	3100
927.419	3214
927.525	3207
927.631	3264
927.737	3097
927.843	3154
927.95	3047
928.056	3142
928.162	3119
928.267	3256
928.373	3884
928.479	3317
928.585	3074
928.69	3195
928.796	3306
928.901	3146
929.007	3062
929.112	3211
929.218	3150
929.323	3157
929.428	3169
929.533	3279
929.638	3116
929.743	3142
929.848	3279
929.953	3180
930.058	3165
930.163	3024
930.267	3051
930.372	3214
930.477	3039
930.581	3302
930.685	3195
930.79	3077
930.894	3116
930.998	3089
931.103	3253
931.207	2986
931.311	2960
931.415	2933
931.519	2769
931.623	2826
