Data from test_V78500241_2020.txt Node
Date: Fri Mar 25 16:29:11 CST 2022
User: usil
Spectrometer: V785-0024
Trigger mode: 0
Integration Time (sec): 4.000000E-1
Scans to average: 1
Nonlinearity correction enabled: false
Boxcar width: 0
Storing dark spectrum: false
XAxis mode: Wavelengths
Number of Pixels in Spectrum: 1024
>>>>>Begin Spectral Data<<<<<
801.071	2910
801.214	2952
801.356	2864
801.499	2853
801.641	2838
801.783	2899
801.926	3028
802.068	2944
802.211	2994
802.353	3024
802.496	2948
802.638	2998
802.78	3039
802.923	3047
803.065	2986
803.208	2902
803.35	2929
803.492	2929
803.635	2937
803.777	2777
803.919	2845
804.061	3154
804.204	2952
804.346	2906
804.488	2849
804.63	2986
804.773	2880
804.915	2891
805.057	3020
805.199	2876
805.341	2956
805.483	3032
805.626	2979
805.768	2982
805.91	3039
806.052	3089
806.194	3047
806.336	3218
806.478	3009
806.62	2918
806.762	2956
806.904	3032
807.046	3161
807.188	2979
807.33	2876
807.472	2971
807.614	2880
807.756	2948
807.898	2925
808.04	2861
808.182	2948
808.324	2963
808.465	2868
808.607	2899
808.749	2777
808.891	2838
809.033	2952
809.174	2963
809.316	2922
809.458	2872
809.6	2766
809.741	2792
809.883	2766
810.025	2842
810.166	2815
810.308	2815
810.45	2845
810.591	2766
810.733	2788
810.875	2842
811.016	2777
811.158	2739
811.299	2766
811.441	2922
811.582	2891
811.724	2842
811.865	2804
812.007	2895
812.148	2864
812.29	2823
812.431	2861
812.573	2933
812.714	2979
812.855	3043
812.997	3028
813.138	3123
813.279	2986
813.421	2948
813.562	2967
813.703	2861
813.845	2883
813.986	2735
814.127	2724
814.268	2815
814.41	2826
814.551	2815
814.692	2842
814.833	2826
814.974	2914
815.115	2937
815.256	2842
815.397	2834
815.539	2834
815.68	2788
815.821	2769
815.962	2937
816.103	2941
816.244	2872
816.385	2853
816.526	2937
816.666	2925
816.807	2735
816.948	2861
817.089	2864
817.23	2845
817.371	2769
817.512	2788
817.653	2861
817.793	2804
817.934	2864
818.075	2963
818.216	2948
818.356	3005
818.497	2880
818.638	2788
818.778	2823
818.919	2754
819.06	2785
819.2	2880
819.341	2823
819.481	2785
819.622	2925
819.762	3097
819.903	3043
820.043	2952
820.184	2887
820.324	2929
820.465	2998
820.605	3032
820.746	3020
820.886	2906
821.026	3104
821.167	3176
821.307	3260
821.447	3291
821.588	3184
821.728	3188
821.868	3195
822.008	3093
822.149	3203
822.289	3233
822.429	3077
822.569	3116
822.709	3146
822.849	3028
822.99	3058
823.13	3138
823.27	3203
823.41	3127
823.55	3142
823.69	3146
823.83	3176
823.97	3062
824.11	2982
824.25	2998
824.389	3070
824.529	3085
824.669	3070
824.809	3192
824.949	3214
825.089	3226
825.228	3138
825.368	2975
825.508	2944
825.648	2986
825.787	2979
825.927	3043
826.067	2956
826.206	2979
826.346	3039
826.485	3062
826.625	3116
826.765	3260
826.904	3184
827.044	3017
827.183	2952
827.323	2853
827.462	2975
827.601	2922
827.741	2956
827.88	2925
828.02	2883
828.159	2929
828.298	2982
828.437	3131
828.577	3039
828.716	3218
828.855	3032
828.994	2872
829.134	2864
829.273	2941
829.412	2830
829.551	2891
829.69	2887
829.829	2975
829.968	3123
830.107	2998
830.246	3005
830.385	2922
830.524	2861
830.663	2823
830.802	2743
830.941	2640
831.08	2613
831.219	2746
831.357	2712
831.496	2914
831.635	2720
831.774	2621
831.913	2632
832.051	2564
832.19	2583
832.329	2693
832.467	2511
832.606	2495
832.744	2556
832.883	2575
833.022	2594
833.16	2632
833.299	2686
833.437	2648
833.576	2708
833.714	2701
833.852	2686
833.991	2727
834.129	2838
834.267	2800
834.406	2792
834.544	2868
834.682	2880
834.821	2857
834.959	3051
835.097	2895
835.235	3055
835.373	2963
835.511	3043
835.65	2922
835.788	2956
835.926	2834
836.064	2792
836.202	2819
836.34	3089
836.478	3123
836.615	3028
836.753	3131
836.891	3184
837.029	3150
837.167	3142
837.305	3039
837.443	3036
837.58	2914
837.718	3131
837.856	3028
837.993	3013
838.131	3085
838.269	3081
838.406	3039
838.544	3047
838.681	2937
838.819	2902
838.956	2800
839.094	2785
839.231	2937
839.369	2982
839.506	3378
839.643	3203
839.781	3005
839.918	2952
840.055	3039
840.193	3032
840.33	3066
840.467	3127
840.604	3146
840.742	3378
840.879	3058
841.016	3013
841.153	3123
841.29	3382
841.427	3287
841.564	3283
841.701	3298
841.838	3180
841.975	3157
842.112	3184
842.249	3062
842.385	3036
842.522	3237
842.659	3093
842.796	3089
842.933	3108
843.069	3032
843.206	3020
843.343	3207
843.479	3089
843.616	3138
843.752	2880
843.889	2864
844.025	2998
844.162	2845
844.298	3070
844.435	2937
844.571	2937
844.708	3066
844.844	3173
844.98	3203
845.117	3173
845.253	3032
845.389	2990
845.525	3108
845.661	3089
845.798	2994
845.934	3142
846.07	3032
846.206	3237
846.342	3268
846.478	3188
846.614	3097
846.75	3009
846.886	3013
847.022	3214
847.158	3142
847.294	3150
847.429	3226
847.565	3218
847.701	3488
847.837	3020
847.972	2975
848.108	3123
848.244	3157
848.379	2998
848.515	2918
848.65	2902
848.786	2944
848.921	3036
849.057	3089
849.192	3131
849.328	3047
849.463	3100
849.598	3085
849.734	3001
849.869	2948
850.004	2918
850.14	2956
850.275	2914
850.41	2819
850.545	2918
850.68	2906
850.815	2982
850.95	3001
851.085	3165
851.22	3066
851.355	3028
851.49	2971
851.625	2982
851.76	3013
851.895	2902
852.03	2914
852.165	3039
852.299	3100
852.434	3211
852.569	3112
852.703	3161
852.838	3233
852.973	3321
853.107	3355
853.242	3116
853.376	3062
853.511	2963
853.645	3051
853.78	3218
853.914	3116
854.048	3081
854.183	3074
854.317	3123
854.451	3279
854.585	3104
854.72	3077
854.854	3275
854.988	3009
855.122	3081
855.256	3001
855.39	3116
855.524	3214
855.658	3165
855.792	3135
855.926	3169
856.06	3207
856.194	3279
856.327	3165
856.461	3058
856.595	3085
856.729	3058
856.862	3135
856.996	3127
857.13	3157
857.263	3214
857.397	3287
857.53	3093
857.664	3180
857.797	3207
857.931	3253
858.064	3165
858.197	3184
858.331	3157
858.464	3100
858.597	2971
858.731	3097
858.864	3062
858.997	3066
859.13	3157
859.263	3180
859.396	3150
859.529	3062
859.662	3058
859.795	3024
859.928	3135
860.061	3241
860.194	3264
860.327	3150
860.46	3116
860.592	3214
860.725	3237
860.858	3268
860.99	3108
861.123	3028
861.256	3058
861.388	3150
861.521	3800
861.653	3017
861.786	2986
861.918	3001
862.05	3081
862.183	3116
862.315	3116
862.447	3184
862.58	3055
862.712	2986
862.844	2849
862.976	2994
863.108	3020
863.24	3329
863.372	2918
863.504	2948
863.636	2895
863.768	3032
863.9	2952
864.032	2902
864.164	2933
864.296	2941
864.428	3055
864.559	3097
864.691	3017
864.823	3066
864.954	3047
865.086	3024
865.217	2971
865.349	2948
865.48	2967
865.612	3020
865.743	3154
865.875	2952
866.006	2960
866.137	2975
866.269	2929
866.4	2899
866.531	2933
866.662	2933
866.793	2853
866.924	2887
867.055	2948
867.186	2929
867.317	2899
867.448	2838
867.579	2823
867.71	2853
867.841	2788
867.972	2902
868.103	2910
868.233	2883
868.364	2895
868.495	2880
868.625	3058
868.756	3142
868.886	2963
869.017	3039
869.147	3161
869.278	3138
869.408	3043
869.539	2994
869.669	3085
869.799	3013
869.929	3154
870.06	3093
870.19	3294
870.32	3264
870.45	3313
870.58	3378
870.71	3401
870.84	3443
870.97	3275
871.1	3233
871.23	3492
871.36	3435
871.489	3351
871.619	3382
871.749	3401
871.879	3466
872.008	3466
872.138	3363
872.267	3260
872.397	3142
872.526	3070
872.656	3013
872.785	3051
872.915	3253
873.044	3294
873.173	3222
873.303	3230
873.432	3230
873.561	3256
873.69	3157
873.819	3100
873.948	3188
874.077	3081
874.206	3024
874.335	3123
874.464	3230
874.593	3325
874.722	3230
874.851	3355
874.979	3348
875.108	3279
875.237	3161
875.365	3123
875.494	3173
875.623	3256
875.751	3066
875.88	3104
876.008	3230
876.136	3203
876.265	3332
876.393	3473
876.521	3401
876.65	3363
876.778	3351
876.906	3237
877.034	3192
877.162	3207
877.29	3188
877.418	3268
877.546	3207
877.674	3241
877.802	3233
877.93	3188
878.058	3188
878.185	3097
878.313	3195
878.441	3211
878.568	3020
878.696	3169
878.824	3214
878.951	3283
879.079	3447
879.206	3584
879.333	3416
879.461	3317
879.588	3340
879.715	3443
879.842	3564
879.97	3329
880.097	3169
880.224	3108
880.351	3188
880.478	3218
880.605	3188
880.732	3211
880.859	3507
880.986	3317
881.112	3298
881.239	3165
881.366	3062
881.493	3024
881.619	2994
881.746	3089
881.872	3112
881.999	3104
882.125	3123
882.252	3253
882.378	3291
882.505	3412
882.631	3302
882.757	3146
882.883	3180
883.01	3192
883.136	3176
883.262	3116
883.388	3127
883.514	3313
883.64	3351
883.766	3287
883.892	3180
884.018	3241
884.143	3393
884.269	3515
884.395	3199
884.52	3146
884.646	3199
884.772	3108
884.897	3097
885.023	3195
885.148	3329
885.274	3428
885.399	3329
885.524	3294
885.65	3283
885.775	3313
885.9	3253
886.025	3405
886.15	3340
886.275	3313
886.4	3241
886.525	3283
886.65	3264
886.775	3302
886.9	3485
887.025	3618
887.149	3386
887.274	3283
887.399	3176
887.523	3176
887.648	3154
887.773	3211
887.897	3329
888.021	3431
888.146	3306
888.27	3431
888.395	3530
888.519	3431
888.643	3435
888.767	3428
888.891	3302
889.015	3222
889.139	3233
889.263	3253
889.387	3405
889.511	3492
889.635	3454
889.759	3272
889.883	3310
890.006	3374
890.13	3488
890.254	3287
890.377	3340
890.501	3195
890.624	3157
890.748	3283
890.871	3184
890.995	3070
891.118	3055
891.241	3203
891.364	3233
891.488	3287
891.611	3169
891.734	3188
891.857	3283
891.98	3230
892.103	3310
892.226	3222
892.349	3199
892.471	3119
892.594	3230
892.717	3287
892.839	3272
892.962	3275
893.085	3340
893.207	3275
893.33	3161
893.452	3214
893.575	3306
893.697	3249
893.819	3424
893.941	3485
894.064	3431
894.186	3275
894.308	3249
894.43	3431
894.552	3534
894.674	3485
894.796	3264
894.918	3249
895.04	3317
895.161	3397
895.283	3370
895.405	3283
895.526	3344
895.648	3409
895.769	3416
895.891	3431
896.012	3424
896.134	3462
896.255	3370
896.376	3359
896.498	3351
896.619	3409
896.74	3370
896.861	3382
896.982	3660
897.103	3808
897.224	3580
897.345	3534
897.466	3378
897.587	3515
897.708	3572
897.828	3542
897.949	3458
898.07	3275
898.19	3389
898.311	3538
898.431	3431
898.552	3504
898.672	3557
898.792	3545
898.913	3523
899.033	3412
899.153	3306
899.273	3195
899.393	3310
899.513	3298
899.633	3298
899.753	3329
899.873	3298
899.993	3332
900.113	3287
900.232	3367
900.352	3313
900.472	3249
900.591	3150
900.711	3260
900.83	3287
900.95	3412
901.069	3526
901.189	3348
901.308	3199
901.427	3135
901.546	3180
901.665	3264
901.784	3325
901.904	3173
902.023	3127
902.141	3013
902.26	3005
902.379	3142
902.498	3062
902.617	3055
902.735	3207
902.854	3211
902.973	3150
903.091	3047
903.21	3039
903.328	3112
903.446	3085
903.565	3116
903.683	3173
903.801	3131
903.919	3230
904.038	3298
904.156	3173
904.274	3245
904.392	3207
904.51	3268
904.627	3332
904.745	3401
904.863	3485
904.981	3245
905.098	3161
905.216	3237
905.334	3283
905.451	3310
905.569	3302
905.686	3412
905.803	3435
905.921	3260
906.038	3428
906.155	3355
906.272	3260
906.389	3321
906.506	3233
906.623	3268
906.74	3264
906.857	3184
906.974	3245
907.091	3458
907.208	3542
907.324	3439
907.441	3378
907.557	3214
907.674	3214
907.79	3199
907.907	3188
908.023	3336
908.139	3393
908.256	3340
908.372	3389
908.488	3359
908.604	3203
908.72	3214
908.836	3264
908.952	3317
909.068	3279
909.184	3469
909.3	3389
909.415	3511
909.531	3420
909.647	3230
909.762	3294
909.878	3199
909.993	3363
910.108	3291
910.224	3317
910.339	3389
910.454	3310
910.57	3272
910.685	3237
910.8	3591
910.915	3534
911.03	3439
911.145	3256
911.259	3275
911.374	3291
911.489	3253
911.604	3245
911.718	3138
911.833	3135
911.947	3036
912.062	2952
912.176	3146
912.291	3203
912.405	3165
912.519	3378
912.633	3447
912.748	3310
912.862	3237
912.976	3188
913.09	3051
913.204	3138
913.318	3214
913.431	3351
913.545	3294
913.659	3397
913.772	3340
913.886	3207
914	3188
914.113	3367
914.226	3412
914.34	3367
914.453	3245
914.566	3439
914.68	3264
914.793	3294
914.906	3138
915.019	3146
915.132	3093
915.245	3176
915.358	3245
915.47	3230
915.583	3268
915.696	3306
915.809	3412
915.921	3454
916.034	3264
916.146	3260
916.259	3241
916.371	3454
916.483	3382
916.595	3302
916.708	3332
916.82	3401
916.932	3374
917.044	3378
917.156	3389
917.268	3291
917.38	3340
917.491	3325
917.603	3454
917.715	3462
917.826	3435
917.938	3412
918.049	3298
918.161	3515
918.272	3652
918.384	3614
918.495	3561
918.606	3344
918.717	3313
918.828	3397
918.939	3454
919.05	3329
919.161	3393
919.272	3203
919.383	3332
919.494	3572
919.604	3743
919.715	3523
919.826	3454
919.936	3469
920.047	3622
920.157	3561
920.267	3804
920.378	3618
920.488	3591
920.598	3819
920.708	3945
920.818	3861
920.928	3896
921.038	4006
921.148	4055
921.258	3759
921.368	3671
921.477	3591
921.587	3584
921.697	3469
921.806	3682
921.916	3576
922.025	3378
922.134	3393
922.244	3363
922.353	3454
922.462	3332
922.571	3233
922.68	3146
922.789	3085
922.898	3207
923.007	3142
923.116	3230
923.224	3195
923.333	3218
923.442	3169
923.55	3127
923.659	3180
923.767	3188
923.876	3169
923.984	3256
924.092	3142
924.201	3233
924.309	3241
924.417	3294
924.525	3211
924.633	3241
924.741	4211
924.849	3108
924.956	3275
925.064	3154
925.172	3089
925.279	3146
925.387	3192
925.494	3211
925.602	3359
925.709	3386
925.816	3222
925.924	3329
926.031	3397
926.138	3348
926.245	3359
926.352	3268
926.459	3428
926.566	3523
926.673	3367
926.779	3260
926.886	3283
926.993	3241
927.099	3192
927.206	3138
927.312	3157
927.419	3275
927.525	3230
927.631	3260
927.737	3138
927.843	3165
927.95	3070
928.056	3199
928.162	3195
928.267	3294
928.373	3892
928.479	3329
928.585	3066
928.69	3264
928.796	3294
928.901	3199
929.007	3074
929.112	3211
929.218	3237
929.323	3142
929.428	3195
929.533	3355
929.638	3116
929.743	3249
929.848	3272
929.953	3218
930.058	3188
930.163	3001
930.267	3047
930.372	3256
930.477	3066
930.581	3313
930.685	3184
930.79	3085
930.894	3138
930.998	3112
931.103	3287
931.207	2982
931.311	2982
931.415	2948
931.519	2792
931.623	2845
