Data from test_V78500241_1904.txt Node
Date: Fri Mar 25 16:28:23 CST 2022
User: usil
Spectrometer: V785-0024
Trigger mode: 0
Integration Time (sec): 4.000000E-1
Scans to average: 1
Nonlinearity correction enabled: false
Boxcar width: 0
Storing dark spectrum: false
XAxis mode: Wavelengths
Number of Pixels in Spectrum: 1024
>>>>>Begin Spectral Data<<<<<
801.071	2948
801.214	2960
801.356	2902
801.499	2918
801.641	2895
801.783	2971
801.926	3043
802.068	2982
802.211	3024
802.353	3074
802.496	2971
802.638	3013
802.78	3047
802.923	3058
803.065	3005
803.208	2914
803.35	2937
803.492	2963
803.635	2906
803.777	2766
803.919	2853
804.061	3176
804.204	2971
804.346	2925
804.488	2849
804.63	3013
804.773	2868
804.915	2922
805.057	3085
805.199	2971
805.341	3001
805.483	3055
805.626	3036
805.768	3001
805.91	3085
806.052	3146
806.194	3039
806.336	3233
806.478	3032
806.62	2971
806.762	3013
806.904	3039
807.046	3195
807.188	3013
807.33	2922
807.472	3017
807.614	2910
807.756	3001
807.898	2918
808.04	2880
808.182	3013
808.324	3020
808.465	2895
808.607	2891
808.749	2830
808.891	2883
809.033	2971
809.174	2998
809.316	2914
809.458	2933
809.6	2773
809.741	2796
809.883	2811
810.025	2853
810.166	2864
810.308	2861
810.45	2887
810.591	2804
810.733	2830
810.875	2849
811.016	2781
811.158	2781
811.299	2849
811.441	2952
811.582	2910
811.724	2849
811.865	2864
812.007	2967
812.148	2910
812.29	2872
812.431	2902
812.573	2922
812.714	3047
812.855	3062
812.997	3062
813.138	3127
813.279	2979
813.421	3017
813.562	2979
813.703	2883
813.845	2902
813.986	2773
814.127	2712
814.268	2830
814.41	2872
814.551	2864
814.692	2872
814.833	2842
814.974	2918
815.115	2990
815.256	2861
815.397	2823
815.539	2868
815.68	2785
815.821	2826
815.962	2956
816.103	2986
816.244	2883
816.385	2872
816.526	3013
816.666	2971
816.807	2777
816.948	2929
817.089	2925
817.23	2826
817.371	2819
817.512	2815
817.653	2834
817.793	2823
817.934	2891
818.075	3017
818.216	3001
818.356	3047
818.497	2880
818.638	2804
818.778	2838
818.919	2849
819.06	2766
819.2	2906
819.341	2800
819.481	2807
819.622	2925
819.762	3097
819.903	3081
820.043	2944
820.184	2902
820.324	2937
820.465	3005
820.605	3001
820.746	3005
820.886	2929
821.026	3093
821.167	3165
821.307	3279
821.447	3272
821.588	3283
821.728	3176
821.868	3203
822.008	3085
822.149	3203
822.289	3214
822.429	3123
822.569	3112
822.709	3192
822.849	3055
822.99	3119
823.13	3165
823.27	3203
823.41	3131
823.55	3199
823.69	3127
823.83	3176
823.97	3131
824.11	2994
824.25	3001
824.389	3089
824.529	3116
824.669	3077
824.809	3192
824.949	3317
825.089	3222
825.228	3161
825.368	3009
825.508	2967
825.648	3043
825.787	3020
825.927	3013
826.067	2998
826.206	2960
826.346	3062
826.485	3085
826.625	3142
826.765	3279
826.904	3214
827.044	3005
827.183	2971
827.323	2868
827.462	3001
827.601	2914
827.741	2933
827.88	2948
828.02	2876
828.159	3005
828.298	3070
828.437	3108
828.577	3081
828.716	3264
828.855	3077
828.994	2941
829.134	2918
829.273	2944
829.412	2899
829.551	2883
829.69	2902
829.829	2994
829.968	3165
830.107	3024
830.246	3039
830.385	2918
830.524	2883
830.663	2826
830.802	2750
830.941	2651
831.08	2705
831.219	2796
831.357	2796
831.496	2952
831.635	2739
831.774	2663
831.913	2693
832.051	2568
832.19	2564
832.329	2701
832.467	2526
832.606	2469
832.744	2617
832.883	2583
833.022	2598
833.16	2659
833.299	2655
833.437	2712
833.576	2697
833.714	2750
833.852	2746
833.991	2800
834.129	2845
834.267	2861
834.406	2811
834.544	2891
834.682	2883
834.821	2880
834.959	3085
835.097	2902
835.235	3097
835.373	3009
835.511	3001
835.65	2986
835.788	2967
835.926	2826
836.064	2800
836.202	2880
836.34	3077
836.478	3161
836.615	3051
836.753	3127
836.891	3237
837.029	3199
837.167	3119
837.305	3074
837.443	3066
837.58	2998
837.718	3154
837.856	3043
837.993	3051
838.131	3154
838.269	3097
838.406	3108
838.544	3108
838.681	2937
838.819	2925
838.956	2826
839.094	2864
839.231	2929
839.369	3009
839.506	3351
839.643	3214
839.781	3036
839.918	2971
840.055	3047
840.193	3062
840.33	3070
840.467	3100
840.604	3135
840.742	3382
840.879	3085
841.016	3062
841.153	3127
841.29	3344
841.427	3306
841.564	3283
841.701	3329
841.838	3218
841.975	3180
842.112	3233
842.249	3108
842.385	3062
842.522	3279
842.659	3093
842.796	3043
842.933	3138
843.069	3085
843.206	3051
843.343	3180
843.479	3127
843.616	3116
843.752	2876
843.889	2872
844.025	3074
844.162	2902
844.298	3077
844.435	2971
844.571	2925
844.708	3066
844.844	3203
844.98	3245
845.117	3192
845.253	3085
845.389	2982
845.525	3100
845.661	3093
845.798	3032
845.934	3131
846.07	3051
846.206	3214
846.342	3344
846.478	3253
846.614	3093
846.75	3070
846.886	3036
847.022	3222
847.158	3146
847.294	3203
847.429	3260
847.565	3230
847.701	3473
847.837	3043
847.972	2994
848.108	3195
848.244	3116
848.379	3020
848.515	2944
848.65	2910
848.786	2990
848.921	3009
849.057	3074
849.192	3157
849.328	3062
849.463	3081
849.598	3074
849.734	3024
849.869	3009
850.004	2948
850.14	2975
850.275	2906
850.41	2857
850.545	2910
850.68	2952
850.815	2948
850.95	2986
851.085	3184
851.22	3119
851.355	3043
851.49	2982
851.625	2975
851.76	2937
851.895	2937
852.03	2948
852.165	3066
852.299	3085
852.434	3184
852.569	3176
852.703	3157
852.838	3222
852.973	3313
853.107	3298
853.242	3188
853.376	3116
853.511	2986
853.645	3020
853.78	3253
853.914	3131
854.048	3100
854.183	3074
854.317	3157
854.451	3325
854.585	3077
854.72	3089
854.854	3199
854.988	3036
855.122	3093
855.256	3005
855.39	3131
855.524	3230
855.658	3226
855.792	3142
855.926	3214
856.06	3211
856.194	3272
856.327	3142
856.461	3108
856.595	3062
856.729	3100
856.862	3230
856.996	3135
857.13	3203
857.263	3207
857.397	3268
857.53	3097
857.664	3180
857.797	3218
857.931	3260
858.064	3154
858.197	3249
858.331	3112
858.464	3085
858.597	3009
858.731	3093
858.864	3142
858.997	3081
859.13	3157
859.263	3188
859.396	3226
859.529	3112
859.662	3028
859.795	3081
859.928	3173
860.061	3291
860.194	3268
860.327	3112
860.46	3093
860.592	3218
860.725	3253
860.858	3268
860.99	3112
861.123	3070
861.256	3047
861.388	3142
861.521	3819
861.653	3005
861.786	2990
861.918	3024
862.05	3081
862.183	3119
862.315	3165
862.447	3192
862.58	3077
862.712	2979
862.844	2872
862.976	3043
863.108	3001
863.24	3302
863.372	2876
863.504	2960
863.636	2948
863.768	3032
863.9	3020
864.032	2906
864.164	2944
864.296	2998
864.428	3097
864.559	3123
864.691	3089
864.823	3074
864.954	3017
865.086	3017
865.217	2990
865.349	2963
865.48	2967
865.612	2998
865.743	3154
865.875	2982
866.006	2922
866.137	2994
866.269	2941
866.4	2960
866.531	2937
866.662	2883
866.793	2895
866.924	2933
867.055	2944
867.186	2918
867.317	2864
867.448	2804
867.579	2853
867.71	2868
867.841	2845
867.972	2902
868.103	2922
868.233	2895
868.364	2914
868.495	2906
868.625	3058
868.756	3142
868.886	2990
869.017	3039
869.147	3165
869.278	3127
869.408	3062
869.539	3047
869.669	3112
869.799	3047
869.929	3093
870.06	3085
870.19	3329
870.32	3275
870.45	3275
870.58	3374
870.71	3488
870.84	3412
870.97	3283
871.1	3226
871.23	3481
871.36	3443
871.489	3393
871.619	3397
871.749	3439
871.879	3401
872.008	3473
872.138	3363
872.267	3287
872.397	3127
872.526	3074
872.656	2982
872.785	3093
872.915	3253
873.044	3310
873.173	3199
873.303	3260
873.432	3226
873.561	3233
873.69	3131
873.819	3157
873.948	3188
874.077	3127
874.206	3055
874.335	3085
874.464	3188
874.593	3344
874.722	3203
874.851	3401
874.979	3332
875.108	3321
875.237	3195
875.365	3169
875.494	3165
875.623	3226
875.751	3089
875.88	3138
876.008	3188
876.136	3237
876.265	3378
876.393	3492
876.521	3424
876.65	3393
876.778	3348
876.906	3176
877.034	3203
877.162	3230
877.29	3161
877.418	3253
877.546	3275
877.674	3253
877.802	3222
877.93	3222
878.058	3173
878.185	3089
878.313	3188
878.441	3222
878.568	3081
878.696	3135
878.824	3245
878.951	3279
879.079	3412
879.206	3637
879.333	3458
879.461	3321
879.588	3306
879.715	3466
879.842	3580
879.97	3363
880.097	3211
880.224	3123
880.351	3180
880.478	3218
880.605	3203
880.732	3165
880.859	3492
880.986	3287
881.112	3294
881.239	3192
881.366	3097
881.493	3024
881.619	3066
881.746	3074
881.872	3070
881.999	3070
882.125	3112
882.252	3207
882.378	3302
882.505	3378
882.631	3264
882.757	3180
882.883	3199
883.01	3214
883.136	3180
883.262	3112
883.388	3135
883.514	3291
883.64	3374
883.766	3279
883.892	3142
884.018	3237
884.143	3386
884.269	3542
884.395	3199
884.52	3127
884.646	3188
884.772	3085
884.897	3093
885.023	3214
885.148	3325
885.274	3412
885.399	3344
885.524	3264
885.65	3253
885.775	3310
885.9	3272
886.025	3450
886.15	3359
886.275	3291
886.4	3195
886.525	3287
886.65	3291
886.775	3279
886.9	3523
887.025	3637
887.149	3355
887.274	3287
887.399	3192
887.523	3192
887.648	3188
887.773	3176
887.897	3374
888.021	3401
888.146	3317
888.27	3443
888.395	3515
888.519	3401
888.643	3431
888.767	3500
888.891	3298
889.015	3264
889.139	3302
889.263	3253
889.387	3386
889.511	3488
889.635	3469
889.759	3260
889.883	3287
890.006	3378
890.13	3504
890.254	3272
890.377	3332
890.501	3207
890.624	3176
890.748	3294
890.871	3173
890.995	3108
891.118	3074
891.241	3146
891.364	3256
891.488	3317
891.611	3176
891.734	3233
891.857	3329
891.98	3241
892.103	3329
892.226	3279
892.349	3218
892.471	3131
892.594	3237
892.717	3253
892.839	3249
892.962	3294
893.085	3306
893.207	3298
893.33	3165
893.452	3169
893.575	3287
893.697	3272
893.819	3428
893.941	3534
894.064	3424
894.186	3279
894.308	3302
894.43	3462
894.552	3553
894.674	3439
894.796	3233
894.918	3351
895.04	3287
895.161	3401
895.283	3393
895.405	3298
895.526	3351
895.648	3405
895.769	3405
895.891	3443
896.012	3492
896.134	3481
896.255	3431
896.376	3378
896.498	3344
896.619	3416
896.74	3367
896.861	3439
896.982	3732
897.103	3854
897.224	3591
897.345	3485
897.466	3412
897.587	3466
897.708	3599
897.828	3580
897.949	3466
898.07	3340
898.19	3420
898.311	3599
898.431	3454
898.552	3496
898.672	3591
898.792	3587
898.913	3485
899.033	3393
899.153	3283
899.273	3203
899.393	3260
899.513	3294
899.633	3294
899.753	3325
899.873	3329
899.993	3355
900.113	3351
900.232	3401
900.352	3363
900.472	3275
900.591	3218
900.711	3291
900.83	3256
900.95	3397
901.069	3477
901.189	3344
901.308	3131
901.427	3138
901.546	3154
901.665	3287
901.784	3325
901.904	3192
902.023	3173
902.141	3020
902.26	3001
902.379	3119
902.498	3058
902.617	3070
902.735	3199
902.854	3230
902.973	3169
903.091	3032
903.21	3039
903.328	3100
903.446	3097
903.565	3108
903.683	3192
903.801	3093
903.919	3241
904.038	3279
904.156	3169
904.274	3321
904.392	3279
904.51	3256
904.627	3340
904.745	3416
904.863	3488
904.981	3245
905.098	3169
905.216	3211
905.334	3310
905.451	3260
905.569	3313
905.686	3412
905.803	3450
905.921	3279
906.038	3428
906.155	3344
906.272	3268
906.389	3332
906.506	3207
906.623	3310
906.74	3256
906.857	3173
906.974	3253
907.091	3447
907.208	3557
907.324	3473
907.441	3355
907.557	3237
907.674	3272
907.79	3207
907.907	3264
908.023	3344
908.139	3325
908.256	3313
908.372	3359
908.488	3348
908.604	3237
908.72	3211
908.836	3275
908.952	3272
909.068	3321
909.184	3488
909.3	3412
909.415	3462
909.531	3504
909.647	3233
909.762	3287
909.878	3256
909.993	3359
910.108	3313
910.224	3355
910.339	3389
910.454	3325
910.57	3329
910.685	3222
910.8	3572
910.915	3511
911.03	3409
911.145	3237
911.259	3237
911.374	3348
911.489	3253
911.604	3233
911.718	3104
911.833	3142
911.947	3051
912.062	2937
912.176	3123
912.291	3230
912.405	3233
912.519	3454
912.633	3504
912.748	3325
912.862	3279
912.976	3150
913.09	3055
913.204	3138
913.318	3230
913.431	3332
913.545	3317
913.659	3397
913.772	3332
913.886	3203
914	3176
914.113	3359
914.226	3389
914.34	3382
914.453	3211
914.566	3401
914.68	3218
914.793	3306
914.906	3154
915.019	3108
915.132	3077
915.245	3157
915.358	3222
915.47	3256
915.583	3241
915.696	3332
915.809	3359
915.921	3401
916.034	3249
916.146	3256
916.259	3214
916.371	3363
916.483	3370
916.595	3222
916.708	3321
916.82	3359
916.932	3344
917.044	3302
917.156	3325
917.268	3264
917.38	3321
917.491	3294
917.603	3344
917.715	3439
917.826	3428
917.938	3409
918.049	3272
918.161	3488
918.272	3561
918.384	3534
918.495	3507
918.606	3321
918.717	3272
918.828	3355
918.939	3424
919.05	3325
919.161	3370
919.272	3176
919.383	3260
919.494	3515
919.604	3671
919.715	3481
919.826	3428
919.936	3450
920.047	3576
920.157	3572
920.267	3762
920.378	3614
920.488	3557
920.598	3789
920.708	3964
920.818	3797
920.928	3827
921.038	4032
921.148	3964
921.258	3720
921.368	3622
921.477	3591
921.587	3515
921.697	3435
921.806	3656
921.916	3500
922.025	3359
922.134	3355
922.244	3325
922.353	3405
922.462	3260
922.571	3233
922.68	3127
922.789	3089
922.898	3165
923.007	3116
923.116	3230
923.224	3195
923.333	3192
923.442	3112
923.55	3100
923.659	3154
923.767	3207
923.876	3093
923.984	3260
924.092	3116
924.201	3211
924.309	3226
924.417	3264
924.525	3195
924.633	3241
924.741	3998
924.849	3043
924.956	3249
925.064	3100
925.172	3066
925.279	3093
925.387	3230
925.494	3226
925.602	3374
925.709	3336
925.816	3154
925.924	3298
926.031	3344
926.138	3302
926.245	3340
926.352	3291
926.459	3431
926.566	3447
926.673	3306
926.779	3245
926.886	3226
926.993	3146
927.099	3131
927.206	3154
927.312	3104
927.419	3230
927.525	3249
927.631	3279
927.737	3097
927.843	3123
927.95	3043
928.056	3157
928.162	3180
928.267	3211
928.373	3854
928.479	3332
928.585	3074
928.69	3188
928.796	3256
928.901	3173
929.007	3039
929.112	3214
929.218	3195
929.323	3108
929.428	3142
929.533	3310
929.638	3157
929.743	3195
929.848	3226
929.953	3214
930.058	3142
930.163	3009
930.267	3077
930.372	3203
930.477	3043
930.581	3310
930.685	3157
930.79	3043
930.894	3138
930.998	3081
931.103	3268
931.207	2963
931.311	2910
931.415	2952
931.519	2754
931.623	2826
