Data from test_V78500241_987.txt Node
Date: Fri Mar 25 16:22:02 CST 2022
User: usil
Spectrometer: V785-0024
Trigger mode: 0
Integration Time (sec): 4.000000E-1
Scans to average: 1
Nonlinearity correction enabled: false
Boxcar width: 0
Storing dark spectrum: false
XAxis mode: Wavelengths
Number of Pixels in Spectrum: 1024
>>>>>Begin Spectral Data<<<<<
801.071	2895
801.214	2902
801.356	2830
801.499	2914
801.641	2845
801.783	2929
801.926	3043
802.068	2952
802.211	2986
802.353	3028
802.496	2941
802.638	2998
802.78	3039
802.923	3055
803.065	2998
803.208	2902
803.35	2918
803.492	2941
803.635	2906
803.777	2735
803.919	2857
804.061	3169
804.204	2944
804.346	2880
804.488	2842
804.63	2937
804.773	2864
804.915	2922
805.057	3081
805.199	2883
805.341	2952
805.483	3066
805.626	2994
805.768	2914
805.91	3058
806.052	3097
806.194	3017
806.336	3195
806.478	2986
806.62	2948
806.762	2960
806.904	3051
807.046	3165
807.188	2956
807.33	2933
807.472	2963
807.614	2906
807.756	2990
807.898	2887
808.04	2864
808.182	2933
808.324	2956
808.465	2880
808.607	2853
808.749	2804
808.891	2830
809.033	2975
809.174	2975
809.316	2883
809.458	2883
809.6	2762
809.741	2746
809.883	2746
810.025	2800
810.166	2842
810.308	2849
810.45	2849
810.591	2769
810.733	2754
810.875	2792
811.016	2739
811.158	2739
811.299	2811
811.441	2914
811.582	2887
811.724	2815
811.865	2807
812.007	2922
812.148	2891
812.29	2838
812.431	2876
812.573	2948
812.714	2979
812.855	3036
812.997	3005
813.138	3154
813.279	2963
813.421	3001
813.562	2933
813.703	2891
813.845	2864
813.986	2781
814.127	2731
814.268	2823
814.41	2842
814.551	2823
814.692	2880
814.833	2826
814.974	2868
815.115	2933
815.256	2785
815.397	2762
815.539	2826
815.68	2754
815.821	2781
815.962	2922
816.103	2922
816.244	2853
816.385	2864
816.526	2948
816.666	2902
816.807	2720
816.948	2914
817.089	2922
817.23	2811
817.371	2735
817.512	2746
817.653	2811
817.793	2823
817.934	2880
818.075	2937
818.216	2948
818.356	2998
818.497	2895
818.638	2766
818.778	2800
818.919	2815
819.06	2754
819.2	2872
819.341	2785
819.481	2792
819.622	2906
819.762	3074
819.903	3017
820.043	2876
820.184	2902
820.324	2876
820.465	3001
820.605	3017
820.746	2998
820.886	2933
821.026	3066
821.167	3131
821.307	3256
821.447	3272
821.588	3222
821.728	3195
821.868	3230
822.008	3097
822.149	3100
822.289	3211
822.429	3066
822.569	3089
822.709	3180
822.849	3001
822.99	3024
823.13	3146
823.27	3184
823.41	3093
823.55	3112
823.69	3104
823.83	3165
823.97	3100
824.11	2990
824.25	3001
824.389	3062
824.529	3131
824.669	3062
824.809	3188
824.949	3226
825.089	3173
825.228	3131
825.368	2982
825.508	2979
825.648	2929
825.787	2994
825.927	3043
826.067	2982
826.206	2941
826.346	3036
826.485	3062
826.625	3093
826.765	3253
826.904	3195
827.044	2986
827.183	2967
827.323	2880
827.462	2967
827.601	2967
827.741	2952
827.88	2963
828.02	2853
828.159	2998
828.298	3036
828.437	3119
828.577	3036
828.716	3294
828.855	3112
828.994	2925
829.134	2883
829.273	2918
829.412	2941
829.551	2895
829.69	2883
829.829	3024
829.968	3116
830.107	3055
830.246	3058
830.385	2956
830.524	2891
830.663	2853
830.802	2796
830.941	2644
831.08	2705
831.219	2769
831.357	2781
831.496	2979
831.635	2773
831.774	2651
831.913	2670
832.051	2587
832.19	2583
832.329	2724
832.467	2590
832.606	2488
832.744	2621
832.883	2644
833.022	2583
833.16	2693
833.299	2739
833.437	2724
833.576	2750
833.714	2781
833.852	2785
833.991	2838
834.129	2876
834.267	2876
834.406	2838
834.544	2876
834.682	2887
834.821	2811
834.959	3104
835.097	2971
835.235	3116
835.373	3047
835.511	3058
835.65	3009
835.788	2998
835.926	2891
836.064	2838
836.202	2872
836.34	3135
836.478	3150
836.615	3093
836.753	3180
836.891	3264
837.029	3214
837.167	3104
837.305	3112
837.443	3047
837.58	2975
837.718	3180
837.856	3112
837.993	3085
838.131	3142
838.269	3142
838.406	3127
838.544	3127
838.681	2929
838.819	2937
838.956	2857
839.094	2857
839.231	2982
839.369	3058
839.506	3386
839.643	3249
839.781	3066
839.918	2971
840.055	3081
840.193	3085
840.33	3062
840.467	3131
840.604	3150
840.742	3439
840.879	3089
841.016	3062
841.153	3131
841.29	3336
841.427	3329
841.564	3294
841.701	3325
841.838	3237
841.975	3195
842.112	3256
842.249	3085
842.385	3085
842.522	3279
842.659	3123
842.796	3093
842.933	3135
843.069	3081
843.206	3047
843.343	3199
843.479	3138
843.616	3176
843.752	2902
843.889	2891
844.025	3119
844.162	2906
844.298	3097
844.435	2990
844.571	2956
844.708	3104
844.844	3226
844.98	3268
845.117	3222
845.253	3081
845.389	3024
845.525	3119
845.661	3119
845.798	3009
845.934	3131
846.07	3112
846.206	3260
846.342	3298
846.478	3226
846.614	3112
846.75	3070
846.886	3077
847.022	3298
847.158	3180
847.294	3199
847.429	3268
847.565	3211
847.701	3523
847.837	3062
847.972	2986
848.108	3135
848.244	3173
848.379	3013
848.515	2952
848.65	2944
848.786	2986
848.921	3058
849.057	3123
849.192	3119
849.328	3055
849.463	3093
849.598	3062
849.734	3070
849.869	3013
850.004	2971
850.14	2990
850.275	2918
850.41	2868
850.545	2933
850.68	2925
850.815	2979
850.95	3055
851.085	3199
851.22	3112
851.355	3070
851.49	2994
851.625	3070
851.76	3009
851.895	2944
852.03	2933
852.165	3047
852.299	3131
852.434	3264
852.569	3199
852.703	3169
852.838	3287
852.973	3401
853.107	3348
853.242	3188
853.376	3081
853.511	2979
853.645	3074
853.78	3279
853.914	3165
854.048	3112
854.183	3112
854.317	3161
854.451	3298
854.585	3138
854.72	3100
854.854	3226
854.988	3085
855.122	3116
855.256	2994
855.39	3150
855.524	3245
855.658	3173
855.792	3195
855.926	3195
856.06	3241
856.194	3275
856.327	3184
856.461	3097
856.595	3112
856.729	3100
856.862	3241
856.996	3188
857.13	3230
857.263	3275
857.397	3321
857.53	3142
857.664	3237
857.797	3260
857.931	3264
858.064	3157
858.197	3230
858.331	3184
858.464	3135
858.597	3058
858.731	3146
858.864	3123
858.997	3093
859.13	3184
859.263	3249
859.396	3199
859.529	3116
859.662	3123
859.795	3055
859.928	3157
860.061	3329
860.194	3306
860.327	3142
860.46	3108
860.592	3272
860.725	3260
860.858	3317
860.99	3131
861.123	3070
861.256	3036
861.388	3165
861.521	3854
861.653	3055
861.786	3005
861.918	3001
862.05	3138
862.183	3135
862.315	3169
862.447	3230
862.58	3142
862.712	2914
862.844	2902
862.976	3017
863.108	3020
863.24	3435
863.372	2887
863.504	2994
863.636	2994
863.768	3032
863.9	3013
864.032	2910
864.164	2944
864.296	3028
864.428	3123
864.559	3150
864.691	3093
864.823	3074
864.954	3062
865.086	3093
865.217	3020
865.349	2960
865.48	3013
865.612	3036
865.743	3195
865.875	2986
866.006	2975
866.137	3001
866.269	2944
866.4	2952
866.531	2918
866.662	2910
866.793	2914
866.924	2922
867.055	2994
867.186	2933
867.317	2902
867.448	2838
867.579	2880
867.71	2876
867.841	2800
867.972	2937
868.103	2906
868.233	2891
868.364	2895
868.495	2941
868.625	3089
868.756	3195
868.886	2971
869.017	3032
869.147	3165
869.278	3161
869.408	3093
869.539	2998
869.669	3112
869.799	3097
869.929	3173
870.06	3119
870.19	3340
870.32	3291
870.45	3332
870.58	3393
870.71	3492
870.84	3469
870.97	3332
871.1	3253
871.23	3519
871.36	3458
871.489	3367
871.619	3397
871.749	3447
871.879	3454
872.008	3507
872.138	3405
872.267	3291
872.397	3173
872.526	3119
872.656	3062
872.785	3093
872.915	3264
873.044	3363
873.173	3249
873.303	3279
873.432	3226
873.561	3253
873.69	3199
873.819	3135
873.948	3218
874.077	3131
874.206	3043
874.335	3104
874.464	3222
874.593	3340
874.722	3283
874.851	3378
874.979	3389
875.108	3329
875.237	3226
875.365	3203
875.494	3203
875.623	3241
875.751	3077
875.88	3135
876.008	3203
876.136	3188
876.265	3386
876.393	3542
876.521	3454
876.65	3409
876.778	3370
876.906	3279
877.034	3207
877.162	3245
877.29	3195
877.418	3272
877.546	3275
877.674	3260
877.802	3275
877.93	3298
878.058	3188
878.185	3104
878.313	3218
878.441	3188
878.568	3097
878.696	3169
878.824	3294
878.951	3313
879.079	3428
879.206	3637
879.333	3477
879.461	3344
879.588	3370
879.715	3500
879.842	3637
879.97	3409
880.097	3203
880.224	3138
880.351	3192
880.478	3195
880.605	3195
880.732	3222
880.859	3500
880.986	3329
881.112	3310
881.239	3226
881.366	3146
881.493	3001
881.619	3055
881.746	3112
881.872	3077
881.999	3123
882.125	3165
882.252	3264
882.378	3313
882.505	3412
882.631	3260
882.757	3165
882.883	3195
883.01	3222
883.136	3161
883.262	3074
883.388	3116
883.514	3310
883.64	3359
883.766	3329
883.892	3195
884.018	3253
884.143	3401
884.269	3606
884.395	3184
884.52	3146
884.646	3199
884.772	3150
884.897	3108
885.023	3214
885.148	3382
885.274	3469
885.399	3389
885.524	3279
885.65	3279
885.775	3348
885.9	3283
886.025	3428
886.15	3397
886.275	3329
886.4	3253
886.525	3268
886.65	3272
886.775	3268
886.9	3519
887.025	3580
887.149	3450
887.274	3283
887.399	3237
887.523	3222
887.648	3245
887.773	3222
887.897	3424
888.021	3416
888.146	3317
888.27	3450
888.395	3542
888.519	3447
888.643	3477
888.767	3450
888.891	3321
889.015	3241
889.139	3264
889.263	3241
889.387	3386
889.511	3526
889.635	3439
889.759	3291
889.883	3317
890.006	3386
890.13	3538
890.254	3283
890.377	3363
890.501	3241
890.624	3203
890.748	3294
890.871	3207
890.995	3127
891.118	3093
891.241	3245
891.364	3203
891.488	3317
891.611	3161
891.734	3264
891.857	3325
891.98	3268
892.103	3329
892.226	3302
892.349	3226
892.471	3146
892.594	3218
892.717	3291
892.839	3325
892.962	3275
893.085	3336
893.207	3325
893.33	3195
893.452	3218
893.575	3382
893.697	3272
893.819	3477
893.941	3488
894.064	3462
894.186	3279
894.308	3256
894.43	3458
894.552	3538
894.674	3450
894.796	3260
894.918	3302
895.04	3294
895.161	3431
895.283	3370
895.405	3310
895.526	3351
895.648	3435
895.769	3359
895.891	3458
896.012	3473
896.134	3443
896.255	3386
896.376	3370
896.498	3370
896.619	3435
896.74	3389
896.861	3412
896.982	3713
897.103	3838
897.224	3576
897.345	3496
897.466	3424
897.587	3504
897.708	3622
897.828	3576
897.949	3409
898.07	3332
898.19	3416
898.311	3625
898.431	3435
898.552	3526
898.672	3587
898.792	3595
898.913	3519
899.033	3424
899.153	3294
899.273	3218
899.393	3291
899.513	3363
899.633	3359
899.753	3340
899.873	3302
899.993	3348
900.113	3363
900.232	3397
900.352	3344
900.472	3325
900.591	3237
900.711	3298
900.83	3264
900.95	3405
901.069	3504
901.189	3363
901.308	3203
901.427	3161
901.546	3218
901.665	3287
901.784	3348
901.904	3192
902.023	3150
902.141	3047
902.26	3013
902.379	3203
902.498	3089
902.617	3116
902.735	3241
902.854	3253
902.973	3211
903.091	3116
903.21	3074
903.328	3165
903.446	3131
903.565	3154
903.683	3207
903.801	3176
903.919	3260
904.038	3302
904.156	3184
904.274	3351
904.392	3329
904.51	3279
904.627	3367
904.745	3469
904.863	3557
904.981	3332
905.098	3211
905.216	3237
905.334	3302
905.451	3329
905.569	3329
905.686	3454
905.803	3500
905.921	3359
906.038	3511
906.155	3389
906.272	3313
906.389	3363
906.506	3287
906.623	3325
906.74	3321
906.857	3226
906.974	3332
907.091	3492
907.208	3595
907.324	3504
907.441	3412
907.557	3275
907.674	3294
907.79	3230
907.907	3306
908.023	3416
908.139	3416
908.256	3363
908.372	3370
908.488	3382
908.604	3306
908.72	3260
908.836	3386
908.952	3321
909.068	3397
909.184	3504
909.3	3393
909.415	3591
909.531	3477
909.647	3298
909.762	3336
909.878	3298
909.993	3401
910.108	3382
910.224	3359
910.339	3454
910.454	3370
910.57	3363
910.685	3317
910.8	3622
910.915	3568
911.03	3492
911.145	3298
911.259	3283
911.374	3348
911.489	3256
911.604	3287
911.718	3180
911.833	3211
911.947	3058
912.062	3005
912.176	3180
912.291	3272
912.405	3218
912.519	3439
912.633	3519
912.748	3378
912.862	3313
912.976	3176
913.09	3112
913.204	3192
913.318	3264
913.431	3401
913.545	3359
913.659	3447
913.772	3393
913.886	3287
914	3241
914.113	3405
914.226	3443
914.34	3416
914.453	3241
914.566	3450
914.68	3313
914.793	3313
914.906	3195
915.019	3116
915.132	3112
915.245	3237
915.358	3249
915.47	3249
915.583	3275
915.696	3325
915.809	3458
915.921	3454
916.034	3294
916.146	3287
916.259	3287
916.371	3420
916.483	3405
916.595	3294
916.708	3389
916.82	3367
916.932	3374
917.044	3382
917.156	3382
917.268	3275
917.38	3355
917.491	3363
917.603	3393
917.715	3504
917.826	3466
917.938	3405
918.049	3279
918.161	3443
918.272	3599
918.384	3580
918.495	3523
918.606	3386
918.717	3275
918.828	3401
918.939	3409
919.05	3336
919.161	3393
919.272	3230
919.383	3291
919.494	3538
919.604	3690
919.715	3526
919.826	3435
919.936	3500
920.047	3606
920.157	3618
920.267	3770
920.378	3633
920.488	3603
920.598	3835
920.708	3994
920.818	3838
920.928	3850
921.038	4067
921.148	4006
921.258	3675
921.368	3660
921.477	3641
921.587	3557
921.697	3477
921.806	3637
921.916	3545
922.025	3386
922.134	3409
922.244	3332
922.353	3439
922.462	3272
922.571	3249
922.68	3123
922.789	3104
922.898	3142
923.007	3146
923.116	3222
923.224	3203
923.333	3226
923.442	3150
923.55	3123
923.659	3150
923.767	3222
923.876	3131
923.984	3256
924.092	3104
924.201	3176
924.309	3214
924.417	3294
924.525	3241
924.633	3241
924.741	4192
924.849	3112
924.956	3253
925.064	3119
925.172	3081
925.279	3135
925.387	3222
925.494	3230
925.602	3397
925.709	3393
925.816	3226
925.924	3348
926.031	3409
926.138	3336
926.245	3393
926.352	3325
926.459	3420
926.566	3504
926.673	3374
926.779	3302
926.886	3302
926.993	3180
927.099	3142
927.206	3135
927.312	3157
927.419	3264
927.525	3253
927.631	3298
927.737	3214
927.843	3135
927.95	3039
928.056	3169
928.162	3192
928.267	3291
928.373	3892
928.479	3340
928.585	3097
928.69	3233
928.796	3268
928.901	3173
929.007	3039
929.112	3230
929.218	3203
929.323	3188
929.428	3211
929.533	3317
929.638	3135
929.743	3211
929.848	3317
929.953	3264
930.058	3154
930.163	3043
930.267	3047
930.372	3188
930.477	3093
930.581	3344
930.685	3214
930.79	3093
930.894	3146
930.998	3108
931.103	3325
931.207	3005
931.311	2986
931.415	2971
931.519	2834
931.623	2819
