Data from test_V78500241_747.txt Node
Date: Fri Mar 25 16:20:22 CST 2022
User: usil
Spectrometer: V785-0024
Trigger mode: 0
Integration Time (sec): 4.000000E-1
Scans to average: 1
Nonlinearity correction enabled: false
Boxcar width: 0
Storing dark spectrum: false
XAxis mode: Wavelengths
Number of Pixels in Spectrum: 1024
>>>>>Begin Spectral Data<<<<<
801.071	2914
801.214	2941
801.356	2861
801.499	2887
801.641	2826
801.783	2956
801.926	3047
802.068	2982
802.211	2979
802.353	3013
802.496	2986
802.638	2986
802.78	3013
802.923	3058
803.065	2998
803.208	2895
803.35	2872
803.492	2910
803.635	2952
803.777	2758
803.919	2849
804.061	3192
804.204	2918
804.346	2891
804.488	2807
804.63	2990
804.773	2849
804.915	2899
805.057	3074
805.199	2925
805.341	2963
805.483	3028
805.626	2982
805.768	2960
805.91	3036
806.052	3089
806.194	3028
806.336	3195
806.478	3013
806.62	2944
806.762	2971
806.904	3089
807.046	3135
807.188	2963
807.33	2925
807.472	2994
807.614	2902
807.756	2982
807.898	2929
808.04	2883
808.182	2963
808.324	2933
808.465	2883
808.607	2910
808.749	2777
808.891	2842
809.033	2971
809.174	2944
809.316	2887
809.458	2887
809.6	2785
809.741	2800
809.883	2735
810.025	2842
810.166	2849
810.308	2819
810.45	2857
810.591	2773
810.733	2743
810.875	2819
811.016	2796
811.158	2739
811.299	2785
811.441	2910
811.582	2876
811.724	2838
811.865	2830
812.007	2853
812.148	2823
812.29	2842
812.431	2899
812.573	2914
812.714	2979
812.855	3017
812.997	3058
813.138	3116
813.279	3001
813.421	2975
813.562	2922
813.703	2868
813.845	2891
813.986	2735
814.127	2750
814.268	2796
814.41	2838
814.551	2800
814.692	2872
814.833	2815
814.974	2891
815.115	2922
815.256	2830
815.397	2800
815.539	2834
815.68	2777
815.821	2769
815.962	2952
816.103	2922
816.244	2868
816.385	2883
816.526	2971
816.666	2899
816.807	2724
816.948	2864
817.089	2868
817.23	2834
817.371	2804
817.512	2792
817.653	2830
817.793	2773
817.934	2887
818.075	2933
818.216	2979
818.356	3017
818.497	2861
818.638	2754
818.778	2807
818.919	2777
819.06	2762
819.2	2857
819.341	2788
819.481	2788
819.622	2910
819.762	3097
819.903	3051
820.043	2872
820.184	2872
820.324	2872
820.465	3017
820.605	3005
820.746	3039
820.886	2914
821.026	3089
821.167	3173
821.307	3233
821.447	3256
821.588	3241
821.728	3169
821.868	3154
822.008	3058
822.149	3146
822.289	3195
822.429	3074
822.569	3055
822.709	3150
822.849	2986
822.99	3047
823.13	3154
823.27	3214
823.41	3093
823.55	3176
823.69	3154
823.83	3165
823.97	3116
824.11	2986
824.25	3028
824.389	3024
824.529	3081
824.669	3013
824.809	3184
824.949	3260
825.089	3214
825.228	3180
825.368	2982
825.508	2960
825.648	2941
825.787	2967
825.927	3032
826.067	2971
826.206	2941
826.346	3070
826.485	3077
826.625	3119
826.765	3294
826.904	3195
827.044	2994
827.183	2922
827.323	2891
827.462	3020
827.601	2944
827.741	2952
827.88	2956
828.02	2842
828.159	3074
828.298	3047
828.437	3138
828.577	3070
828.716	3253
828.855	3116
828.994	2948
829.134	2887
829.273	2941
829.412	2899
829.551	2876
829.69	2937
829.829	3013
829.968	3180
830.107	3039
830.246	3062
830.385	2937
830.524	2883
830.663	2834
830.802	2758
830.941	2674
831.08	2686
831.219	2792
831.357	2811
831.496	2952
831.635	2735
831.774	2716
831.913	2678
832.051	2590
832.19	2594
832.329	2735
832.467	2590
832.606	2514
832.744	2587
832.883	2617
833.022	2667
833.16	2712
833.299	2712
833.437	2750
833.576	2731
833.714	2754
833.852	2785
833.991	2766
834.129	2868
834.267	2864
834.406	2861
834.544	2902
834.682	2910
834.821	2937
834.959	3123
835.097	2929
835.235	3119
835.373	3028
835.511	3070
835.65	3017
835.788	2986
835.926	2872
836.064	2838
836.202	2883
836.34	3142
836.478	3165
836.615	3089
836.753	3161
836.891	3222
837.029	3195
837.167	3119
837.305	3100
837.443	3081
837.58	2975
837.718	3154
837.856	3097
837.993	3062
838.131	3157
838.269	3116
838.406	3104
838.544	3108
838.681	2975
838.819	2944
838.956	2868
839.094	2876
839.231	2937
839.369	3066
839.506	3378
839.643	3260
839.781	3032
839.918	3001
840.055	3116
840.193	3074
840.33	3093
840.467	3112
840.604	3138
840.742	3386
840.879	3081
841.016	3085
841.153	3116
841.29	3344
841.427	3344
841.564	3298
841.701	3325
841.838	3249
841.975	3222
842.112	3180
842.249	3108
842.385	3058
842.522	3279
842.659	3097
842.796	3119
842.933	3131
843.069	3039
843.206	3089
843.343	3222
843.479	3142
843.616	3161
843.752	2929
843.889	2891
844.025	3112
844.162	2899
844.298	3104
844.435	2967
844.571	2948
844.708	3138
844.844	3218
844.98	3188
845.117	3211
845.253	3085
845.389	3043
845.525	3108
845.661	3127
845.798	3032
845.934	3184
846.07	3108
846.206	3237
846.342	3332
846.478	3230
846.614	3116
846.75	3081
846.886	3017
847.022	3249
847.158	3180
847.294	3218
847.429	3283
847.565	3237
847.701	3473
847.837	3085
847.972	3017
848.108	3150
848.244	3207
848.379	3017
848.515	2971
848.65	2963
848.786	2998
848.921	3013
849.057	3150
849.192	3169
849.328	3104
849.463	3142
849.598	3108
849.734	3032
849.869	2963
850.004	2944
850.14	3024
850.275	2948
850.41	2883
850.545	2891
850.68	2971
850.815	2982
850.95	3028
851.085	3218
851.22	3104
851.355	3032
851.49	3005
851.625	2986
851.76	3017
851.895	2933
852.03	2937
852.165	3039
852.299	3100
852.434	3218
852.569	3184
852.703	3211
852.838	3256
852.973	3363
853.107	3359
853.242	3146
853.376	3135
853.511	3013
853.645	3062
853.78	3268
853.914	3161
854.048	3100
854.183	3104
854.317	3157
854.451	3332
854.585	3157
854.72	3116
854.854	3249
854.988	3127
855.122	3127
855.256	3036
855.39	3116
855.524	3317
855.658	3192
855.792	3176
855.926	3226
856.06	3222
856.194	3256
856.327	3199
856.461	3112
856.595	3097
856.729	3123
856.862	3226
856.996	3188
857.13	3226
857.263	3241
857.397	3306
857.53	3116
857.664	3211
857.797	3272
857.931	3275
858.064	3211
858.197	3237
858.331	3165
858.464	3108
858.597	3020
858.731	3119
858.864	3203
858.997	3119
859.13	3142
859.263	3230
859.396	3203
859.529	3097
859.662	3127
859.795	3062
859.928	3169
860.061	3298
860.194	3310
860.327	3146
860.46	3135
860.592	3241
860.725	3275
860.858	3245
860.99	3131
861.123	3089
861.256	3077
861.388	3173
861.521	3953
861.653	3024
861.786	3005
861.918	3032
862.05	3051
862.183	3135
862.315	3169
862.447	3214
862.58	3123
862.712	2975
862.844	2906
862.976	3077
863.108	3077
863.24	3416
863.372	2895
863.504	2994
863.636	2990
863.768	3039
863.9	2998
864.032	2937
864.164	2960
864.296	3032
864.428	3089
864.559	3093
864.691	3119
864.823	3097
864.954	3058
865.086	3020
865.217	2982
865.349	2971
865.48	3009
865.612	3058
865.743	3165
865.875	3017
866.006	2986
866.137	2994
866.269	2963
866.4	2975
866.531	2944
866.662	2910
866.793	2899
866.924	2948
867.055	3009
867.186	2952
867.317	2906
867.448	2819
867.579	2861
867.71	2861
867.841	2838
867.972	2933
868.103	2876
868.233	2895
868.364	2868
868.495	2876
868.625	3104
868.756	3188
868.886	2982
869.017	3039
869.147	3180
869.278	3169
869.408	3112
869.539	3043
869.669	3146
869.799	3062
869.929	3157
870.06	3119
870.19	3344
870.32	3294
870.45	3329
870.58	3420
870.71	3473
870.84	3485
870.97	3302
871.1	3249
871.23	3496
871.36	3473
871.489	3374
871.619	3416
871.749	3397
871.879	3428
872.008	3511
872.138	3378
872.267	3302
872.397	3173
872.526	3123
872.656	3039
872.785	3146
872.915	3287
873.044	3378
873.173	3211
873.303	3294
873.432	3268
873.561	3253
873.69	3207
873.819	3188
873.948	3245
874.077	3131
874.206	3039
874.335	3112
874.464	3214
874.593	3310
874.722	3272
874.851	3397
874.979	3363
875.108	3336
875.237	3218
875.365	3135
875.494	3169
875.623	3245
875.751	3055
875.88	3154
876.008	3207
876.136	3241
876.265	3405
876.393	3500
876.521	3439
876.65	3450
876.778	3336
876.906	3256
877.034	3199
877.162	3253
877.29	3188
877.418	3260
877.546	3237
877.674	3275
877.802	3237
877.93	3256
878.058	3157
878.185	3138
878.313	3207
878.441	3207
878.568	3062
878.696	3157
878.824	3260
878.951	3298
879.079	3443
879.206	3595
879.333	3409
879.461	3393
879.588	3374
879.715	3492
879.842	3561
879.97	3412
880.097	3203
880.224	3165
880.351	3214
880.478	3260
880.605	3233
880.732	3199
880.859	3523
880.986	3329
881.112	3363
881.239	3211
881.366	3112
881.493	3039
881.619	3039
881.746	3119
881.872	3097
881.999	3104
882.125	3165
882.252	3245
882.378	3283
882.505	3450
882.631	3275
882.757	3165
882.883	3245
883.01	3241
883.136	3184
883.262	3093
883.388	3100
883.514	3348
883.64	3401
883.766	3348
883.892	3176
884.018	3256
884.143	3447
884.269	3523
884.395	3230
884.52	3157
884.646	3192
884.772	3104
884.897	3123
885.023	3214
885.148	3359
885.274	3424
885.399	3374
885.524	3302
885.65	3298
885.775	3332
885.9	3264
886.025	3454
886.15	3370
886.275	3306
886.4	3268
886.525	3329
886.65	3272
886.775	3256
886.9	3473
887.025	3614
887.149	3447
887.274	3260
887.399	3180
887.523	3218
887.648	3184
887.773	3237
887.897	3397
888.021	3458
888.146	3302
888.27	3424
888.395	3549
888.519	3405
888.643	3450
888.767	3519
888.891	3310
889.015	3260
889.139	3275
889.263	3253
889.387	3363
889.511	3538
889.635	3466
889.759	3279
889.883	3283
890.006	3389
890.13	3504
890.254	3294
890.377	3332
890.501	3211
890.624	3218
890.748	3348
890.871	3192
890.995	3127
891.118	3085
891.241	3199
891.364	3237
891.488	3321
891.611	3188
891.734	3291
891.857	3302
891.98	3275
892.103	3325
892.226	3260
892.349	3199
892.471	3135
892.594	3260
892.717	3294
892.839	3264
892.962	3317
893.085	3370
893.207	3325
893.33	3176
893.452	3214
893.575	3374
893.697	3256
893.819	3511
893.941	3492
894.064	3454
894.186	3245
894.308	3298
894.43	3428
894.552	3549
894.674	3481
894.796	3294
894.918	3325
895.04	3332
895.161	3439
895.283	3389
895.405	3344
895.526	3386
895.648	3424
895.769	3450
895.891	3439
896.012	3492
896.134	3500
896.255	3439
896.376	3397
896.498	3389
896.619	3454
896.74	3389
896.861	3428
896.982	3682
897.103	3876
897.224	3610
897.345	3515
897.466	3447
897.587	3485
897.708	3614
897.828	3526
897.949	3431
898.07	3367
898.19	3401
898.311	3580
898.431	3450
898.552	3526
898.672	3603
898.792	3580
898.913	3534
899.033	3412
899.153	3287
899.273	3230
899.393	3283
899.513	3317
899.633	3332
899.753	3348
899.873	3336
899.993	3329
900.113	3332
900.232	3367
900.352	3378
900.472	3298
900.591	3203
900.711	3291
900.83	3233
900.95	3393
901.069	3481
901.189	3348
901.308	3184
901.427	3150
901.546	3195
901.665	3313
901.784	3374
901.904	3218
902.023	3150
902.141	3051
902.26	3039
902.379	3146
902.498	3097
902.617	3085
902.735	3222
902.854	3279
902.973	3173
903.091	3039
903.21	3108
903.328	3142
903.446	3154
903.565	3173
903.683	3237
903.801	3157
903.919	3272
904.038	3355
904.156	3241
904.274	3310
904.392	3291
904.51	3317
904.627	3355
904.745	3428
904.863	3557
904.981	3332
905.098	3203
905.216	3329
905.334	3370
905.451	3302
905.569	3348
905.686	3454
905.803	3504
905.921	3344
906.038	3431
906.155	3374
906.272	3329
906.389	3382
906.506	3287
906.623	3287
906.74	3344
906.857	3218
906.974	3310
907.091	3462
907.208	3591
907.324	3485
907.441	3439
907.557	3275
907.674	3283
907.79	3237
907.907	3294
908.023	3401
908.139	3378
908.256	3332
908.372	3435
908.488	3367
908.604	3310
908.72	3256
908.836	3291
908.952	3321
909.068	3370
909.184	3515
909.3	3458
909.415	3553
909.531	3553
909.647	3325
909.762	3355
909.878	3287
909.993	3378
910.108	3382
910.224	3382
910.339	3439
910.454	3412
910.57	3355
910.685	3291
910.8	3667
910.915	3572
911.03	3492
911.145	3321
911.259	3291
911.374	3367
911.489	3317
911.604	3306
911.718	3146
911.833	3214
911.947	3062
912.062	3013
912.176	3199
912.291	3226
912.405	3256
912.519	3443
912.633	3488
912.748	3386
912.862	3344
912.976	3192
913.09	3097
913.204	3176
913.318	3245
913.431	3389
913.545	3348
913.659	3450
913.772	3359
913.886	3233
914	3214
914.113	3401
914.226	3443
914.34	3435
914.453	3260
914.566	3416
914.68	3336
914.793	3378
914.906	3192
915.019	3176
915.132	3074
915.245	3214
915.358	3268
915.47	3275
915.583	3291
915.696	3298
915.809	3447
915.921	3454
916.034	3264
916.146	3313
916.259	3237
916.371	3420
916.483	3389
916.595	3302
916.708	3382
916.82	3363
916.932	3363
917.044	3351
917.156	3374
917.268	3287
917.38	3329
917.491	3298
917.603	3370
917.715	3523
917.826	3485
917.938	3367
918.049	3336
918.161	3458
918.272	3610
918.384	3599
918.495	3462
918.606	3355
918.717	3279
918.828	3416
918.939	3454
919.05	3355
919.161	3416
919.272	3226
919.383	3332
919.494	3504
919.604	3667
919.715	3553
919.826	3447
919.936	3481
920.047	3606
920.157	3622
920.267	3797
920.378	3644
920.488	3534
920.598	3816
920.708	4021
920.818	3838
920.928	3884
921.038	4074
921.148	4032
921.258	3713
921.368	3682
921.477	3614
921.587	3549
921.697	3526
921.806	3618
921.916	3584
922.025	3370
922.134	3374
922.244	3370
922.353	3462
922.462	3310
922.571	3253
922.68	3119
922.789	3077
922.898	3154
923.007	3081
923.116	3230
923.224	3192
923.333	3207
923.442	3119
923.55	3161
923.659	3176
923.767	3260
923.876	3176
923.984	3264
924.092	3119
924.201	3214
924.309	3249
924.417	3291
924.525	3222
924.633	3275
924.741	4196
924.849	3058
924.956	3332
925.064	3146
925.172	3066
925.279	3138
925.387	3253
925.494	3237
925.602	3367
925.709	3336
925.816	3260
925.924	3302
926.031	3409
926.138	3348
926.245	3386
926.352	3241
926.459	3428
926.566	3507
926.673	3374
926.779	3256
926.886	3283
926.993	3176
927.099	3123
927.206	3169
927.312	3138
927.419	3256
927.525	3218
927.631	3306
927.737	3169
927.843	3157
927.95	3062
928.056	3199
928.162	3237
928.267	3275
928.373	3903
928.479	3351
928.585	3085
928.69	3226
928.796	3310
928.901	3230
929.007	3074
929.112	3233
929.218	3218
929.323	3195
929.428	3138
929.533	3340
929.638	3119
929.743	3203
929.848	3264
929.953	3218
930.058	3173
930.163	2990
930.267	3081
930.372	3226
930.477	3108
930.581	3340
930.685	3211
930.79	3070
930.894	3157
930.998	3116
931.103	3329
931.207	2982
931.311	2948
931.415	2971
931.519	2785
931.623	2853
