Data from test_V78500241_1544.txt Node
Date: Fri Mar 25 16:25:53 CST 2022
User: usil
Spectrometer: V785-0024
Trigger mode: 0
Integration Time (sec): 4.000000E-1
Scans to average: 1
Nonlinearity correction enabled: false
Boxcar width: 0
Storing dark spectrum: false
XAxis mode: Wavelengths
Number of Pixels in Spectrum: 1024
>>>>>Begin Spectral Data<<<<<
801.071	2948
801.214	2982
801.356	2906
801.499	2948
801.641	2883
801.783	2952
801.926	3104
802.068	2982
802.211	2979
802.353	3047
802.496	3009
802.638	3005
802.78	3062
802.923	3123
803.065	3013
803.208	2925
803.35	2937
803.492	2944
803.635	2914
803.777	2788
803.919	2887
804.061	3195
804.204	2967
804.346	2937
804.488	2887
804.63	2994
804.773	2849
804.915	2948
805.057	3066
805.199	2971
805.341	2982
805.483	3047
805.626	3093
805.768	2971
805.91	3089
806.052	3161
806.194	3017
806.336	3230
806.478	3058
806.62	2952
806.762	2998
806.904	3062
807.046	3165
807.188	3024
807.33	2937
807.472	3032
807.614	2899
807.756	3055
807.898	2952
808.04	2899
808.182	2975
808.324	2933
808.465	2845
808.607	2899
808.749	2819
808.891	2853
809.033	3013
809.174	2979
809.316	2906
809.458	2899
809.6	2788
809.741	2796
809.883	2773
810.025	2868
810.166	2864
810.308	2864
810.45	2880
810.591	2796
810.733	2758
810.875	2826
811.016	2800
811.158	2773
811.299	2796
811.441	2918
811.582	2899
811.724	2834
811.865	2838
812.007	2937
812.148	2895
812.29	2857
812.431	2914
812.573	2975
812.714	2982
812.855	3024
812.997	3066
813.138	3123
813.279	3020
813.421	2975
813.562	2998
813.703	2857
813.845	2906
813.986	2807
814.127	2727
814.268	2830
814.41	2891
814.551	2811
814.692	2918
814.833	2830
814.974	2880
815.115	2967
815.256	2826
815.397	2800
815.539	2857
815.68	2773
815.821	2773
815.962	2960
816.103	2922
816.244	2922
816.385	2891
816.526	2990
816.666	2929
816.807	2735
816.948	2902
817.089	2914
817.23	2845
817.371	2766
817.512	2800
817.653	2868
817.793	2823
817.934	2918
818.075	2967
818.216	3005
818.356	3036
818.497	2887
818.638	2804
818.778	2849
818.919	2796
819.06	2788
819.2	2887
819.341	2796
819.481	2800
819.622	2960
819.762	3093
819.903	3051
820.043	2933
820.184	2933
820.324	2922
820.465	3036
820.605	3024
820.746	3005
820.886	2929
821.026	3097
821.167	3180
821.307	3260
821.447	3279
821.588	3287
821.728	3203
821.868	3195
822.008	3077
822.149	3218
822.289	3275
822.429	3089
822.569	3066
822.709	3199
822.849	3062
822.99	3089
823.13	3199
823.27	3214
823.41	3138
823.55	3157
823.69	3150
823.83	3188
823.97	3104
824.11	3032
824.25	2975
824.389	3100
824.529	3146
824.669	3074
824.809	3180
824.949	3291
825.089	3245
825.228	3138
825.368	2986
825.508	2952
825.648	2982
825.787	3009
825.927	3013
826.067	2960
826.206	2925
826.346	3074
826.485	3051
826.625	3146
826.765	3275
826.904	3199
827.044	2986
827.183	2963
827.323	2864
827.462	3001
827.601	2922
827.741	2960
827.88	2967
828.02	2887
828.159	2971
828.298	3066
828.437	3146
828.577	3074
828.716	3233
828.855	3100
828.994	2899
829.134	2876
829.273	2910
829.412	2902
829.551	2887
829.69	2891
829.829	3009
829.968	3123
830.107	3028
830.246	3017
830.385	2899
830.524	2922
830.663	2811
830.802	2735
830.941	2667
831.08	2621
831.219	2785
831.357	2754
831.496	2941
831.635	2743
831.774	2644
831.913	2632
832.051	2492
832.19	2583
832.329	2674
832.467	2530
832.606	2541
832.744	2598
832.883	2625
833.022	2575
833.16	2651
833.299	2686
833.437	2697
833.576	2716
833.714	2727
833.852	2746
833.991	2758
834.129	2864
834.267	2792
834.406	2792
834.544	2883
834.682	2861
834.821	2872
834.959	3066
835.097	2906
835.235	3074
835.373	2975
835.511	2986
835.65	2979
835.788	2937
835.926	2807
836.064	2804
836.202	2849
836.34	3074
836.478	3157
836.615	3066
836.753	3123
836.891	3195
837.029	3184
837.167	3135
837.305	3085
837.443	3036
837.58	2998
837.718	3135
837.856	3070
837.993	3028
838.131	3100
838.269	3104
838.406	3097
838.544	3058
838.681	2922
838.819	2910
838.956	2819
839.094	2826
839.231	2925
839.369	3036
839.506	3401
839.643	3195
839.781	3051
839.918	2975
840.055	3009
840.193	3051
840.33	3077
840.467	3077
840.604	3127
840.742	3405
840.879	3062
841.016	3032
841.153	3127
841.29	3363
841.427	3306
841.564	3275
841.701	3287
841.838	3192
841.975	3173
842.112	3199
842.249	3100
842.385	3043
842.522	3279
842.659	3097
842.796	3058
842.933	3127
843.069	3089
843.206	3093
843.343	3176
843.479	3062
843.616	3116
843.752	2933
843.889	2895
844.025	3100
844.162	2880
844.298	3062
844.435	2933
844.571	2933
844.708	3032
844.844	3157
844.98	3233
845.117	3157
845.253	3043
845.389	3001
845.525	3081
845.661	3100
845.798	3024
845.934	3119
846.07	3062
846.206	3154
846.342	3279
846.478	3226
846.614	3097
846.75	3070
846.886	3024
847.022	3237
847.158	3131
847.294	3218
847.429	3260
847.565	3169
847.701	3534
847.837	3032
847.972	2967
848.108	3161
848.244	3146
848.379	2994
848.515	2982
848.65	2910
848.786	2960
848.921	3039
849.057	3104
849.192	3146
849.328	3055
849.463	3112
849.598	3039
849.734	3028
849.869	2986
850.004	2906
850.14	2960
850.275	2906
850.41	2823
850.545	2891
850.68	2902
850.815	2925
850.95	2952
851.085	3192
851.22	3112
851.355	3020
851.49	2979
851.625	2963
851.76	3017
851.895	2933
852.03	2895
852.165	3024
852.299	3100
852.434	3195
852.569	3165
852.703	3165
852.838	3279
852.973	3332
853.107	3363
853.242	3176
853.376	3089
853.511	2986
853.645	3058
853.78	3245
853.914	3108
854.048	3112
854.183	3093
854.317	3195
854.451	3294
854.585	3123
854.72	3081
854.854	3207
854.988	3074
855.122	3104
855.256	2971
855.39	3127
855.524	3264
855.658	3214
855.792	3138
855.926	3157
856.06	3226
856.194	3241
856.327	3157
856.461	3093
856.595	3135
856.729	3077
856.862	3207
856.996	3135
857.13	3195
857.263	3233
857.397	3256
857.53	3123
857.664	3180
857.797	3214
857.931	3268
858.064	3161
858.197	3211
858.331	3100
858.464	3097
858.597	3013
858.731	3169
858.864	3142
858.997	3093
859.13	3176
859.263	3150
859.396	3207
859.529	3097
859.662	3066
859.795	3051
859.928	3173
860.061	3249
860.194	3294
860.327	3097
860.46	3100
860.592	3222
860.725	3253
860.858	3233
860.99	3081
861.123	3043
861.256	3051
861.388	3150
861.521	3956
861.653	3028
861.786	2967
861.918	3001
862.05	3066
862.183	3100
862.315	3135
862.447	3214
862.58	3081
862.712	2998
862.844	2849
862.976	2994
863.108	2990
863.24	3306
863.372	2910
863.504	2975
863.636	2944
863.768	3047
863.9	2994
864.032	2918
864.164	2948
864.296	2979
864.428	3100
864.559	3081
864.691	3074
864.823	3066
864.954	3013
865.086	3089
865.217	2994
865.349	2933
865.48	2963
865.612	3013
865.743	3173
865.875	2956
866.006	2933
866.137	2952
866.269	2948
866.4	2952
866.531	2933
866.662	2872
866.793	2918
866.924	2891
867.055	2967
867.186	2922
867.317	2868
867.448	2834
867.579	2838
867.71	2853
867.841	2834
867.972	2914
868.103	2872
868.233	2887
868.364	2880
868.495	2864
868.625	3100
868.756	3161
868.886	2971
869.017	3017
869.147	3161
869.278	3169
869.408	3036
869.539	3024
869.669	3074
869.799	3039
869.929	3093
870.06	3077
870.19	3344
870.32	3272
870.45	3283
870.58	3348
870.71	3420
870.84	3447
870.97	3317
871.1	3253
871.23	3431
871.36	3435
871.489	3370
871.619	3428
871.749	3405
871.879	3424
872.008	3488
872.138	3412
872.267	3264
872.397	3169
872.526	3100
872.656	2990
872.785	3081
872.915	3256
873.044	3291
873.173	3203
873.303	3203
873.432	3192
873.561	3241
873.69	3127
873.819	3135
873.948	3165
874.077	3123
874.206	3047
874.335	3047
874.464	3207
874.593	3367
874.722	3218
874.851	3386
874.979	3344
875.108	3302
875.237	3154
875.365	3203
875.494	3214
875.623	3214
875.751	3062
875.88	3108
876.008	3199
876.136	3195
876.265	3363
876.393	3504
876.521	3378
876.65	3378
876.778	3329
876.906	3256
877.034	3195
877.162	3176
877.29	3203
877.418	3264
877.546	3249
877.674	3226
877.802	3245
877.93	3211
878.058	3131
878.185	3085
878.313	3211
878.441	3169
878.568	3051
878.696	3157
878.824	3207
878.951	3283
879.079	3492
879.206	3599
879.333	3469
879.461	3336
879.588	3336
879.715	3431
879.842	3629
879.97	3348
880.097	3135
880.224	3138
880.351	3180
880.478	3176
880.605	3203
880.732	3199
880.859	3481
880.986	3264
881.112	3317
881.239	3245
881.366	3070
881.493	3036
881.619	3055
881.746	3074
881.872	3058
881.999	3104
882.125	3165
882.252	3272
882.378	3313
882.505	3447
882.631	3260
882.757	3161
882.883	3222
883.01	3237
883.136	3154
883.262	3093
883.388	3100
883.514	3321
883.64	3363
883.766	3283
883.892	3173
884.018	3226
884.143	3458
884.269	3561
884.395	3188
884.52	3180
884.646	3188
884.772	3150
884.897	3097
885.023	3211
885.148	3291
885.274	3424
885.399	3367
885.524	3287
885.65	3253
885.775	3287
885.9	3279
886.025	3412
886.15	3367
886.275	3317
886.4	3226
886.525	3310
886.65	3272
886.775	3237
886.9	3492
887.025	3641
887.149	3378
887.274	3211
887.399	3180
887.523	3180
887.648	3161
887.773	3192
887.897	3397
888.021	3370
888.146	3317
888.27	3458
888.395	3538
888.519	3401
888.643	3447
888.767	3477
888.891	3325
889.015	3222
889.139	3287
889.263	3268
889.387	3401
889.511	3481
889.635	3416
889.759	3272
889.883	3302
890.006	3389
890.13	3488
890.254	3287
890.377	3355
890.501	3218
890.624	3195
890.748	3279
890.871	3161
890.995	3085
891.118	3089
891.241	3165
891.364	3214
891.488	3321
891.611	3173
891.734	3233
891.857	3279
891.98	3268
892.103	3294
892.226	3249
892.349	3233
892.471	3104
892.594	3260
892.717	3275
892.839	3321
892.962	3272
893.085	3336
893.207	3298
893.33	3157
893.452	3203
893.575	3386
893.697	3226
893.819	3454
893.941	3473
894.064	3439
894.186	3272
894.308	3272
894.43	3431
894.552	3511
894.674	3477
894.796	3260
894.918	3283
895.04	3287
895.161	3416
895.283	3447
895.405	3310
895.526	3359
895.648	3405
895.769	3409
895.891	3454
896.012	3507
896.134	3466
896.255	3431
896.376	3374
896.498	3355
896.619	3393
896.74	3370
896.861	3386
896.982	3641
897.103	3854
897.224	3629
897.345	3500
897.466	3435
897.587	3485
897.708	3599
897.828	3553
897.949	3443
898.07	3363
898.19	3367
898.311	3622
898.431	3454
898.552	3538
898.672	3599
898.792	3576
898.913	3523
899.033	3420
899.153	3260
899.273	3233
899.393	3253
899.513	3310
899.633	3321
899.753	3348
899.873	3298
899.993	3389
900.113	3336
900.232	3363
900.352	3325
900.472	3268
900.591	3188
900.711	3325
900.83	3268
900.95	3424
901.069	3485
901.189	3340
901.308	3188
901.427	3131
901.546	3173
901.665	3283
901.784	3302
901.904	3165
902.023	3138
902.141	3017
902.26	2971
902.379	3161
902.498	3062
902.617	3085
902.735	3169
902.854	3207
902.973	3184
903.091	3074
903.21	3097
903.328	3131
903.446	3104
903.565	3142
903.683	3176
903.801	3135
903.919	3272
904.038	3317
904.156	3169
904.274	3298
904.392	3241
904.51	3306
904.627	3298
904.745	3409
904.863	3511
904.981	3279
905.098	3192
905.216	3253
905.334	3260
905.451	3256
905.569	3329
905.686	3443
905.803	3424
905.921	3283
906.038	3416
906.155	3348
906.272	3291
906.389	3370
906.506	3218
906.623	3218
906.74	3291
906.857	3169
906.974	3272
907.091	3466
907.208	3576
907.324	3488
907.441	3412
907.557	3241
907.674	3211
907.79	3176
907.907	3256
908.023	3389
908.139	3397
908.256	3325
908.372	3393
908.488	3287
908.604	3268
908.72	3233
908.836	3256
908.952	3253
909.068	3359
909.184	3454
909.3	3386
909.415	3519
909.531	3469
909.647	3249
909.762	3302
909.878	3272
909.993	3313
910.108	3298
910.224	3325
910.339	3420
910.454	3329
910.57	3306
910.685	3249
910.8	3568
910.915	3530
911.03	3431
911.145	3256
911.259	3302
911.374	3310
911.489	3264
911.604	3207
911.718	3100
911.833	3142
911.947	3020
912.062	2982
912.176	3180
912.291	3184
912.405	3154
912.519	3431
912.633	3466
912.748	3336
912.862	3275
912.976	3157
913.09	3055
913.204	3108
913.318	3188
913.431	3287
913.545	3310
913.659	3389
913.772	3336
913.886	3241
914	3222
914.113	3336
914.226	3393
914.34	3374
914.453	3207
914.566	3389
914.68	3294
914.793	3298
914.906	3138
915.019	3100
915.132	3062
915.245	3199
915.358	3184
915.47	3218
915.583	3291
915.696	3283
915.809	3374
915.921	3420
916.034	3256
916.146	3264
916.259	3180
916.371	3348
916.483	3344
916.595	3272
916.708	3348
916.82	3306
916.932	3374
917.044	3306
917.156	3340
917.268	3268
917.38	3283
917.491	3260
917.603	3389
917.715	3401
917.826	3458
917.938	3344
918.049	3241
918.161	3424
918.272	3538
918.384	3595
918.495	3477
918.606	3329
918.717	3272
918.828	3386
918.939	3378
919.05	3287
919.161	3370
919.272	3146
919.383	3283
919.494	3511
919.604	3701
919.715	3481
919.826	3435
919.936	3428
920.047	3637
920.157	3595
920.267	3766
920.378	3610
920.488	3572
920.598	3740
920.708	3911
920.818	3865
920.928	3804
921.038	4036
921.148	4010
921.258	3694
921.368	3652
921.477	3580
921.587	3549
921.697	3435
921.806	3641
921.916	3538
922.025	3367
922.134	3355
922.244	3332
922.353	3428
922.462	3253
922.571	3226
922.68	3116
922.789	3081
922.898	3157
923.007	3100
923.116	3203
923.224	3169
923.333	3233
923.442	3104
923.55	3043
923.659	3146
923.767	3260
923.876	3100
923.984	3211
924.092	3097
924.201	3173
924.309	3260
924.417	3245
924.525	3192
924.633	3222
924.741	4158
924.849	3066
924.956	3256
925.064	3127
925.172	3039
925.279	3089
925.387	3199
925.494	3188
925.602	3336
925.709	3363
925.816	3203
925.924	3279
926.031	3386
926.138	3306
926.245	3363
926.352	3233
926.459	3386
926.566	3443
926.673	3313
926.779	3226
926.886	3256
926.993	3161
927.099	3093
927.206	3123
927.312	3127
927.419	3226
927.525	3218
927.631	3294
927.737	3093
927.843	3104
927.95	3017
928.056	3142
928.162	3199
928.267	3249
928.373	3762
928.479	3336
928.585	3047
928.69	3241
928.796	3275
928.901	3188
929.007	3085
929.112	3218
929.218	3138
929.323	3131
929.428	3123
929.533	3298
929.638	3157
929.743	3207
929.848	3268
929.953	3180
930.058	3123
930.163	3009
930.267	3055
930.372	3176
930.477	3070
930.581	3370
930.685	3116
930.79	3043
930.894	3112
930.998	3100
931.103	3302
931.207	2960
931.311	2925
931.415	2929
931.519	2762
931.623	2815
