Data from test_V78500241_1924.txt Node
Date: Fri Mar 25 16:28:31 CST 2022
User: usil
Spectrometer: V785-0024
Trigger mode: 0
Integration Time (sec): 4.000000E-1
Scans to average: 1
Nonlinearity correction enabled: false
Boxcar width: 0
Storing dark spectrum: false
XAxis mode: Wavelengths
Number of Pixels in Spectrum: 1024
>>>>>Begin Spectral Data<<<<<
801.071	2872
801.214	2960
801.356	2887
801.499	2902
801.641	2883
801.783	2963
801.926	3036
802.068	2998
802.211	3036
802.353	3043
802.496	2948
802.638	3005
802.78	3028
802.923	3081
803.065	3009
803.208	2902
803.35	2929
803.492	2967
803.635	2914
803.777	2724
803.919	2842
804.061	3195
804.204	2956
804.346	2887
804.488	2868
804.63	2998
804.773	2872
804.915	2922
805.057	3093
805.199	2925
805.341	3017
805.483	3047
805.626	2982
805.768	2925
805.91	3058
806.052	3119
806.194	3032
806.336	3253
806.478	3028
806.62	2982
806.762	2967
806.904	3066
807.046	3138
807.188	3017
807.33	2876
807.472	2998
807.614	2914
807.756	2956
807.898	2937
808.04	2876
808.182	2941
808.324	2982
808.465	2899
808.607	2895
808.749	2769
808.891	2868
809.033	2963
809.174	3013
809.316	2887
809.458	2891
809.6	2804
809.741	2754
809.883	2773
810.025	2845
810.166	2872
810.308	2857
810.45	2872
810.591	2788
810.733	2796
810.875	2842
811.016	2811
811.158	2769
811.299	2804
811.441	2899
811.582	2910
811.724	2853
811.865	2868
812.007	2918
812.148	2887
812.29	2861
812.431	2883
812.573	2929
812.714	2971
812.855	3032
812.997	3047
813.138	3093
813.279	3001
813.421	2990
813.562	2937
813.703	2880
813.845	2933
813.986	2781
814.127	2758
814.268	2804
814.41	2826
814.551	2807
814.692	2861
814.833	2830
814.974	2902
815.115	2979
815.256	2826
815.397	2781
815.539	2857
815.68	2777
815.821	2826
815.962	2941
816.103	2948
816.244	2887
816.385	2857
816.526	3001
816.666	2899
816.807	2754
816.948	2872
817.089	2872
817.23	2868
817.371	2785
817.512	2788
817.653	2853
817.793	2796
817.934	2895
818.075	2941
818.216	2979
818.356	3020
818.497	2899
818.638	2807
818.778	2826
818.919	2777
819.06	2758
819.2	2910
819.341	2811
819.481	2788
819.622	2914
819.762	3116
819.903	3066
820.043	2922
820.184	2918
820.324	2887
820.465	3009
820.605	2982
820.746	3020
820.886	2941
821.026	3097
821.167	3157
821.307	3260
821.447	3279
821.588	3241
821.728	3195
821.868	3188
822.008	3074
822.149	3176
822.289	3226
822.429	3077
822.569	3104
822.709	3211
822.849	2982
822.99	3081
823.13	3157
823.27	3188
823.41	3104
823.55	3165
823.69	3138
823.83	3180
823.97	3077
824.11	3009
824.25	3020
824.389	3051
824.529	3093
824.669	3070
824.809	3146
824.949	3211
825.089	3195
825.228	3150
825.368	3001
825.508	2944
825.648	2960
825.787	3001
825.927	3024
826.067	2956
826.206	2963
826.346	3036
826.485	3104
826.625	3119
826.765	3283
826.904	3192
827.044	2975
827.183	2902
827.323	2868
827.462	2960
827.601	2906
827.741	2918
827.88	2956
828.02	2861
828.159	2944
828.298	3001
828.437	3097
828.577	3009
828.716	3253
828.855	3081
828.994	2906
829.134	2899
829.273	2922
829.412	2902
829.551	2857
829.69	2864
829.829	2979
829.968	3127
830.107	3013
830.246	2979
830.385	2914
830.524	2861
830.663	2853
830.802	2720
830.941	2648
831.08	2632
831.219	2754
831.357	2788
831.496	2944
831.635	2750
831.774	2632
831.913	2636
832.051	2571
832.19	2579
832.329	2674
832.467	2503
832.606	2495
832.744	2579
832.883	2560
833.022	2575
833.16	2663
833.299	2659
833.437	2693
833.576	2693
833.714	2712
833.852	2708
833.991	2785
834.129	2845
834.267	2804
834.406	2766
834.544	2872
834.682	2872
834.821	2857
834.959	3093
835.097	2876
835.235	3028
835.373	2990
835.511	3009
835.65	2933
835.788	2975
835.926	2819
836.064	2823
836.202	2845
836.34	3089
836.478	3154
836.615	3077
836.753	3093
836.891	3192
837.029	3161
837.167	3135
837.305	3108
837.443	3036
837.58	2963
837.718	3116
837.856	3074
837.993	3051
838.131	3116
838.269	3112
838.406	3093
838.544	3043
838.681	2956
838.819	2899
838.956	2815
839.094	2811
839.231	2899
839.369	3020
839.506	3367
839.643	3211
839.781	3032
839.918	2941
840.055	3013
840.193	3070
840.33	3074
840.467	3047
840.604	3157
840.742	3458
840.879	3066
841.016	3062
841.153	3161
841.29	3310
841.427	3279
841.564	3279
841.701	3336
841.838	3214
841.975	3169
842.112	3211
842.249	3089
842.385	3017
842.522	3279
842.659	3062
842.796	3047
842.933	3157
843.069	3024
843.206	3039
843.343	3169
843.479	3112
843.616	3161
843.752	2895
843.889	2842
844.025	3119
844.162	2891
844.298	3119
844.435	2960
844.571	2918
844.708	3058
844.844	3207
844.98	3184
845.117	3176
845.253	3070
845.389	2998
845.525	3097
845.661	3165
845.798	3005
845.934	3116
846.07	3051
846.206	3214
846.342	3287
846.478	3237
846.614	3085
846.75	3047
846.886	2986
847.022	3214
847.158	3150
847.294	3173
847.429	3241
847.565	3192
847.701	3481
847.837	3009
847.972	3032
848.108	3138
848.244	3135
848.379	2975
848.515	2941
848.65	2883
848.786	2975
848.921	3001
849.057	3116
849.192	3119
849.328	3020
849.463	3097
849.598	3039
849.734	3047
849.869	2975
850.004	2925
850.14	3001
850.275	2922
850.41	2830
850.545	2891
850.68	2914
850.815	2948
850.95	3001
851.085	3161
851.22	3123
851.355	3066
851.49	2967
851.625	3036
851.76	2998
851.895	2918
852.03	2910
852.165	3001
852.299	3100
852.434	3188
852.569	3169
852.703	3169
852.838	3253
852.973	3351
853.107	3348
853.242	3127
853.376	3077
853.511	2963
853.645	3024
853.78	3245
853.914	3131
854.048	3108
854.183	3077
854.317	3192
854.451	3283
854.585	3142
854.72	3081
854.854	3226
854.988	3047
855.122	3062
855.256	2963
855.39	3116
855.524	3233
855.658	3142
855.792	3176
855.926	3173
856.06	3203
856.194	3272
856.327	3157
856.461	3058
856.595	3097
856.729	3043
856.862	3203
856.996	3138
857.13	3188
857.263	3275
857.397	3268
857.53	3112
857.664	3173
857.797	3233
857.931	3233
858.064	3165
858.197	3203
858.331	3097
858.464	3108
858.597	3005
858.731	3108
858.864	3097
858.997	3066
859.13	3142
859.263	3161
859.396	3218
859.529	3032
859.662	3070
859.795	3066
859.928	3123
860.061	3260
860.194	3260
860.327	3169
860.46	3108
860.592	3226
860.725	3272
860.858	3233
860.99	3097
861.123	3058
861.256	3058
861.388	3157
861.521	3816
861.653	3043
861.786	2960
861.918	2944
862.05	3039
862.183	3081
862.315	3157
862.447	3211
862.58	3066
862.712	2971
862.844	2899
862.976	3028
863.108	3001
863.24	3313
863.372	2899
863.504	2952
863.636	2956
863.768	2994
863.9	2982
864.032	2914
864.164	2956
864.296	3051
864.428	3070
864.559	3070
864.691	3081
864.823	3062
864.954	3024
865.086	3058
865.217	3005
865.349	2948
865.48	2956
865.612	2994
865.743	3138
865.875	2971
866.006	2963
866.137	2990
866.269	2918
866.4	2933
866.531	2887
866.662	2910
866.793	2868
866.924	2910
867.055	2975
867.186	2922
867.317	2883
867.448	2815
867.579	2849
867.71	2842
867.841	2861
867.972	2891
868.103	2910
868.233	2883
868.364	2872
868.495	2914
868.625	3089
868.756	3142
868.886	2971
869.017	3039
869.147	3180
869.278	3150
869.408	3062
869.539	3005
869.669	3058
869.799	3028
869.929	3138
870.06	3123
870.19	3325
870.32	3272
870.45	3275
870.58	3367
870.71	3443
870.84	3428
870.97	3302
871.1	3249
871.23	3500
871.36	3466
871.489	3382
871.619	3367
871.749	3420
871.879	3405
872.008	3469
872.138	3348
872.267	3279
872.397	3119
872.526	3062
872.656	3001
872.785	3127
872.915	3245
873.044	3294
873.173	3195
873.303	3214
873.432	3260
873.561	3249
873.69	3176
873.819	3150
873.948	3173
874.077	3081
874.206	3051
874.335	3097
874.464	3192
874.593	3340
874.722	3222
874.851	3389
874.979	3336
875.108	3325
875.237	3180
875.365	3203
875.494	3192
875.623	3268
875.751	3062
875.88	3104
876.008	3161
876.136	3211
876.265	3386
876.393	3526
876.521	3401
876.65	3431
876.778	3355
876.906	3233
877.034	3176
877.162	3203
877.29	3157
877.418	3226
877.546	3241
877.674	3222
877.802	3188
877.93	3211
878.058	3192
878.185	3100
878.313	3207
878.441	3192
878.568	3028
878.696	3138
878.824	3233
878.951	3306
879.079	3458
879.206	3633
879.333	3428
879.461	3340
879.588	3332
879.715	3462
879.842	3614
879.97	3370
880.097	3146
880.224	3112
880.351	3211
880.478	3211
880.605	3207
880.732	3154
880.859	3469
880.986	3287
881.112	3317
881.239	3203
881.366	3085
881.493	3055
881.619	3028
881.746	3058
881.872	3081
881.999	3100
882.125	3138
882.252	3256
882.378	3283
882.505	3378
882.631	3275
882.757	3150
882.883	3218
883.01	3237
883.136	3161
883.262	3116
883.388	3093
883.514	3336
883.64	3389
883.766	3298
883.892	3195
884.018	3253
884.143	3450
884.269	3538
884.395	3199
884.52	3154
884.646	3214
884.772	3150
884.897	3135
885.023	3207
885.148	3329
885.274	3393
885.399	3310
885.524	3287
885.65	3272
885.775	3294
885.9	3260
886.025	3412
886.15	3348
886.275	3310
886.4	3241
886.525	3294
886.65	3291
886.775	3291
886.9	3511
887.025	3572
887.149	3401
887.274	3176
887.399	3176
887.523	3169
887.648	3195
887.773	3195
887.897	3355
888.021	3401
888.146	3260
888.27	3412
888.395	3542
888.519	3382
888.643	3401
888.767	3454
888.891	3325
889.015	3230
889.139	3291
889.263	3253
889.387	3409
889.511	3534
889.635	3443
889.759	3313
889.883	3294
890.006	3370
890.13	3488
890.254	3260
890.377	3336
890.501	3195
890.624	3176
890.748	3260
890.871	3112
890.995	3081
891.118	3077
891.241	3203
891.364	3222
891.488	3302
891.611	3165
891.734	3279
891.857	3302
891.98	3249
892.103	3340
892.226	3260
892.349	3233
892.471	3116
892.594	3230
892.717	3291
892.839	3245
892.962	3294
893.085	3348
893.207	3279
893.33	3142
893.452	3195
893.575	3321
893.697	3253
893.819	3447
893.941	3504
894.064	3420
894.186	3253
894.308	3294
894.43	3450
894.552	3530
894.674	3435
894.796	3268
894.918	3313
895.04	3294
895.161	3435
895.283	3382
895.405	3344
895.526	3389
895.648	3439
895.769	3428
895.891	3439
896.012	3447
896.134	3473
896.255	3378
896.376	3367
896.498	3363
896.619	3447
896.74	3367
896.861	3428
896.982	3717
897.103	3808
897.224	3637
897.345	3485
897.466	3447
897.587	3526
897.708	3618
897.828	3553
897.949	3450
898.07	3348
898.19	3386
898.311	3564
898.431	3450
898.552	3500
898.672	3584
898.792	3557
898.913	3542
899.033	3401
899.153	3302
899.273	3241
899.393	3283
899.513	3268
899.633	3340
899.753	3340
899.873	3336
899.993	3370
900.113	3302
900.232	3329
900.352	3294
900.472	3272
900.591	3214
900.711	3272
900.83	3237
900.95	3340
901.069	3447
901.189	3351
901.308	3165
901.427	3161
901.546	3241
901.665	3294
901.784	3332
901.904	3211
902.023	3173
902.141	3001
902.26	3001
902.379	3089
902.498	3081
902.617	3074
902.735	3154
902.854	3211
902.973	3230
903.091	3024
903.21	3070
903.328	3127
903.446	3100
903.565	3146
903.683	3226
903.801	3104
903.919	3237
904.038	3279
904.156	3150
904.274	3241
904.392	3249
904.51	3321
904.627	3344
904.745	3447
904.863	3538
904.981	3272
905.098	3188
905.216	3241
905.334	3329
905.451	3298
905.569	3317
905.686	3450
905.803	3405
905.921	3367
906.038	3428
906.155	3367
906.272	3249
906.389	3336
906.506	3256
906.623	3199
906.74	3279
906.857	3169
906.974	3287
907.091	3443
907.208	3549
907.324	3458
907.441	3374
907.557	3253
907.674	3245
907.79	3222
907.907	3264
908.023	3374
908.139	3382
908.256	3332
908.372	3401
908.488	3351
908.604	3298
908.72	3214
908.836	3253
908.952	3268
909.068	3359
909.184	3462
909.3	3344
909.415	3507
909.531	3469
909.647	3233
909.762	3279
909.878	3275
909.993	3389
910.108	3351
910.224	3351
910.339	3370
910.454	3359
910.57	3268
910.685	3249
910.8	3595
910.915	3587
911.03	3416
911.145	3249
911.259	3249
911.374	3317
911.489	3237
911.604	3279
911.718	3135
911.833	3165
911.947	3020
912.062	2990
912.176	3192
912.291	3180
912.405	3214
912.519	3412
912.633	3481
912.748	3367
912.862	3291
912.976	3214
913.09	3055
913.204	3138
913.318	3203
913.431	3351
913.545	3321
913.659	3405
913.772	3321
913.886	3226
914	3207
914.113	3374
914.226	3401
914.34	3355
914.453	3218
914.566	3386
914.68	3287
914.793	3336
914.906	3146
915.019	3104
915.132	3055
915.245	3176
915.358	3226
915.47	3256
915.583	3310
915.696	3298
915.809	3439
915.921	3397
916.034	3264
916.146	3222
916.259	3241
916.371	3393
916.483	3378
916.595	3264
916.708	3344
916.82	3355
916.932	3359
917.044	3332
917.156	3351
917.268	3249
917.38	3317
917.491	3294
917.603	3321
917.715	3435
917.826	3454
917.938	3420
918.049	3260
918.161	3447
918.272	3564
918.384	3595
918.495	3458
918.606	3363
918.717	3291
918.828	3378
918.939	3386
919.05	3340
919.161	3359
919.272	3176
919.383	3287
919.494	3545
919.604	3694
919.715	3515
919.826	3386
919.936	3439
920.047	3549
920.157	3553
920.267	3720
920.378	3633
920.488	3599
920.598	3785
920.708	3998
920.818	3816
920.928	3812
921.038	3979
921.148	3953
921.258	3705
921.368	3637
921.477	3580
921.587	3542
921.697	3458
921.806	3603
921.916	3500
922.025	3359
922.134	3386
922.244	3313
922.353	3420
922.462	3287
922.571	3249
922.68	3108
922.789	3058
922.898	3135
923.007	3104
923.116	3180
923.224	3180
923.333	3222
923.442	3131
923.55	3123
923.659	3180
923.767	3207
923.876	3093
923.984	3207
924.092	3142
924.201	3176
924.309	3192
924.417	3218
924.525	3184
924.633	3199
924.741	4215
924.849	3047
924.956	3272
925.064	3100
925.172	3062
925.279	3077
925.387	3176
925.494	3203
925.602	3374
925.709	3321
925.816	3176
925.924	3275
926.031	3370
926.138	3348
926.245	3351
926.352	3253
926.459	3405
926.566	3409
926.673	3306
926.779	3237
926.886	3241
926.993	3169
927.099	3135
927.206	3081
927.312	3135
927.419	3207
927.525	3214
927.631	3287
927.737	3169
927.843	3135
927.95	3043
928.056	3119
928.162	3161
928.267	3256
928.373	3869
928.479	3287
928.585	3074
928.69	3237
928.796	3275
928.901	3138
929.007	3070
929.112	3207
929.218	3142
929.323	3123
929.428	3123
929.533	3340
929.638	3135
929.743	3146
929.848	3260
929.953	3192
930.058	3138
930.163	2971
930.267	3043
930.372	3173
930.477	3051
930.581	3344
930.685	3176
930.79	3074
930.894	3093
930.998	3081
931.103	3253
931.207	2960
931.311	2944
931.415	2929
931.519	2788
931.623	2815
