Data from test_V78500241_614.txt Node
Date: Fri Mar 25 16:19:27 CST 2022
User: usil
Spectrometer: V785-0024
Trigger mode: 0
Integration Time (sec): 4.000000E-1
Scans to average: 1
Nonlinearity correction enabled: false
Boxcar width: 0
Storing dark spectrum: false
XAxis mode: Wavelengths
Number of Pixels in Spectrum: 1024
>>>>>Begin Spectral Data<<<<<
801.071	2914
801.214	2933
801.356	2842
801.499	2887
801.641	2853
801.783	2887
801.926	3085
802.068	2937
802.211	2967
802.353	3001
802.496	2918
802.638	3005
802.78	3036
802.923	3081
803.065	3005
803.208	2891
803.35	2895
803.492	2925
803.635	2929
803.777	2712
803.919	2842
804.061	3180
804.204	2941
804.346	2902
804.488	2872
804.63	2979
804.773	2872
804.915	2910
805.057	3081
805.199	2918
805.341	2960
805.483	3032
805.626	2986
805.768	2967
805.91	3066
806.052	3085
806.194	3005
806.336	3275
806.478	3013
806.62	2941
806.762	2982
806.904	3058
807.046	3180
807.188	2960
807.33	2914
807.472	2998
807.614	2899
807.756	2975
807.898	2922
808.04	2925
808.182	2963
808.324	2937
808.465	2880
808.607	2864
808.749	2781
808.891	2845
809.033	2956
809.174	2975
809.316	2864
809.458	2849
809.6	2792
809.741	2777
809.883	2762
810.025	2826
810.166	2834
810.308	2849
810.45	2819
810.591	2769
810.733	2727
810.875	2819
811.016	2727
811.158	2727
811.299	2792
811.441	2956
811.582	2899
811.724	2823
811.865	2807
812.007	2922
812.148	2880
812.29	2838
812.431	2864
812.573	2925
812.714	2979
812.855	3089
812.997	3024
813.138	3146
813.279	2986
813.421	2990
813.562	2952
813.703	2849
813.845	2906
813.986	2785
814.127	2720
814.268	2819
814.41	2838
814.551	2785
814.692	2902
814.833	2819
814.974	2872
815.115	2941
815.256	2830
815.397	2807
815.539	2857
815.68	2792
815.821	2785
815.962	2918
816.103	2925
816.244	2842
816.385	2857
816.526	2986
816.666	2922
816.807	2762
816.948	2906
817.089	2895
817.23	2857
817.371	2792
817.512	2830
817.653	2842
817.793	2823
817.934	2883
818.075	2986
818.216	3005
818.356	3055
818.497	2880
818.638	2781
818.778	2796
818.919	2823
819.06	2762
819.2	2887
819.341	2815
819.481	2804
819.622	2941
819.762	3081
819.903	3036
820.043	2902
820.184	2925
820.324	2902
820.465	3020
820.605	3028
820.746	3001
820.886	2941
821.026	3097
821.167	3184
821.307	3241
821.447	3260
821.588	3241
821.728	3195
821.868	3176
822.008	3104
822.149	3169
822.289	3214
822.429	3093
822.569	3093
822.709	3169
822.849	2990
822.99	3062
823.13	3154
823.27	3211
823.41	3123
823.55	3165
823.69	3112
823.83	3150
823.97	3085
824.11	2998
824.25	2979
824.389	3036
824.529	3104
824.669	3093
824.809	3173
824.949	3222
825.089	3184
825.228	3138
825.368	3001
825.508	2963
825.648	2933
825.787	3005
825.927	3017
826.067	2944
826.206	2986
826.346	3013
826.485	3077
826.625	3085
826.765	3294
826.904	3184
827.044	2963
827.183	2937
827.323	2834
827.462	2982
827.601	2914
827.741	2956
827.88	2956
828.02	2845
828.159	2967
828.298	3005
828.437	3047
828.577	3001
828.716	3260
828.855	3070
828.994	2910
829.134	2880
829.273	2880
829.412	2830
829.551	2826
829.69	2895
829.829	2975
829.968	3142
830.107	3036
830.246	3020
830.385	2902
830.524	2883
830.663	2826
830.802	2731
830.941	2632
831.08	2674
831.219	2746
831.357	2766
831.496	2944
831.635	2689
831.774	2598
831.913	2640
832.051	2514
832.19	2564
832.329	2667
832.467	2507
832.606	2457
832.744	2549
832.883	2571
833.022	2564
833.16	2648
833.299	2678
833.437	2689
833.576	2682
833.714	2724
833.852	2739
833.991	2750
834.129	2807
834.267	2796
834.406	2800
834.544	2861
834.682	2883
834.821	2861
834.959	3081
835.097	2887
835.235	3028
835.373	3005
835.511	2994
835.65	2956
835.788	2910
835.926	2845
836.064	2838
836.202	2811
836.34	3055
836.478	3123
836.615	3062
836.753	3097
836.891	3173
837.029	3173
837.167	3070
837.305	3043
837.443	3020
837.58	2967
837.718	3150
837.856	3058
837.993	3009
838.131	3104
838.269	3089
838.406	3097
838.544	3070
838.681	2895
838.819	2910
838.956	2830
839.094	2773
839.231	2910
839.369	2994
839.506	3401
839.643	3195
839.781	2982
839.918	2948
840.055	3039
840.193	3058
840.33	3047
840.467	3066
840.604	3123
840.742	3416
840.879	3028
841.016	3013
841.153	3074
841.29	3283
841.427	3279
841.564	3241
841.701	3287
841.838	3207
841.975	3180
842.112	3211
842.249	3093
842.385	3009
842.522	3241
842.659	3093
842.796	3024
842.933	3085
843.069	3051
843.206	3024
843.343	3161
843.479	3116
843.616	3119
843.752	2914
843.889	2857
844.025	3097
844.162	2872
844.298	3055
844.435	2902
844.571	2914
844.708	3062
844.844	3195
844.98	3237
845.117	3199
845.253	3070
845.389	3013
845.525	3055
845.661	3058
845.798	2994
845.934	3154
846.07	3013
846.206	3214
846.342	3291
846.478	3222
846.614	3047
846.75	3081
846.886	3028
847.022	3230
847.158	3093
847.294	3199
847.429	3222
847.565	3173
847.701	3473
847.837	3020
847.972	2979
848.108	3154
848.244	3108
848.379	2979
848.515	2933
848.65	2941
848.786	2986
848.921	2990
849.057	3047
849.192	3146
849.328	3085
849.463	3097
849.598	3055
849.734	3089
849.869	2929
850.004	2906
850.14	2937
850.275	2895
850.41	2864
850.545	2876
850.68	2906
850.815	2952
850.95	2944
851.085	3161
851.22	3108
851.355	2982
851.49	2963
851.625	3005
851.76	2979
851.895	2914
852.03	2902
852.165	3032
852.299	3123
852.434	3180
852.569	3108
852.703	3165
852.838	3237
852.973	3344
853.107	3310
853.242	3123
853.376	3066
853.511	2933
853.645	2994
853.78	3192
853.914	3093
854.048	3077
854.183	3074
854.317	3119
854.451	3249
854.585	3093
854.72	3039
854.854	3188
854.988	3074
855.122	3074
855.256	2971
855.39	3108
855.524	3211
855.658	3184
855.792	3165
855.926	3176
856.06	3203
856.194	3218
856.327	3157
856.461	3055
856.595	3100
856.729	3066
856.862	3184
856.996	3146
857.13	3199
857.263	3233
857.397	3283
857.53	3108
857.664	3146
857.797	3230
857.931	3249
858.064	3214
858.197	3230
858.331	3161
858.464	3119
858.597	2998
858.731	3127
858.864	3173
858.997	3108
859.13	3184
859.263	3146
859.396	3203
859.529	3119
859.662	3074
859.795	3028
859.928	3192
860.061	3287
860.194	3302
860.327	3138
860.46	3089
860.592	3291
860.725	3275
860.858	3294
860.99	3169
861.123	3070
861.256	3112
861.388	3180
861.521	3762
861.653	3024
861.786	3020
861.918	3013
862.05	3097
862.183	3085
862.315	3176
862.447	3226
862.58	3138
862.712	2986
862.844	2937
862.976	3036
863.108	3017
863.24	3431
863.372	2925
863.504	3020
863.636	2967
863.768	3066
863.9	3024
864.032	2941
864.164	2998
864.296	3043
864.428	3131
864.559	3165
864.691	3119
864.823	3138
864.954	3097
865.086	3104
865.217	3047
865.349	2986
865.48	3039
865.612	3036
865.743	3150
865.875	3039
866.006	2982
866.137	3028
866.269	2956
866.4	2967
866.531	2960
866.662	2941
866.793	2929
866.924	2914
867.055	3013
867.186	2975
867.317	2925
867.448	2891
867.579	2876
867.71	2864
867.841	2872
867.972	2952
868.103	2933
868.233	2922
868.364	2929
868.495	2963
868.625	3119
868.756	3192
868.886	2982
869.017	3051
869.147	3176
869.278	3218
869.408	3085
869.539	3100
869.669	3169
869.799	3097
869.929	3146
870.06	3104
870.19	3348
870.32	3313
870.45	3313
870.58	3420
870.71	3469
870.84	3469
870.97	3317
871.1	3260
871.23	3526
871.36	3500
871.489	3412
871.619	3458
871.749	3485
871.879	3454
872.008	3542
872.138	3386
872.267	3272
872.397	3146
872.526	3150
872.656	3058
872.785	3142
872.915	3237
873.044	3370
873.173	3230
873.303	3253
873.432	3256
873.561	3268
873.69	3188
873.819	3154
873.948	3203
874.077	3142
874.206	3051
874.335	3112
874.464	3249
874.593	3363
874.722	3256
874.851	3450
874.979	3374
875.108	3351
875.237	3230
875.365	3154
875.494	3180
875.623	3253
875.751	3074
875.88	3161
876.008	3195
876.136	3245
876.265	3397
876.393	3557
876.521	3447
876.65	3443
876.778	3359
876.906	3302
877.034	3222
877.162	3306
877.29	3211
877.418	3260
877.546	3245
877.674	3272
877.802	3253
877.93	3241
878.058	3157
878.185	3112
878.313	3230
878.441	3207
878.568	3081
878.696	3188
878.824	3272
878.951	3317
879.079	3443
879.206	3663
879.333	3450
879.461	3370
879.588	3359
879.715	3542
879.842	3603
879.97	3397
880.097	3211
880.224	3211
880.351	3249
880.478	3249
880.605	3214
880.732	3192
880.859	3549
880.986	3351
881.112	3359
881.239	3226
881.366	3135
881.493	3081
881.619	3028
881.746	3097
881.872	3138
881.999	3142
882.125	3157
882.252	3272
882.378	3348
882.505	3450
882.631	3298
882.757	3184
882.883	3233
883.01	3268
883.136	3211
883.262	3138
883.388	3157
883.514	3367
883.64	3409
883.766	3374
883.892	3245
884.018	3241
884.143	3443
884.269	3561
884.395	3211
884.52	3157
884.646	3237
884.772	3226
884.897	3169
885.023	3226
885.148	3348
885.274	3431
885.399	3393
885.524	3340
885.65	3283
885.775	3389
885.9	3321
886.025	3504
886.15	3416
886.275	3321
886.4	3245
886.525	3313
886.65	3302
886.775	3253
886.9	3580
887.025	3671
887.149	3435
887.274	3310
887.399	3245
887.523	3237
887.648	3203
887.773	3233
887.897	3431
888.021	3397
888.146	3306
888.27	3458
888.395	3580
888.519	3485
888.643	3481
888.767	3488
888.891	3359
889.015	3237
889.139	3298
889.263	3306
889.387	3435
889.511	3568
889.635	3462
889.759	3329
889.883	3302
890.006	3428
890.13	3466
890.254	3291
890.377	3382
890.501	3233
890.624	3222
890.748	3302
890.871	3180
890.995	3131
891.118	3100
891.241	3207
891.364	3253
891.488	3344
891.611	3214
891.734	3256
891.857	3317
891.98	3233
892.103	3389
892.226	3351
892.349	3256
892.471	3104
892.594	3245
892.717	3340
892.839	3336
892.962	3351
893.085	3355
893.207	3313
893.33	3233
893.452	3260
893.575	3378
893.697	3279
893.819	3458
893.941	3492
894.064	3458
894.186	3264
894.308	3310
894.43	3416
894.552	3549
894.674	3488
894.796	3283
894.918	3336
895.04	3325
895.161	3454
895.283	3401
895.405	3336
895.526	3405
895.648	3450
895.769	3431
895.891	3500
896.012	3504
896.134	3496
896.255	3450
896.376	3397
896.498	3348
896.619	3458
896.74	3386
896.861	3405
896.982	3705
897.103	3865
897.224	3603
897.345	3591
897.466	3431
897.587	3515
897.708	3633
897.828	3534
897.949	3420
898.07	3370
898.19	3420
898.311	3629
898.431	3443
898.552	3515
898.672	3614
898.792	3587
898.913	3526
899.033	3466
899.153	3283
899.273	3233
899.393	3325
899.513	3351
899.633	3329
899.753	3310
899.873	3336
899.993	3359
900.113	3355
900.232	3370
900.352	3393
900.472	3355
900.591	3249
900.711	3310
900.83	3256
900.95	3450
901.069	3496
901.189	3336
901.308	3233
901.427	3146
901.546	3199
901.665	3329
901.784	3325
901.904	3211
902.023	3218
902.141	3039
902.26	2975
902.379	3226
902.498	3112
902.617	3066
902.735	3222
902.854	3249
902.973	3218
903.091	3032
903.21	3081
903.328	3150
903.446	3146
903.565	3131
903.683	3237
903.801	3123
903.919	3256
904.038	3329
904.156	3188
904.274	3313
904.392	3260
904.51	3313
904.627	3359
904.745	3473
904.863	3523
904.981	3264
905.098	3180
905.216	3249
905.334	3287
905.451	3317
905.569	3340
905.686	3420
905.803	3477
905.921	3317
906.038	3424
906.155	3401
906.272	3253
906.389	3317
906.506	3192
906.623	3253
906.74	3344
906.857	3199
906.974	3256
907.091	3458
907.208	3576
907.324	3485
907.441	3389
907.557	3283
907.674	3249
907.79	3230
907.907	3310
908.023	3344
908.139	3374
908.256	3363
908.372	3389
908.488	3359
908.604	3272
908.72	3287
908.836	3294
908.952	3291
909.068	3351
909.184	3466
909.3	3401
909.415	3500
909.531	3523
909.647	3294
909.762	3298
909.878	3264
909.993	3344
910.108	3367
910.224	3363
910.339	3435
910.454	3348
910.57	3294
910.685	3302
910.8	3610
910.915	3515
911.03	3439
911.145	3279
911.259	3313
911.374	3348
911.489	3302
911.604	3275
911.718	3108
911.833	3165
911.947	3047
912.062	3013
912.176	3211
912.291	3173
912.405	3230
912.519	3454
912.633	3500
912.748	3355
912.862	3253
912.976	3161
913.09	3081
913.204	3154
913.318	3233
913.431	3363
913.545	3355
913.659	3389
913.772	3370
913.886	3264
914	3233
914.113	3367
914.226	3393
914.34	3393
914.453	3249
914.566	3439
914.68	3291
914.793	3336
914.906	3135
915.019	3138
915.132	3089
915.245	3203
915.358	3214
915.47	3237
915.583	3294
915.696	3344
915.809	3454
915.921	3454
916.034	3298
916.146	3260
916.259	3253
916.371	3431
916.483	3412
916.595	3272
916.708	3382
916.82	3348
916.932	3348
917.044	3359
917.156	3363
917.268	3237
917.38	3275
917.491	3306
917.603	3401
917.715	3443
917.826	3466
917.938	3409
918.049	3287
918.161	3477
918.272	3542
918.384	3564
918.495	3500
918.606	3359
918.717	3275
918.828	3424
918.939	3386
919.05	3329
919.161	3374
919.272	3207
919.383	3302
919.494	3507
919.604	3644
919.715	3481
919.826	3424
919.936	3488
920.047	3603
920.157	3523
920.267	3770
920.378	3618
920.488	3557
920.598	3743
920.708	3994
920.818	3800
920.928	3804
921.038	4036
921.148	3994
921.258	3675
921.368	3656
921.477	3595
921.587	3557
921.697	3469
921.806	3652
921.916	3549
922.025	3359
922.134	3416
922.244	3344
922.353	3469
922.462	3287
922.571	3218
922.68	3108
922.789	3100
922.898	3127
923.007	3104
923.116	3207
923.224	3218
923.333	3180
923.442	3108
923.55	3085
923.659	3131
923.767	3203
923.876	3116
923.984	3241
924.092	3154
924.201	3176
924.309	3230
924.417	3253
924.525	3192
924.633	3245
924.741	4044
924.849	3097
924.956	3283
925.064	3154
925.172	3047
925.279	3085
925.387	3233
925.494	3226
925.602	3393
925.709	3313
925.816	3218
925.924	3291
926.031	3389
926.138	3306
926.245	3378
926.352	3272
926.459	3409
926.566	3477
926.673	3355
926.779	3291
926.886	3230
926.993	3184
927.099	3157
927.206	3169
927.312	3157
927.419	3249
927.525	3237
927.631	3317
927.737	3142
927.843	3157
927.95	3032
928.056	3169
928.162	3233
928.267	3283
928.373	3800
928.479	3351
928.585	3089
928.69	3264
928.796	3359
928.901	3188
929.007	3077
929.112	3245
929.218	3195
929.323	3199
929.428	3184
929.533	3340
929.638	3192
929.743	3207
929.848	3313
929.953	3241
930.058	3180
930.163	3047
930.267	3077
930.372	3226
930.477	3043
930.581	3351
930.685	3249
930.79	3077
930.894	3233
930.998	3157
931.103	3336
931.207	3028
931.311	2971
931.415	2971
931.519	2857
931.623	2857
