Data from test_V78500241_604.txt Node
Date: Fri Mar 25 16:19:23 CST 2022
User: usil
Spectrometer: V785-0024
Trigger mode: 0
Integration Time (sec): 4.000000E-1
Scans to average: 1
Nonlinearity correction enabled: false
Boxcar width: 0
Storing dark spectrum: false
XAxis mode: Wavelengths
Number of Pixels in Spectrum: 1024
>>>>>Begin Spectral Data<<<<<
801.071	2895
801.214	2925
801.356	2891
801.499	2891
801.641	2868
801.783	2902
801.926	3055
802.068	2975
802.211	3043
802.353	3039
802.496	2986
802.638	3024
802.78	3020
802.923	3047
803.065	2982
803.208	2887
803.35	2925
803.492	2902
803.635	2914
803.777	2750
803.919	2849
804.061	3150
804.204	2929
804.346	2910
804.488	2880
804.63	2963
804.773	2834
804.915	2914
805.057	3104
805.199	2925
805.341	2952
805.483	3074
805.626	2975
805.768	2986
805.91	3100
806.052	3085
806.194	3051
806.336	3275
806.478	3043
806.62	2941
806.762	2979
806.904	3039
807.046	3161
807.188	2994
807.33	2914
807.472	2982
807.614	2883
807.756	2998
807.898	2899
808.04	2895
808.182	2967
808.324	2956
808.465	2910
808.607	2857
808.749	2785
808.891	2861
809.033	2986
809.174	2952
809.316	2887
809.458	2872
809.6	2758
809.741	2754
809.883	2785
810.025	2845
810.166	2861
810.308	2807
810.45	2868
810.591	2720
810.733	2758
810.875	2853
811.016	2750
811.158	2777
811.299	2823
811.441	2895
811.582	2906
811.724	2861
811.865	2845
812.007	2895
812.148	2857
812.29	2830
812.431	2872
812.573	2906
812.714	2982
812.855	3032
812.997	3020
813.138	3097
813.279	2986
813.421	2982
813.562	2948
813.703	2826
813.845	2895
813.986	2826
814.127	2754
814.268	2815
814.41	2834
814.551	2769
814.692	2876
814.833	2804
814.974	2887
815.115	2914
815.256	2815
815.397	2853
815.539	2842
815.68	2769
815.821	2811
815.962	2906
816.103	2944
816.244	2876
816.385	2876
816.526	2982
816.666	2922
816.807	2712
816.948	2872
817.089	2902
817.23	2864
817.371	2739
817.512	2785
817.653	2838
817.793	2811
817.934	2891
818.075	2929
818.216	2956
818.356	3001
818.497	2872
818.638	2769
818.778	2857
818.919	2785
819.06	2712
819.2	2891
819.341	2788
819.481	2815
819.622	2887
819.762	3097
819.903	3081
820.043	2948
820.184	2902
820.324	2872
820.465	2998
820.605	3028
820.746	3017
820.886	2929
821.026	3081
821.167	3116
821.307	3241
821.447	3279
821.588	3233
821.728	3192
821.868	3230
822.008	3074
822.149	3180
822.289	3237
822.429	3085
822.569	3077
822.709	3188
822.849	3024
822.99	3066
823.13	3135
823.27	3192
823.41	3138
823.55	3119
823.69	3150
823.83	3173
823.97	3112
824.11	3017
824.25	3001
824.389	3100
824.529	3116
824.669	3032
824.809	3214
824.949	3268
825.089	3214
825.228	3184
825.368	3032
825.508	2933
825.648	2948
825.787	3017
825.927	2986
826.067	2948
826.206	2952
826.346	3058
826.485	3085
826.625	3116
826.765	3260
826.904	3211
827.044	2979
827.183	2933
827.323	2838
827.462	2994
827.601	2895
827.741	2922
827.88	2906
828.02	2849
828.159	2963
828.298	3024
828.437	3077
828.577	3009
828.716	3214
828.855	3081
828.994	2960
829.134	2880
829.273	2876
829.412	2853
829.551	2868
829.69	2857
829.829	2944
829.968	3142
830.107	3043
830.246	3005
830.385	2880
830.524	2872
830.663	2807
830.802	2743
830.941	2667
831.08	2663
831.219	2754
831.357	2773
831.496	2922
831.635	2712
831.774	2640
831.913	2644
832.051	2518
832.19	2602
832.329	2663
832.467	2571
832.606	2484
832.744	2579
832.883	2575
833.022	2587
833.16	2659
833.299	2663
833.437	2667
833.576	2693
833.714	2720
833.852	2724
833.991	2731
834.129	2826
834.267	2842
834.406	2773
834.544	2838
834.682	2864
834.821	2868
834.959	3074
835.097	2887
835.235	3032
835.373	2971
835.511	3005
835.65	2963
835.788	2944
835.926	2857
836.064	2834
836.202	2872
836.34	3093
836.478	3123
836.615	3058
836.753	3119
836.891	3199
837.029	3123
837.167	3108
837.305	3070
837.443	3024
837.58	2982
837.718	3142
837.856	3074
837.993	3028
838.131	3108
838.269	3104
838.406	3116
838.544	3089
838.681	2925
838.819	2914
838.956	2769
839.094	2800
839.231	2922
839.369	3001
839.506	3348
839.643	3199
839.781	2998
839.918	2922
840.055	3036
840.193	3024
840.33	3070
840.467	3085
840.604	3169
840.742	3367
840.879	3017
841.016	3024
841.153	3127
841.29	3340
841.427	3268
841.564	3256
841.701	3302
841.838	3214
841.975	3176
842.112	3169
842.249	3043
842.385	3058
842.522	3264
842.659	3089
842.796	3032
842.933	3070
843.069	3066
843.206	3032
843.343	3245
843.479	3097
843.616	3138
843.752	2868
843.889	2883
844.025	3077
844.162	2876
844.298	3058
844.435	2960
844.571	2933
844.708	3066
844.844	3169
844.98	3256
845.117	3199
845.253	3036
845.389	3013
845.525	3085
845.661	3070
845.798	3024
845.934	3097
846.07	3055
846.206	3233
846.342	3310
846.478	3233
846.614	3127
846.75	3001
846.886	3043
847.022	3237
847.158	3135
847.294	3142
847.429	3253
847.565	3203
847.701	3504
847.837	3066
847.972	2979
848.108	3135
848.244	3112
848.379	2967
848.515	2975
848.65	2960
848.786	2937
848.921	3036
849.057	3123
849.192	3100
849.328	3070
849.463	3081
849.598	3047
849.734	3055
849.869	3013
850.004	2902
850.14	2967
850.275	2937
850.41	2830
850.545	2876
850.68	2922
850.815	2925
850.95	2937
851.085	3173
851.22	3070
851.355	3047
851.49	2952
851.625	3005
851.76	3001
851.895	2914
852.03	2922
852.165	3017
852.299	3108
852.434	3142
852.569	3112
852.703	3180
852.838	3199
852.973	3332
853.107	3298
853.242	3195
853.376	3093
853.511	2975
853.645	3047
853.78	3218
853.914	3081
854.048	3097
854.183	3066
854.317	3123
854.451	3275
854.585	3089
854.72	3081
854.854	3199
854.988	3036
855.122	3051
855.256	2960
855.39	3097
855.524	3241
855.658	3176
855.792	3165
855.926	3237
856.06	3180
856.194	3245
856.327	3135
856.461	3058
856.595	3051
856.729	3104
856.862	3233
856.996	3138
857.13	3195
857.263	3207
857.397	3279
857.53	3104
857.664	3161
857.797	3230
857.931	3272
858.064	3138
858.197	3230
858.331	3104
858.464	3070
858.597	2956
858.731	3104
858.864	3138
858.997	3097
859.13	3169
859.263	3146
859.396	3173
859.529	3077
859.662	3070
859.795	3051
859.928	3097
860.061	3264
860.194	3287
860.327	3119
860.46	3089
860.592	3199
860.725	3237
860.858	3218
860.99	3112
861.123	3005
861.256	3028
861.388	3116
861.521	3713
861.653	3043
861.786	2994
861.918	3024
862.05	3062
862.183	3085
862.315	3138
862.447	3161
862.58	3104
862.712	2937
862.844	2868
862.976	3017
863.108	2986
863.24	3424
863.372	2887
863.504	2960
863.636	2971
863.768	3001
863.9	2952
864.032	2918
864.164	2910
864.296	2990
864.428	3051
864.559	3100
864.691	3062
864.823	3020
864.954	3039
865.086	3036
865.217	2979
865.349	2967
865.48	2975
865.612	3028
865.743	3108
865.875	2986
866.006	2960
866.137	2956
866.269	2990
866.4	2891
866.531	2902
866.662	2891
866.793	2861
866.924	2899
867.055	2952
867.186	2929
867.317	2906
867.448	2800
867.579	2864
867.71	2823
867.841	2796
867.972	2891
868.103	2880
868.233	2876
868.364	2880
868.495	2891
868.625	3085
868.756	3146
868.886	2975
869.017	3017
869.147	3169
869.278	3176
869.408	3055
869.539	3070
869.669	3131
869.799	3020
869.929	3116
870.06	3100
870.19	3325
870.32	3279
870.45	3249
870.58	3397
870.71	3450
870.84	3454
870.97	3291
871.1	3260
871.23	3530
871.36	3420
871.489	3363
871.619	3374
871.749	3443
871.879	3458
872.008	3450
872.138	3363
872.267	3245
872.397	3150
872.526	3051
872.656	2998
872.785	3070
872.915	3233
873.044	3275
873.173	3195
873.303	3256
873.432	3256
873.561	3233
873.69	3138
873.819	3161
873.948	3218
874.077	3112
874.206	3024
874.335	3043
874.464	3199
874.593	3344
874.722	3226
874.851	3363
874.979	3298
875.108	3336
875.237	3165
875.365	3154
875.494	3127
875.623	3264
875.751	3032
875.88	3119
876.008	3195
876.136	3214
876.265	3363
876.393	3511
876.521	3409
876.65	3355
876.778	3264
876.906	3272
877.034	3184
877.162	3226
877.29	3180
877.418	3237
877.546	3233
877.674	3237
877.802	3214
877.93	3188
878.058	3142
878.185	3112
878.313	3241
878.441	3180
878.568	3100
878.696	3154
878.824	3264
878.951	3291
879.079	3462
879.206	3587
879.333	3412
879.461	3355
879.588	3298
879.715	3462
879.842	3549
879.97	3389
880.097	3138
880.224	3116
880.351	3180
880.478	3253
880.605	3207
880.732	3150
880.859	3515
880.986	3294
881.112	3332
881.239	3169
881.366	3032
881.493	2994
881.619	2994
881.746	3070
881.872	3051
881.999	3097
882.125	3131
882.252	3241
882.378	3317
882.505	3412
882.631	3241
882.757	3169
882.883	3218
883.01	3214
883.136	3135
883.262	3108
883.388	3089
883.514	3306
883.64	3405
883.766	3302
883.892	3180
884.018	3207
884.143	3428
884.269	3523
884.395	3188
884.52	3150
884.646	3188
884.772	3123
884.897	3112
885.023	3195
885.148	3348
885.274	3424
885.399	3355
885.524	3313
885.65	3279
885.775	3336
885.9	3325
886.025	3420
886.15	3367
886.275	3245
886.4	3218
886.525	3313
886.65	3260
886.775	3268
886.9	3469
887.025	3652
887.149	3378
887.274	3268
887.399	3188
887.523	3192
887.648	3180
887.773	3188
887.897	3344
888.021	3401
888.146	3287
888.27	3416
888.395	3519
888.519	3443
888.643	3416
888.767	3458
888.891	3279
889.015	3218
889.139	3310
889.263	3233
889.387	3424
889.511	3507
889.635	3397
889.759	3264
889.883	3279
890.006	3363
890.13	3420
890.254	3233
890.377	3313
890.501	3222
890.624	3157
890.748	3310
890.871	3146
890.995	3085
891.118	3077
891.241	3184
891.364	3203
891.488	3294
891.611	3176
891.734	3180
891.857	3317
891.98	3230
892.103	3321
892.226	3260
892.349	3207
892.471	3074
892.594	3199
892.717	3253
892.839	3245
892.962	3268
893.085	3378
893.207	3272
893.33	3135
893.452	3169
893.575	3317
893.697	3226
893.819	3431
893.941	3500
894.064	3416
894.186	3253
894.308	3275
894.43	3428
894.552	3488
894.674	3435
894.796	3275
894.918	3298
895.04	3253
895.161	3389
895.283	3370
895.405	3294
895.526	3389
895.648	3409
895.769	3367
895.891	3477
896.012	3466
896.134	3473
896.255	3378
896.376	3401
896.498	3386
896.619	3401
896.74	3348
896.861	3393
896.982	3660
897.103	3850
897.224	3568
897.345	3504
897.466	3428
897.587	3473
897.708	3652
897.828	3538
897.949	3412
898.07	3329
898.19	3458
898.311	3572
898.431	3447
898.552	3511
898.672	3610
898.792	3610
898.913	3511
899.033	3416
899.153	3268
899.273	3192
899.393	3237
899.513	3313
899.633	3313
899.753	3329
899.873	3241
899.993	3386
900.113	3344
900.232	3351
900.352	3325
900.472	3310
900.591	3207
900.711	3275
900.83	3211
900.95	3412
901.069	3473
901.189	3321
901.308	3195
901.427	3104
901.546	3203
901.665	3329
901.784	3317
901.904	3222
902.023	3093
902.141	2990
902.26	2979
902.379	3131
902.498	3070
902.617	3077
902.735	3157
902.854	3207
902.973	3222
903.091	3017
903.21	3066
903.328	3116
903.446	3127
903.565	3119
903.683	3180
903.801	3100
903.919	3214
904.038	3245
904.156	3169
904.274	3245
904.392	3268
904.51	3291
904.627	3298
904.745	3439
904.863	3507
904.981	3245
905.098	3104
905.216	3241
905.334	3253
905.451	3317
905.569	3294
905.686	3409
905.803	3431
905.921	3275
906.038	3439
906.155	3332
906.272	3245
906.389	3332
906.506	3176
906.623	3226
906.74	3237
906.857	3184
906.974	3275
907.091	3409
907.208	3564
907.324	3458
907.441	3439
907.557	3222
907.674	3268
907.79	3211
907.907	3272
908.023	3351
908.139	3389
908.256	3317
908.372	3344
908.488	3348
908.604	3264
908.72	3260
908.836	3283
908.952	3279
909.068	3332
909.184	3473
909.3	3374
909.415	3481
909.531	3428
909.647	3226
909.762	3291
909.878	3268
909.993	3386
910.108	3336
910.224	3336
910.339	3389
910.454	3336
910.57	3298
910.685	3214
910.8	3553
910.915	3473
911.03	3447
911.145	3214
911.259	3256
911.374	3260
911.489	3214
911.604	3192
911.718	3097
911.833	3154
911.947	3024
912.062	2963
912.176	3188
912.291	3192
912.405	3207
912.519	3401
912.633	3439
912.748	3317
912.862	3233
912.976	3100
913.09	3051
913.204	3154
913.318	3195
913.431	3294
913.545	3310
913.659	3393
913.772	3329
913.886	3195
914	3211
914.113	3367
914.226	3397
914.34	3344
914.453	3222
914.566	3386
914.68	3291
914.793	3294
914.906	3150
915.019	3116
915.132	3074
915.245	3146
915.358	3214
915.47	3195
915.583	3268
915.696	3287
915.809	3393
915.921	3428
916.034	3245
916.146	3279
916.259	3214
916.371	3405
916.483	3344
916.595	3298
916.708	3374
916.82	3329
916.932	3389
917.044	3374
917.156	3393
917.268	3256
917.38	3302
917.491	3302
917.603	3378
917.715	3431
917.826	3500
917.938	3405
918.049	3283
918.161	3500
918.272	3618
918.384	3587
918.495	3557
918.606	3363
918.717	3317
918.828	3401
918.939	3488
919.05	3329
919.161	3386
919.272	3241
919.383	3321
919.494	3530
919.604	3694
919.715	3545
919.826	3458
919.936	3507
920.047	3652
920.157	3622
920.267	3770
920.378	3618
920.488	3576
920.598	3812
920.708	4036
920.818	3823
920.928	3857
921.038	4021
921.148	3994
921.258	3743
921.368	3656
921.477	3595
921.587	3610
921.697	3523
921.806	3694
921.916	3538
922.025	3367
922.134	3431
922.244	3363
922.353	3454
922.462	3336
922.571	3245
922.68	3165
922.789	3138
922.898	3165
923.007	3116
923.116	3211
923.224	3188
923.333	3264
923.442	3173
923.55	3157
923.659	3203
923.767	3256
923.876	3127
923.984	3260
924.092	3188
924.201	3176
924.309	3245
924.417	3279
924.525	3214
924.633	3302
924.741	4059
924.849	3070
924.956	3291
925.064	3142
925.172	3077
925.279	3150
925.387	3245
925.494	3249
925.602	3409
925.709	3348
925.816	3214
925.924	3351
926.031	3393
926.138	3378
926.245	3431
926.352	3294
926.459	3435
926.566	3526
926.673	3348
926.779	3268
926.886	3264
926.993	3188
927.099	3173
927.206	3150
927.312	3169
927.419	3264
927.525	3233
927.631	3340
927.737	3192
927.843	3199
927.95	3036
928.056	3169
928.162	3188
928.267	3260
928.373	3762
928.479	3325
928.585	3100
928.69	3256
928.796	3321
928.901	3176
929.007	3066
929.112	3188
929.218	3203
929.323	3192
929.428	3203
929.533	3363
929.638	3138
929.743	3169
929.848	3310
929.953	3222
930.058	3157
930.163	3043
930.267	3051
930.372	3226
930.477	3032
930.581	3321
930.685	3199
930.79	3089
930.894	3165
930.998	3138
931.103	3287
931.207	2990
931.311	2982
931.415	2975
931.519	2788
931.623	2849
