Data from test_V78500241_511.txt Node
Date: Fri Mar 25 16:18:44 CST 2022
User: usil
Spectrometer: V785-0024
Trigger mode: 0
Integration Time (sec): 4.000000E-1
Scans to average: 1
Nonlinearity correction enabled: false
Boxcar width: 0
Storing dark spectrum: false
XAxis mode: Wavelengths
Number of Pixels in Spectrum: 1024
>>>>>Begin Spectral Data<<<<<
801.071	2891
801.214	2902
801.356	2838
801.499	2872
801.641	2876
801.783	2918
801.926	3017
802.068	2925
802.211	3001
802.353	2971
802.496	2941
802.638	3001
802.78	3013
802.923	3074
803.065	2960
803.208	2937
803.35	2891
803.492	2906
803.635	2933
803.777	2731
803.919	2864
804.061	3188
804.204	2948
804.346	2899
804.488	2807
804.63	2967
804.773	2868
804.915	2891
805.057	3028
805.199	2899
805.341	2971
805.483	3024
805.626	3047
805.768	2944
805.91	3085
806.052	3112
806.194	2982
806.336	3241
806.478	3047
806.62	2967
806.762	2998
806.904	3036
807.046	3161
807.188	2990
807.33	2925
807.472	3013
807.614	2918
807.756	3032
807.898	2944
808.04	2887
808.182	2986
808.324	3017
808.465	2906
808.607	2899
808.749	2842
808.891	2887
809.033	3028
809.174	2994
809.316	2952
809.458	2910
809.6	2807
809.741	2819
809.883	2754
810.025	2872
810.166	2906
810.308	2864
810.45	2910
810.591	2830
810.733	2777
810.875	2845
811.016	2785
811.158	2815
811.299	2823
811.441	2922
811.582	2910
811.724	2842
811.865	2868
812.007	2918
812.148	2925
812.29	2902
812.431	2925
812.573	2982
812.714	2975
812.855	3100
812.997	3085
813.138	3188
813.279	3055
813.421	3020
813.562	2967
813.703	2902
813.845	2929
813.986	2788
814.127	2727
814.268	2864
814.41	2861
814.551	2853
814.692	2868
814.833	2830
814.974	2922
815.115	2994
815.256	2887
815.397	2834
815.539	2906
815.68	2815
815.821	2845
815.962	2998
816.103	2971
816.244	2910
816.385	2876
816.526	3001
816.666	2937
816.807	2773
816.948	2925
817.089	2944
817.23	2861
817.371	2826
817.512	2853
817.653	2842
817.793	2868
817.934	2891
818.075	2982
818.216	3051
818.356	3032
818.497	2887
818.638	2861
818.778	2830
818.919	2815
819.06	2769
819.2	2910
819.341	2834
819.481	2826
819.622	2998
819.762	3142
819.903	3047
820.043	2967
820.184	2883
820.324	2918
820.465	3047
820.605	3043
820.746	3032
820.886	2986
821.026	3131
821.167	3165
821.307	3291
821.447	3272
821.588	3317
821.728	3226
821.868	3230
822.008	3089
822.149	3211
822.289	3264
822.429	3097
822.569	3108
822.709	3188
822.849	3028
822.99	3077
823.13	3203
823.27	3233
823.41	3138
823.55	3184
823.69	3119
823.83	3195
823.97	3131
824.11	3020
824.25	3009
824.389	3074
824.529	3104
824.669	3066
824.809	3268
824.949	3272
825.089	3249
825.228	3161
825.368	3009
825.508	3005
825.648	2963
825.787	3062
825.927	3036
826.067	2986
826.206	2960
826.346	3097
826.485	3127
826.625	3123
826.765	3245
826.904	3230
827.044	3051
827.183	2944
827.323	2914
827.462	3032
827.601	2941
827.741	2956
827.88	2979
828.02	2883
828.159	3009
828.298	3066
828.437	3138
828.577	3081
828.716	3260
828.855	3077
828.994	2944
829.134	2929
829.273	2937
829.412	2883
829.551	2895
829.69	2975
829.829	3024
829.968	3138
830.107	3055
830.246	3055
830.385	2929
830.524	2902
830.663	2845
830.802	2785
830.941	2682
831.08	2670
831.219	2788
831.357	2762
831.496	2982
831.635	2762
831.774	2693
831.913	2670
832.051	2571
832.19	2602
832.329	2727
832.467	2598
832.606	2511
832.744	2590
832.883	2606
833.022	2579
833.16	2678
833.299	2701
833.437	2716
833.576	2735
833.714	2743
833.852	2785
833.991	2792
834.129	2845
834.267	2845
834.406	2807
834.544	2887
834.682	2902
834.821	2883
834.959	3085
835.097	2914
835.235	3093
835.373	3028
835.511	3051
835.65	3001
835.788	2952
835.926	2872
836.064	2815
836.202	2899
836.34	3104
836.478	3211
836.615	3036
836.753	3169
836.891	3226
837.029	3173
837.167	3173
837.305	3097
837.443	3104
837.58	2971
837.718	3127
837.856	3104
837.993	3062
838.131	3169
838.269	3089
838.406	3127
838.544	3100
838.681	2979
838.819	2948
838.956	2834
839.094	2895
839.231	2918
839.369	3077
839.506	3378
839.643	3241
839.781	3017
839.918	2971
840.055	3055
840.193	3085
840.33	3070
840.467	3127
840.604	3157
840.742	3393
840.879	3074
841.016	3089
841.153	3112
841.29	3340
841.427	3321
841.564	3306
841.701	3321
841.838	3226
841.975	3192
842.112	3199
842.249	3081
842.385	3058
842.522	3275
842.659	3119
842.796	3093
842.933	3116
843.069	3043
843.206	3062
843.343	3169
843.479	3119
843.616	3150
843.752	2941
843.889	2891
844.025	3112
844.162	2876
844.298	3112
844.435	2986
844.571	2948
844.708	3097
844.844	3173
844.98	3264
845.117	3195
845.253	3058
845.389	3036
845.525	3127
845.661	3108
845.798	3032
845.934	3135
846.07	3070
846.206	3188
846.342	3374
846.478	3222
846.614	3100
846.75	3051
846.886	3062
847.022	3245
847.158	3154
847.294	3230
847.429	3264
847.565	3279
847.701	3496
847.837	3032
847.972	3039
848.108	3169
848.244	3123
848.379	3032
848.515	2982
848.65	2960
848.786	3001
848.921	3039
849.057	3119
849.192	3161
849.328	3131
849.463	3138
849.598	3085
849.734	3013
849.869	3005
850.004	2952
850.14	3017
850.275	2906
850.41	2853
850.545	2918
850.68	2960
850.815	2941
850.95	2971
851.085	3218
851.22	3112
851.355	3032
851.49	3001
851.625	3032
851.76	3017
851.895	2979
852.03	2925
852.165	3047
852.299	3165
852.434	3214
852.569	3161
852.703	3207
852.838	3268
852.973	3359
853.107	3382
853.242	3165
853.376	3100
853.511	2963
853.645	3039
853.78	3226
853.914	3104
854.048	3150
854.183	3043
854.317	3138
854.451	3306
854.585	3138
854.72	3062
854.854	3237
854.988	3097
855.122	3108
855.256	3013
855.39	3142
855.524	3310
855.658	3253
855.792	3131
855.926	3230
856.06	3233
856.194	3256
856.327	3161
856.461	3104
856.595	3089
856.729	3138
856.862	3233
856.996	3173
857.13	3211
857.263	3188
857.397	3287
857.53	3180
857.664	3169
857.797	3245
857.931	3264
858.064	3180
858.197	3207
858.331	3176
858.464	3104
858.597	3024
858.731	3138
858.864	3100
858.997	3112
859.13	3173
859.263	3173
859.396	3199
859.529	3123
859.662	3089
859.795	3039
859.928	3135
860.061	3241
860.194	3329
860.327	3161
860.46	3097
860.592	3230
860.725	3211
860.858	3294
860.99	3116
861.123	3077
861.256	3077
861.388	3154
861.521	3846
861.653	3028
861.786	2994
861.918	3039
862.05	3058
862.183	3123
862.315	3180
862.447	3169
862.58	3116
862.712	2979
862.844	2891
862.976	3024
863.108	2986
863.24	3431
863.372	2872
863.504	2998
863.636	2952
863.768	3009
863.9	3005
864.032	2952
864.164	2979
864.296	2998
864.428	3097
864.559	3100
864.691	3108
864.823	3112
864.954	3005
865.086	3062
865.217	2979
865.349	2971
865.48	3020
865.612	3024
865.743	3157
865.875	2998
866.006	2960
866.137	3013
866.269	2956
866.4	2944
866.531	2933
866.662	2876
866.793	2906
866.924	2899
867.055	2967
867.186	2944
867.317	2895
867.448	2876
867.579	2849
867.71	2834
867.841	2857
867.972	2925
868.103	2891
868.233	2902
868.364	2883
868.495	2933
868.625	3070
868.756	3226
868.886	2963
869.017	2982
869.147	3157
869.278	3150
869.408	3070
869.539	3055
869.669	3074
869.799	3066
869.929	3169
870.06	3123
870.19	3321
870.32	3321
870.45	3317
870.58	3351
870.71	3439
870.84	3443
870.97	3302
871.1	3253
871.23	3488
871.36	3515
871.489	3378
871.619	3386
871.749	3439
871.879	3458
872.008	3477
872.138	3389
872.267	3272
872.397	3142
872.526	3085
872.656	3017
872.785	3104
872.915	3230
873.044	3348
873.173	3222
873.303	3249
873.432	3264
873.561	3253
873.69	3161
873.819	3135
873.948	3180
874.077	3112
874.206	3051
874.335	3127
874.464	3165
874.593	3306
874.722	3222
874.851	3431
874.979	3351
875.108	3306
875.237	3192
875.365	3173
875.494	3165
875.623	3272
875.751	3093
875.88	3119
876.008	3214
876.136	3241
876.265	3397
876.393	3477
876.521	3412
876.65	3355
876.778	3310
876.906	3241
877.034	3207
877.162	3230
877.29	3180
877.418	3264
877.546	3272
877.674	3226
877.802	3237
877.93	3237
878.058	3165
878.185	3131
878.313	3211
878.441	3195
878.568	3028
878.696	3154
878.824	3256
878.951	3287
879.079	3450
879.206	3622
879.333	3477
879.461	3317
879.588	3336
879.715	3549
879.842	3622
879.97	3363
880.097	3211
880.224	3173
880.351	3214
880.478	3272
880.605	3230
880.732	3192
880.859	3500
880.986	3306
881.112	3336
881.239	3249
881.366	3157
881.493	3058
881.619	3097
881.746	3116
881.872	3135
881.999	3157
882.125	3192
882.252	3268
882.378	3359
882.505	3462
882.631	3321
882.757	3214
882.883	3272
883.01	3230
883.136	3203
883.262	3161
883.388	3154
883.514	3310
883.64	3401
883.766	3359
883.892	3218
884.018	3287
884.143	3481
884.269	3606
884.395	3256
884.52	3188
884.646	3260
884.772	3131
884.897	3146
885.023	3241
885.148	3374
885.274	3431
885.399	3393
885.524	3321
885.65	3272
885.775	3313
885.9	3302
886.025	3496
886.15	3416
886.275	3306
886.4	3287
886.525	3340
886.65	3306
886.775	3298
886.9	3511
887.025	3675
887.149	3454
887.274	3287
887.399	3203
887.523	3237
887.648	3211
887.773	3253
887.897	3443
888.021	3397
888.146	3351
888.27	3466
888.395	3599
888.519	3473
888.643	3485
888.767	3500
888.891	3378
889.015	3268
889.139	3310
889.263	3264
889.387	3431
889.511	3553
889.635	3450
889.759	3363
889.883	3348
890.006	3424
890.13	3534
890.254	3291
890.377	3386
890.501	3264
890.624	3218
890.748	3310
890.871	3211
890.995	3131
891.118	3119
891.241	3230
891.364	3249
891.488	3359
891.611	3241
891.734	3230
891.857	3302
891.98	3336
892.103	3351
892.226	3317
892.349	3272
892.471	3150
892.594	3222
892.717	3317
892.839	3325
892.962	3332
893.085	3401
893.207	3351
893.33	3211
893.452	3241
893.575	3397
893.697	3275
893.819	3488
893.941	3545
894.064	3462
894.186	3279
894.308	3310
894.43	3477
894.552	3526
894.674	3549
894.796	3294
894.918	3367
895.04	3302
895.161	3454
895.283	3424
895.405	3355
895.526	3401
895.648	3466
895.769	3439
895.891	3496
896.012	3469
896.134	3488
896.255	3431
896.376	3435
896.498	3367
896.619	3439
896.74	3367
896.861	3412
896.982	3713
897.103	3884
897.224	3595
897.345	3580
897.466	3435
897.587	3530
897.708	3618
897.828	3572
897.949	3447
898.07	3370
898.19	3405
898.311	3652
898.431	3504
898.552	3568
898.672	3610
898.792	3637
898.913	3584
899.033	3469
899.153	3367
899.273	3249
899.393	3348
899.513	3329
899.633	3363
899.753	3382
899.873	3310
899.993	3389
900.113	3340
900.232	3477
900.352	3370
900.472	3329
900.591	3241
900.711	3317
900.83	3294
900.95	3454
901.069	3538
901.189	3389
901.308	3203
901.427	3192
901.546	3260
901.665	3313
901.784	3348
901.904	3256
902.023	3195
902.141	3047
902.26	3055
902.379	3169
902.498	3123
902.617	3051
902.735	3272
902.854	3233
902.973	3222
903.091	3039
903.21	3116
903.328	3154
903.446	3142
903.565	3104
903.683	3218
903.801	3146
903.919	3253
904.038	3321
904.156	3165
904.274	3313
904.392	3291
904.51	3298
904.627	3386
904.745	3420
904.863	3530
904.981	3294
905.098	3195
905.216	3260
905.334	3329
905.451	3351
905.569	3363
905.686	3450
905.803	3469
905.921	3351
906.038	3469
906.155	3367
906.272	3321
906.389	3348
906.506	3230
906.623	3291
906.74	3287
906.857	3207
906.974	3237
907.091	3469
907.208	3526
907.324	3526
907.441	3409
907.557	3245
907.674	3241
907.79	3237
907.907	3272
908.023	3424
908.139	3370
908.256	3310
908.372	3389
908.488	3363
908.604	3291
908.72	3272
908.836	3317
908.952	3294
909.068	3386
909.184	3500
909.3	3420
909.415	3450
909.531	3488
909.647	3321
909.762	3310
909.878	3302
909.993	3367
910.108	3355
910.224	3340
910.339	3389
910.454	3370
910.57	3321
910.685	3283
910.8	3622
910.915	3584
911.03	3462
911.145	3275
911.259	3302
911.374	3348
911.489	3313
911.604	3264
911.718	3142
911.833	3173
911.947	3047
912.062	2994
912.176	3184
912.291	3237
912.405	3260
912.519	3485
912.633	3496
912.748	3393
912.862	3313
912.976	3222
913.09	3100
913.204	3135
913.318	3291
913.431	3355
913.545	3355
913.659	3409
913.772	3355
913.886	3237
914	3268
914.113	3370
914.226	3439
914.34	3344
914.453	3211
914.566	3412
914.68	3294
914.793	3355
914.906	3173
915.019	3138
915.132	3097
915.245	3195
915.358	3233
915.47	3218
915.583	3275
915.696	3302
915.809	3409
915.921	3450
916.034	3313
916.146	3317
916.259	3214
916.371	3409
916.483	3363
916.595	3332
916.708	3325
916.82	3340
916.932	3351
917.044	3386
917.156	3325
917.268	3226
917.38	3306
917.491	3317
917.603	3431
917.715	3447
917.826	3515
917.938	3393
918.049	3310
918.161	3439
918.272	3568
918.384	3572
918.495	3511
918.606	3336
918.717	3313
918.828	3409
918.939	3401
919.05	3329
919.161	3405
919.272	3233
919.383	3294
919.494	3557
919.604	3671
919.715	3542
919.826	3450
919.936	3492
920.047	3576
920.157	3584
920.267	3785
920.378	3587
920.488	3553
920.598	3789
920.708	3991
920.818	3842
920.928	3835
921.038	4071
921.148	3972
921.258	3679
921.368	3622
921.477	3648
921.587	3580
921.697	3439
921.806	3629
921.916	3515
922.025	3386
922.134	3416
922.244	3332
922.353	3439
922.462	3306
922.571	3237
922.68	3104
922.789	3047
922.898	3142
923.007	3081
923.116	3226
923.224	3214
923.333	3173
923.442	3123
923.55	3131
923.659	3169
923.767	3294
923.876	3127
923.984	3268
924.092	3154
924.201	3173
924.309	3218
924.417	3291
924.525	3218
924.633	3233
924.741	4200
924.849	3097
924.956	3310
925.064	3116
925.172	3047
925.279	3131
925.387	3199
925.494	3203
925.602	3412
925.709	3317
925.816	3195
925.924	3294
926.031	3378
926.138	3340
926.245	3378
926.352	3237
926.459	3443
926.566	3428
926.673	3363
926.779	3264
926.886	3233
926.993	3180
927.099	3142
927.206	3142
927.312	3150
927.419	3226
927.525	3237
927.631	3268
927.737	3176
927.843	3116
927.95	3032
928.056	3135
928.162	3188
928.267	3256
928.373	3800
928.479	3313
928.585	3062
928.69	3253
928.796	3306
928.901	3169
929.007	3081
929.112	3226
929.218	3207
929.323	3135
929.428	3165
929.533	3348
929.638	3157
929.743	3203
929.848	3291
929.953	3256
930.058	3214
930.163	3009
930.267	3055
930.372	3211
930.477	3066
930.581	3325
930.685	3218
930.79	3074
930.894	3154
930.998	3119
931.103	3287
931.207	2998
931.311	2982
931.415	2937
931.519	2796
931.623	2800
