Data from test_V78500241_1490.txt Node
Date: Fri Mar 25 16:25:31 CST 2022
User: usil
Spectrometer: V785-0024
Trigger mode: 0
Integration Time (sec): 4.000000E-1
Scans to average: 1
Nonlinearity correction enabled: false
Boxcar width: 0
Storing dark spectrum: false
XAxis mode: Wavelengths
Number of Pixels in Spectrum: 1024
>>>>>Begin Spectral Data<<<<<
801.071	2891
801.214	2944
801.356	2849
801.499	2906
801.641	2864
801.783	2914
801.926	3058
802.068	2971
802.211	3017
802.353	3089
802.496	2979
802.638	2994
802.78	3055
802.923	3070
803.065	2990
803.208	2895
803.35	2891
803.492	2937
803.635	2914
803.777	2735
803.919	2872
804.061	3161
804.204	2975
804.346	2918
804.488	2811
804.63	2956
804.773	2876
804.915	2868
805.057	3089
805.199	2895
805.341	2941
805.483	3043
805.626	3009
805.768	2933
805.91	3055
806.052	3131
806.194	3013
806.336	3222
806.478	3009
806.62	2975
806.762	2971
806.904	3074
807.046	3207
807.188	2990
807.33	2952
807.472	2967
807.614	2880
807.756	2967
807.898	2895
808.04	2895
808.182	2952
808.324	2975
808.465	2845
808.607	2857
808.749	2785
808.891	2834
809.033	3005
809.174	2982
809.316	2914
809.458	2906
809.6	2750
809.741	2769
809.883	2769
810.025	2826
810.166	2868
810.308	2891
810.45	2826
810.591	2762
810.733	2762
810.875	2815
811.016	2766
811.158	2800
811.299	2804
811.441	2880
811.582	2918
811.724	2811
811.865	2830
812.007	2864
812.148	2880
812.29	2853
812.431	2883
812.573	2887
812.714	2967
812.855	3070
812.997	3024
813.138	3100
813.279	3017
813.421	2998
813.562	2948
813.703	2880
813.845	2906
813.986	2785
814.127	2708
814.268	2857
814.41	2842
814.551	2807
814.692	2823
814.833	2826
814.974	2887
815.115	2960
815.256	2804
815.397	2823
815.539	2838
815.68	2758
815.821	2792
815.962	2933
816.103	2925
816.244	2880
816.385	2872
816.526	2994
816.666	2910
816.807	2754
816.948	2864
817.089	2918
817.23	2804
817.371	2762
817.512	2788
817.653	2834
817.793	2804
817.934	2902
818.075	2971
818.216	2967
818.356	2982
818.497	2868
818.638	2804
818.778	2819
818.919	2804
819.06	2762
819.2	2853
819.341	2773
819.481	2826
819.622	2941
819.762	3085
819.903	3062
820.043	2918
820.184	2872
820.324	2895
820.465	2998
820.605	2948
820.746	3055
820.886	2891
821.026	3074
821.167	3184
821.307	3245
821.447	3272
821.588	3233
821.728	3222
821.868	3165
822.008	3104
822.149	3180
822.289	3192
822.429	3077
822.569	3074
822.709	3203
822.849	2979
822.99	3036
823.13	3157
823.27	3188
823.41	3089
823.55	3123
823.69	3154
823.83	3173
823.97	3085
824.11	2998
824.25	2998
824.389	3062
824.529	3100
824.669	3062
824.809	3169
824.949	3260
825.089	3195
825.228	3104
825.368	2990
825.508	2941
825.648	2982
825.787	3001
825.927	2998
826.067	2952
826.206	2948
826.346	3032
826.485	3070
826.625	3077
826.765	3253
826.904	3256
827.044	2979
827.183	2975
827.323	2883
827.462	2956
827.601	2922
827.741	2956
827.88	2941
828.02	2883
828.159	2967
828.298	3043
828.437	3097
828.577	3028
828.716	3222
828.855	3066
828.994	2910
829.134	2857
829.273	2910
829.412	2849
829.551	2872
829.69	2880
829.829	2971
829.968	3077
830.107	2979
830.246	3001
830.385	2918
830.524	2880
830.663	2804
830.802	2743
830.941	2682
831.08	2659
831.219	2762
831.357	2769
831.496	2929
831.635	2724
831.774	2644
831.913	2667
832.051	2522
832.19	2587
832.329	2648
832.467	2522
832.606	2503
832.744	2583
832.883	2564
833.022	2583
833.16	2670
833.299	2689
833.437	2705
833.576	2712
833.714	2701
833.852	2758
833.991	2758
834.129	2800
834.267	2819
834.406	2754
834.544	2876
834.682	2880
834.821	2876
834.959	3077
835.097	2933
835.235	3051
835.373	2967
835.511	3043
835.65	2967
835.788	2925
835.926	2853
836.064	2788
836.202	2804
836.34	3055
836.478	3104
836.615	3020
836.753	3154
836.891	3211
837.029	3161
837.167	3089
837.305	3066
837.443	3039
837.58	2952
837.718	3100
837.856	3058
837.993	3028
838.131	3097
838.269	3127
838.406	3077
838.544	3062
838.681	2922
838.819	2899
838.956	2796
839.094	2811
839.231	2880
839.369	3017
839.506	3359
839.643	3214
839.781	3020
839.918	2960
840.055	3077
840.193	3051
840.33	3070
840.467	3093
840.604	3157
840.742	3389
840.879	3062
841.016	3024
841.153	3097
841.29	3306
841.427	3329
841.564	3245
841.701	3306
841.838	3173
841.975	3188
842.112	3230
842.249	3104
842.385	3047
842.522	3226
842.659	3066
842.796	3036
842.933	3085
843.069	3051
843.206	3036
843.343	3199
843.479	3119
843.616	3138
843.752	2933
843.889	2910
844.025	3070
844.162	2838
844.298	3051
844.435	2937
844.571	2872
844.708	3070
844.844	3180
844.98	3279
845.117	3165
845.253	3024
845.389	3017
845.525	3074
845.661	3127
845.798	2960
845.934	3085
846.07	3039
846.206	3203
846.342	3313
846.478	3192
846.614	3066
846.75	3077
846.886	2994
847.022	3245
847.158	3116
847.294	3211
847.429	3230
847.565	3222
847.701	3481
847.837	2994
847.972	2982
848.108	3165
848.244	3138
848.379	2975
848.515	2941
848.65	2937
848.786	2918
848.921	2990
849.057	3081
849.192	3146
849.328	3097
849.463	3119
849.598	3085
849.734	3017
849.869	2994
850.004	2910
850.14	2982
850.275	2925
850.41	2830
850.545	2861
850.68	2925
850.815	2944
850.95	2994
851.085	3188
851.22	3085
851.355	3013
851.49	2971
851.625	2982
851.76	3013
851.895	2918
852.03	2902
852.165	3036
852.299	3081
852.434	3165
852.569	3112
852.703	3173
852.838	3211
852.973	3317
853.107	3321
853.242	3119
853.376	3093
853.511	2994
853.645	3017
853.78	3256
853.914	3116
854.048	3123
854.183	3074
854.317	3127
854.451	3283
854.585	3119
854.72	3089
854.854	3184
854.988	3036
855.122	3074
855.256	2990
855.39	3097
855.524	3245
855.658	3176
855.792	3131
855.926	3214
856.06	3226
856.194	3287
856.327	3169
856.461	3039
856.595	3043
856.729	3055
856.862	3214
856.996	3154
857.13	3203
857.263	3222
857.397	3268
857.53	3085
857.664	3230
857.797	3233
857.931	3233
858.064	3146
858.197	3218
858.331	3097
858.464	3070
858.597	2956
858.731	3089
858.864	3077
858.997	3085
859.13	3161
859.263	3180
859.396	3184
859.529	3055
859.662	3066
859.795	3066
859.928	3093
860.061	3237
860.194	3256
860.327	3097
860.46	3066
860.592	3211
860.725	3245
860.858	3253
860.99	3104
861.123	3032
861.256	3047
861.388	3123
861.521	3838
861.653	3009
861.786	2998
861.918	2998
862.05	3055
862.183	3093
862.315	3097
862.447	3176
862.58	3055
862.712	2971
862.844	2883
862.976	3028
863.108	2998
863.24	3287
863.372	2857
863.504	2979
863.636	2960
863.768	3039
863.9	3017
864.032	2910
864.164	2922
864.296	3005
864.428	3062
864.559	3138
864.691	3112
864.823	3032
864.954	3028
865.086	3020
865.217	2952
865.349	2952
865.48	2979
865.612	2979
865.743	3131
865.875	3001
866.006	2952
866.137	2952
866.269	2944
866.4	2933
866.531	2910
866.662	2891
866.793	2876
866.924	2906
867.055	2952
867.186	2922
867.317	2868
867.448	2804
867.579	2853
867.71	2861
867.841	2857
867.972	2899
868.103	2872
868.233	2868
868.364	2872
868.495	2857
868.625	3055
868.756	3195
868.886	2975
869.017	3009
869.147	3157
869.278	3157
869.408	3024
869.539	2975
869.669	3077
869.799	3051
869.929	3108
870.06	3089
870.19	3329
870.32	3241
870.45	3298
870.58	3355
870.71	3435
870.84	3485
870.97	3306
871.1	3233
871.23	3458
871.36	3439
871.489	3336
871.619	3359
871.749	3355
871.879	3439
872.008	3435
872.138	3332
872.267	3272
872.397	3176
872.526	3081
872.656	2986
872.785	3100
872.915	3237
873.044	3287
873.173	3199
873.303	3249
873.432	3256
873.561	3192
873.69	3127
873.819	3180
873.948	3165
874.077	3104
874.206	3039
874.335	3074
874.464	3207
874.593	3329
874.722	3241
874.851	3401
874.979	3348
875.108	3279
875.237	3188
875.365	3119
875.494	3138
875.623	3203
875.751	3055
875.88	3104
876.008	3180
876.136	3237
876.265	3363
876.393	3496
876.521	3405
876.65	3389
876.778	3310
876.906	3268
877.034	3195
877.162	3241
877.29	3203
877.418	3226
877.546	3173
877.674	3199
877.802	3211
877.93	3199
878.058	3135
878.185	3070
878.313	3192
878.441	3180
878.568	3043
878.696	3157
878.824	3199
878.951	3275
879.079	3473
879.206	3580
879.333	3431
879.461	3287
879.588	3374
879.715	3469
879.842	3587
879.97	3340
880.097	3154
880.224	3058
880.351	3199
880.478	3214
880.605	3169
880.732	3203
880.859	3477
880.986	3291
881.112	3321
881.239	3188
881.366	3051
881.493	3032
881.619	3028
881.746	3039
881.872	3081
881.999	3077
882.125	3154
882.252	3256
882.378	3287
882.505	3409
882.631	3241
882.757	3142
882.883	3233
883.01	3218
883.136	3127
883.262	3100
883.388	3055
883.514	3374
883.64	3344
883.766	3306
883.892	3214
884.018	3294
884.143	3401
884.269	3564
884.395	3218
884.52	3169
884.646	3169
884.772	3150
884.897	3100
885.023	3161
885.148	3370
885.274	3431
885.399	3374
885.524	3313
885.65	3260
885.775	3344
885.9	3272
886.025	3454
886.15	3405
886.275	3294
886.4	3256
886.525	3340
886.65	3283
886.775	3294
886.9	3500
887.025	3660
887.149	3439
887.274	3298
887.399	3230
887.523	3233
887.648	3203
887.773	3237
887.897	3386
888.021	3462
888.146	3298
888.27	3481
888.395	3572
888.519	3481
888.643	3477
888.767	3428
888.891	3351
889.015	3253
889.139	3329
889.263	3302
889.387	3450
889.511	3576
889.635	3496
889.759	3336
889.883	3332
890.006	3462
890.13	3534
890.254	3355
890.377	3370
890.501	3249
890.624	3211
890.748	3367
890.871	3214
890.995	3123
891.118	3093
891.241	3199
891.364	3260
891.488	3359
891.611	3230
891.734	3241
891.857	3344
891.98	3272
892.103	3351
892.226	3351
892.349	3245
892.471	3138
892.594	3287
892.717	3321
892.839	3325
892.962	3340
893.085	3405
893.207	3348
893.33	3199
893.452	3287
893.575	3397
893.697	3256
893.819	3492
893.941	3561
894.064	3485
894.186	3294
894.308	3272
894.43	3469
894.552	3595
894.674	3534
894.796	3283
894.918	3332
895.04	3321
895.161	3439
895.283	3409
895.405	3317
895.526	3405
895.648	3420
895.769	3462
895.891	3469
896.012	3507
896.134	3496
896.255	3424
896.376	3389
896.498	3386
896.619	3439
896.74	3439
896.861	3450
896.982	3743
897.103	3884
897.224	3625
897.345	3561
897.466	3481
897.587	3507
897.708	3648
897.828	3606
897.949	3466
898.07	3363
898.19	3431
898.311	3663
898.431	3492
898.552	3534
898.672	3603
898.792	3584
898.913	3523
899.033	3443
899.153	3306
899.273	3249
899.393	3306
899.513	3370
899.633	3313
899.753	3367
899.873	3367
899.993	3428
900.113	3336
900.232	3359
900.352	3416
900.472	3329
900.591	3226
900.711	3313
900.83	3241
900.95	3435
901.069	3523
901.189	3355
901.308	3233
901.427	3195
901.546	3233
901.665	3306
901.784	3363
901.904	3218
902.023	3161
902.141	3081
902.26	3039
902.379	3123
902.498	3093
902.617	3062
902.735	3214
902.854	3249
902.973	3237
903.091	3108
903.21	3058
903.328	3173
903.446	3146
903.565	3123
903.683	3268
903.801	3154
903.919	3249
904.038	3302
904.156	3211
904.274	3317
904.392	3283
904.51	3275
904.627	3370
904.745	3458
904.863	3534
904.981	3275
905.098	3253
905.216	3272
905.334	3306
905.451	3325
905.569	3332
905.686	3428
905.803	3485
905.921	3310
906.038	3469
906.155	3359
906.272	3321
906.389	3401
906.506	3283
906.623	3272
906.74	3298
906.857	3211
906.974	3294
907.091	3443
907.208	3561
907.324	3519
907.441	3382
907.557	3275
907.674	3245
907.79	3218
907.907	3253
908.023	3401
908.139	3405
908.256	3348
908.372	3412
908.488	3340
908.604	3264
908.72	3268
908.836	3374
908.952	3306
909.068	3351
909.184	3511
909.3	3420
909.415	3477
909.531	3492
909.647	3336
909.762	3306
909.878	3325
909.993	3389
910.108	3359
910.224	3359
910.339	3450
910.454	3370
910.57	3321
910.685	3279
910.8	3633
910.915	3557
911.03	3447
911.145	3264
911.259	3283
911.374	3340
911.489	3279
911.604	3237
911.718	3138
911.833	3199
911.947	3062
912.062	3017
912.176	3222
912.291	3233
912.405	3241
912.519	3416
912.633	3477
912.748	3348
912.862	3329
912.976	3207
913.09	3081
913.204	3157
913.318	3249
913.431	3344
913.545	3367
913.659	3439
913.772	3359
913.886	3249
914	3256
914.113	3370
914.226	3420
914.34	3397
914.453	3222
914.566	3424
914.68	3313
914.793	3336
914.906	3150
915.019	3135
915.132	3097
915.245	3203
915.358	3260
915.47	3275
915.583	3275
915.696	3340
915.809	3447
915.921	3443
916.034	3268
916.146	3302
916.259	3249
916.371	3428
916.483	3428
916.595	3287
916.708	3355
916.82	3370
916.932	3401
917.044	3386
917.156	3378
917.268	3291
917.38	3313
917.491	3302
917.603	3389
917.715	3492
917.826	3507
917.938	3355
918.049	3279
918.161	3469
918.272	3591
918.384	3595
918.495	3526
918.606	3336
918.717	3253
918.828	3397
918.939	3443
919.05	3359
919.161	3389
919.272	3211
919.383	3287
919.494	3519
919.604	3686
919.715	3542
919.826	3428
919.936	3511
920.047	3606
920.157	3587
920.267	3808
920.378	3603
920.488	3564
920.598	3804
920.708	3987
920.818	3835
920.928	3831
921.038	4036
921.148	4044
921.258	3759
921.368	3622
921.477	3622
921.587	3580
921.697	3481
921.806	3648
921.916	3504
922.025	3389
922.134	3405
922.244	3348
922.353	3462
922.462	3298
922.571	3272
922.68	3154
922.789	3062
922.898	3161
923.007	3135
923.116	3260
923.224	3203
923.333	3199
923.442	3142
923.55	3089
923.659	3165
923.767	3275
923.876	3192
923.984	3260
924.092	3150
924.201	3199
924.309	3245
924.417	3256
924.525	3211
924.633	3226
924.741	4219
924.849	3085
924.956	3249
925.064	3112
925.172	3085
925.279	3104
925.387	3222
925.494	3237
925.602	3382
925.709	3340
925.816	3226
925.924	3321
926.031	3431
926.138	3363
926.245	3374
926.352	3260
926.459	3424
926.566	3504
926.673	3370
926.779	3287
926.886	3226
926.993	3207
927.099	3135
927.206	3154
927.312	3161
927.419	3256
927.525	3184
927.631	3329
927.737	3180
927.843	3131
927.95	3028
928.056	3169
928.162	3249
928.267	3241
928.373	3816
928.479	3344
928.585	3074
928.69	3218
928.796	3294
928.901	3161
929.007	3032
929.112	3214
929.218	3222
929.323	3192
929.428	3188
929.533	3378
929.638	3138
929.743	3180
929.848	3230
929.953	3211
930.058	3176
930.163	3009
930.267	3074
930.372	3180
930.477	3062
930.581	3370
930.685	3192
930.79	3074
930.894	3154
930.998	3119
931.103	3321
931.207	2979
931.311	2967
931.415	2918
931.519	2773
931.623	2807
