Data from test_V78500241_681.txt Node
Date: Fri Mar 25 16:19:55 CST 2022
User: usil
Spectrometer: V785-0024
Trigger mode: 0
Integration Time (sec): 4.000000E-1
Scans to average: 1
Nonlinearity correction enabled: false
Boxcar width: 0
Storing dark spectrum: false
XAxis mode: Wavelengths
Number of Pixels in Spectrum: 1024
>>>>>Begin Spectral Data<<<<<
801.071	2914
801.214	2948
801.356	2838
801.499	2891
801.641	2857
801.783	2929
801.926	3047
802.068	2929
802.211	2982
802.353	3020
802.496	2937
802.638	3020
802.78	3032
802.923	3043
803.065	2979
803.208	2902
803.35	2868
803.492	2952
803.635	2922
803.777	2727
803.919	2864
804.061	3188
804.204	2933
804.346	2929
804.488	2845
804.63	2998
804.773	2880
804.915	2906
805.057	3070
805.199	2925
805.341	2979
805.483	3017
805.626	3005
805.768	2944
805.91	3112
806.052	3104
806.194	2998
806.336	3226
806.478	3028
806.62	2956
806.762	2960
806.904	3077
807.046	3146
807.188	2971
807.33	2933
807.472	2979
807.614	2880
807.756	2979
807.898	2918
808.04	2906
808.182	2982
808.324	2948
808.465	2868
808.607	2880
808.749	2781
808.891	2826
809.033	3001
809.174	2982
809.316	2895
809.458	2891
809.6	2758
809.741	2773
809.883	2785
810.025	2861
810.166	2842
810.308	2845
810.45	2849
810.591	2777
810.733	2796
810.875	2864
811.016	2769
811.158	2758
811.299	2811
811.441	2895
811.582	2891
811.724	2796
811.865	2838
812.007	2887
812.148	2861
812.29	2853
812.431	2872
812.573	2918
812.714	2982
812.855	2990
812.997	3051
813.138	3112
813.279	3013
813.421	2971
813.562	2948
813.703	2872
813.845	2880
813.986	2796
814.127	2720
814.268	2819
814.41	2845
814.551	2823
814.692	2845
814.833	2811
814.974	2834
815.115	2948
815.256	2811
815.397	2807
815.539	2842
815.68	2796
815.821	2807
815.962	2929
816.103	2933
816.244	2853
816.385	2838
816.526	2967
816.666	2918
816.807	2693
816.948	2864
817.089	2929
817.23	2872
817.371	2819
817.512	2788
817.653	2811
817.793	2845
817.934	2845
818.075	2963
818.216	2979
818.356	3020
818.497	2864
818.638	2807
818.778	2834
818.919	2811
819.06	2724
819.2	2887
819.341	2788
819.481	2788
819.622	2899
819.762	3100
819.903	3039
820.043	2887
820.184	2899
820.324	2929
820.465	2998
820.605	3024
820.746	3009
820.886	2910
821.026	3116
821.167	3165
821.307	3237
821.447	3264
821.588	3256
821.728	3203
821.868	3173
822.008	3081
822.149	3157
822.289	3203
822.429	3085
822.569	3093
822.709	3188
822.849	2975
822.99	3039
823.13	3116
823.27	3192
823.41	3138
823.55	3154
823.69	3116
823.83	3218
823.97	3097
824.11	3020
824.25	3009
824.389	3055
824.529	3089
824.669	3017
824.809	3157
824.949	3260
825.089	3222
825.228	3169
825.368	3036
825.508	2967
825.648	2918
825.787	3005
825.927	3009
826.067	2944
826.206	2922
826.346	3043
826.485	3077
826.625	3112
826.765	3287
826.904	3226
827.044	2986
827.183	2895
827.323	2853
827.462	2963
827.601	2895
827.741	2914
827.88	2956
828.02	2853
828.159	2956
828.298	3024
828.437	3108
828.577	3043
828.716	3233
828.855	3070
828.994	2883
829.134	2857
829.273	2922
829.412	2864
829.551	2861
829.69	2849
829.829	2986
829.968	3161
830.107	3001
830.246	3024
830.385	2902
830.524	2868
830.663	2777
830.802	2720
830.941	2621
831.08	2648
831.219	2731
831.357	2746
831.496	2967
831.635	2701
831.774	2655
831.913	2697
832.051	2530
832.19	2590
832.329	2697
832.467	2499
832.606	2461
832.744	2568
832.883	2602
833.022	2549
833.16	2678
833.299	2648
833.437	2659
833.576	2655
833.714	2724
833.852	2716
833.991	2766
834.129	2823
834.267	2838
834.406	2788
834.544	2864
834.682	2872
834.821	2868
834.959	3032
835.097	2868
835.235	3070
835.373	2986
835.511	3013
835.65	2944
835.788	2937
835.926	2792
836.064	2834
836.202	2815
836.34	3074
836.478	3146
836.615	3028
836.753	3085
836.891	3226
837.029	3157
837.167	3085
837.305	3051
837.443	3062
837.58	2967
837.718	3123
837.856	3062
837.993	3020
838.131	3097
838.269	3074
838.406	3097
838.544	3055
838.681	2952
838.819	2902
838.956	2830
839.094	2823
839.231	2918
839.369	3013
839.506	3359
839.643	3222
839.781	3005
839.918	2975
840.055	3043
840.193	3085
840.33	3047
840.467	3055
840.604	3127
840.742	3397
840.879	3024
841.016	3032
841.153	3138
841.29	3302
841.427	3313
841.564	3256
841.701	3287
841.838	3195
841.975	3161
842.112	3218
842.249	3039
842.385	3062
842.522	3256
842.659	3085
842.796	3077
842.933	3127
843.069	3024
843.206	3009
843.343	3157
843.479	3116
843.616	3127
843.752	2887
843.889	2872
844.025	3081
844.162	2864
844.298	3051
844.435	2941
844.571	2899
844.708	3066
844.844	3214
844.98	3222
845.117	3192
845.253	3058
845.389	2979
845.525	3089
845.661	3085
845.798	3039
845.934	3146
846.07	3051
846.206	3237
846.342	3310
846.478	3260
846.614	3100
846.75	3058
846.886	3032
847.022	3287
847.158	3112
847.294	3222
847.429	3237
847.565	3195
847.701	3481
847.837	3047
847.972	2979
848.108	3138
848.244	3131
848.379	2979
848.515	2910
848.65	2914
848.786	2971
848.921	2994
849.057	3100
849.192	3142
849.328	3081
849.463	3085
849.598	3036
849.734	3036
849.869	2956
850.004	2872
850.14	2941
850.275	2910
850.41	2849
850.545	2857
850.68	2941
850.815	2956
850.95	3009
851.085	3192
851.22	3077
851.355	3062
851.49	3005
851.625	2998
851.76	2967
851.895	2944
852.03	2914
852.165	3043
852.299	3089
852.434	3165
852.569	3127
852.703	3142
852.838	3237
852.973	3306
853.107	3325
853.242	3138
853.376	3112
853.511	2971
853.645	3039
853.78	3233
853.914	3112
854.048	3074
854.183	3051
854.317	3127
854.451	3291
854.585	3131
854.72	3055
854.854	3199
854.988	3032
855.122	3081
855.256	3017
855.39	3138
855.524	3226
855.658	3142
855.792	3150
855.926	3192
856.06	3222
856.194	3268
856.327	3146
856.461	3108
856.595	3036
856.729	3081
856.862	3222
856.996	3157
857.13	3184
857.263	3180
857.397	3260
857.53	3119
857.664	3211
857.797	3230
857.931	3260
858.064	3169
858.197	3218
858.331	3127
858.464	3070
858.597	3009
858.731	3123
858.864	3100
858.997	3100
859.13	3150
859.263	3135
859.396	3203
859.529	3058
859.662	3066
859.795	3058
859.928	3135
860.061	3268
860.194	3272
860.327	3123
860.46	3085
860.592	3253
860.725	3260
860.858	3245
860.99	3123
861.123	3032
861.256	3047
861.388	3154
861.521	3941
861.653	2994
861.786	3020
861.918	3017
862.05	3089
862.183	3089
862.315	3173
862.447	3173
862.58	3085
862.712	2948
862.844	2853
862.976	3043
863.108	2979
863.24	3412
863.372	2902
863.504	2967
863.636	2922
863.768	3039
863.9	3001
864.032	2902
864.164	2986
864.296	3009
864.428	3116
864.559	3104
864.691	3074
864.823	3081
864.954	3017
865.086	3081
865.217	2998
865.349	2948
865.48	2998
865.612	3013
865.743	3138
865.875	2963
866.006	2929
866.137	2960
866.269	2941
866.4	2925
866.531	2899
866.662	2906
866.793	2883
866.924	2891
867.055	2971
867.186	2929
867.317	2883
867.448	2838
867.579	2861
867.71	2826
867.841	2830
867.972	2899
868.103	2937
868.233	2868
868.364	2872
868.495	2925
868.625	3043
868.756	3138
868.886	2967
869.017	3017
869.147	3184
869.278	3077
869.408	3070
869.539	3036
869.669	3097
869.799	3001
869.929	3112
870.06	3131
870.19	3340
870.32	3272
870.45	3268
870.58	3367
870.71	3450
870.84	3401
870.97	3302
871.1	3237
871.23	3462
871.36	3443
871.489	3332
871.619	3389
871.749	3389
871.879	3420
872.008	3481
872.138	3363
872.267	3298
872.397	3119
872.526	3093
872.656	3005
872.785	3062
872.915	3264
873.044	3287
873.173	3195
873.303	3241
873.432	3253
873.561	3245
873.69	3142
873.819	3157
873.948	3195
874.077	3104
874.206	3058
874.335	3047
874.464	3218
874.593	3313
874.722	3260
874.851	3397
874.979	3367
875.108	3302
875.237	3218
875.365	3146
875.494	3161
875.623	3233
875.751	3058
875.88	3119
876.008	3173
876.136	3253
876.265	3386
876.393	3507
876.521	3420
876.65	3393
876.778	3348
876.906	3237
877.034	3211
877.162	3211
877.29	3169
877.418	3279
877.546	3241
877.674	3218
877.802	3226
877.93	3226
878.058	3173
878.185	3119
878.313	3195
878.441	3211
878.568	3077
878.696	3112
878.824	3233
878.951	3298
879.079	3439
879.206	3603
879.333	3454
879.461	3321
879.588	3355
879.715	3500
879.842	3599
879.97	3405
880.097	3195
880.224	3100
880.351	3192
880.478	3195
880.605	3218
880.732	3199
880.859	3504
880.986	3287
881.112	3294
881.239	3192
881.366	3089
881.493	3013
881.619	3005
881.746	3051
881.872	3070
881.999	3089
882.125	3108
882.252	3226
882.378	3260
882.505	3420
882.631	3313
882.757	3127
882.883	3214
883.01	3233
883.136	3127
883.262	3089
883.388	3150
883.514	3313
883.64	3344
883.766	3279
883.892	3207
884.018	3260
884.143	3450
884.269	3519
884.395	3195
884.52	3176
884.646	3176
884.772	3100
884.897	3062
885.023	3199
885.148	3321
885.274	3382
885.399	3363
885.524	3264
885.65	3275
885.775	3321
885.9	3237
886.025	3412
886.15	3355
886.275	3291
886.4	3218
886.525	3336
886.65	3264
886.775	3253
886.9	3454
887.025	3622
887.149	3405
887.274	3264
887.399	3222
887.523	3203
887.648	3176
887.773	3180
887.897	3351
888.021	3431
888.146	3302
888.27	3454
888.395	3542
888.519	3428
888.643	3428
888.767	3462
888.891	3275
889.015	3214
889.139	3256
889.263	3230
889.387	3386
889.511	3454
889.635	3450
889.759	3310
889.883	3321
890.006	3389
890.13	3504
890.254	3264
890.377	3348
890.501	3195
890.624	3176
890.748	3298
890.871	3188
890.995	3081
891.118	3104
891.241	3230
891.364	3184
891.488	3310
891.611	3165
891.734	3218
891.857	3268
891.98	3222
892.103	3321
892.226	3264
892.349	3218
892.471	3097
892.594	3226
892.717	3313
892.839	3279
892.962	3275
893.085	3344
893.207	3291
893.33	3142
893.452	3199
893.575	3355
893.697	3214
893.819	3473
893.941	3481
894.064	3409
894.186	3298
894.308	3272
894.43	3424
894.552	3603
894.674	3488
894.796	3268
894.918	3306
895.04	3310
895.161	3450
895.283	3378
895.405	3321
895.526	3378
895.648	3393
895.769	3401
895.891	3462
896.012	3481
896.134	3477
896.255	3412
896.376	3405
896.498	3351
896.619	3454
896.74	3367
896.861	3412
896.982	3671
897.103	3812
897.224	3614
897.345	3458
897.466	3389
897.587	3500
897.708	3610
897.828	3507
897.949	3412
898.07	3317
898.19	3401
898.311	3644
898.431	3428
898.552	3481
898.672	3576
898.792	3580
898.913	3538
899.033	3397
899.153	3291
899.273	3230
899.393	3329
899.513	3272
899.633	3317
899.753	3370
899.873	3313
899.993	3397
900.113	3359
900.232	3344
900.352	3298
900.472	3287
900.591	3222
900.711	3313
900.83	3195
900.95	3397
901.069	3523
901.189	3313
901.308	3176
901.427	3142
901.546	3214
901.665	3256
901.784	3355
901.904	3241
902.023	3169
902.141	3024
902.26	2952
902.379	3150
902.498	3089
902.617	3081
902.735	3264
902.854	3256
902.973	3203
903.091	3017
903.21	3085
903.328	3157
903.446	3097
903.565	3081
903.683	3184
903.801	3085
903.919	3256
904.038	3306
904.156	3157
904.274	3226
904.392	3260
904.51	3283
904.627	3344
904.745	3435
904.863	3507
904.981	3237
905.098	3173
905.216	3230
905.334	3283
905.451	3287
905.569	3321
905.686	3409
905.803	3428
905.921	3294
906.038	3431
906.155	3329
906.272	3287
906.389	3321
906.506	3195
906.623	3260
906.74	3256
906.857	3154
906.974	3279
907.091	3397
907.208	3523
907.324	3443
907.441	3405
907.557	3226
907.674	3279
907.79	3230
907.907	3264
908.023	3382
908.139	3359
908.256	3317
908.372	3367
908.488	3382
908.604	3256
908.72	3241
908.836	3317
908.952	3268
909.068	3336
909.184	3488
909.3	3367
909.415	3488
909.531	3473
909.647	3264
909.762	3279
909.878	3233
909.993	3363
910.108	3325
910.224	3336
910.339	3424
910.454	3310
910.57	3287
910.685	3245
910.8	3595
910.915	3538
911.03	3447
911.145	3294
911.259	3283
911.374	3344
911.489	3214
911.604	3218
911.718	3123
911.833	3176
911.947	3039
912.062	2994
912.176	3169
912.291	3218
912.405	3173
912.519	3428
912.633	3462
912.748	3363
912.862	3313
912.976	3192
913.09	3043
913.204	3131
913.318	3211
913.431	3340
913.545	3306
913.659	3397
913.772	3287
913.886	3233
914	3207
914.113	3363
914.226	3435
914.34	3378
914.453	3199
914.566	3416
914.68	3287
914.793	3302
914.906	3165
915.019	3104
915.132	3043
915.245	3157
915.358	3195
915.47	3256
915.583	3245
915.696	3294
915.809	3435
915.921	3447
916.034	3275
916.146	3256
916.259	3203
916.371	3389
916.483	3359
916.595	3317
916.708	3317
916.82	3329
916.932	3306
917.044	3306
917.156	3374
917.268	3249
917.38	3340
917.491	3302
917.603	3389
917.715	3405
917.826	3485
917.938	3393
918.049	3283
918.161	3424
918.272	3538
918.384	3526
918.495	3485
918.606	3317
918.717	3264
918.828	3389
918.939	3447
919.05	3279
919.161	3340
919.272	3195
919.383	3283
919.494	3485
919.604	3675
919.715	3507
919.826	3439
919.936	3431
920.047	3618
920.157	3553
920.267	3762
920.378	3622
920.488	3545
920.598	3797
920.708	3911
920.818	3827
920.928	3804
921.038	4029
921.148	3987
921.258	3720
921.368	3652
921.477	3549
921.587	3523
921.697	3462
921.806	3652
921.916	3511
922.025	3310
922.134	3336
922.244	3336
922.353	3462
922.462	3279
922.571	3245
922.68	3135
922.789	3093
922.898	3119
923.007	3085
923.116	3211
923.224	3188
923.333	3169
923.442	3077
923.55	3093
923.659	3135
923.767	3214
923.876	3116
923.984	3214
924.092	3104
924.201	3203
924.309	3241
924.417	3245
924.525	3169
924.633	3256
924.741	4002
924.849	3077
924.956	3237
925.064	3081
925.172	2998
925.279	3108
925.387	3199
925.494	3176
925.602	3359
925.709	3306
925.816	3230
925.924	3287
926.031	3393
926.138	3317
926.245	3370
926.352	3218
926.459	3458
926.566	3473
926.673	3302
926.779	3241
926.886	3241
926.993	3142
927.099	3138
927.206	3116
927.312	3104
927.419	3222
927.525	3195
927.631	3260
927.737	3195
927.843	3123
927.95	3005
928.056	3154
928.162	3161
928.267	3256
928.373	3743
928.479	3329
928.585	3047
928.69	3211
928.796	3245
928.901	3165
929.007	3032
929.112	3237
929.218	3188
929.323	3150
929.428	3127
929.533	3329
929.638	3097
929.743	3176
929.848	3260
929.953	3195
930.058	3131
930.163	2979
930.267	3074
930.372	3214
930.477	3009
930.581	3291
930.685	3161
930.79	3077
930.894	3097
930.998	3089
931.103	3283
931.207	2922
931.311	2941
931.415	2948
931.519	2769
931.623	2811
