Data from test_V78500241_293.txt Node
Date: Fri Mar 25 16:17:14 CST 2022
User: usil
Spectrometer: V785-0024
Trigger mode: 0
Integration Time (sec): 4.000000E-1
Scans to average: 1
Nonlinearity correction enabled: false
Boxcar width: 0
Storing dark spectrum: false
XAxis mode: Wavelengths
Number of Pixels in Spectrum: 1024
>>>>>Begin Spectral Data<<<<<
801.071	2868
801.214	2952
801.356	2868
801.499	2906
801.641	2868
801.783	2914
801.926	3058
802.068	2979
802.211	2971
802.353	3017
802.496	2967
802.638	3013
802.78	3036
802.923	3093
803.065	2986
803.208	2891
803.35	2933
803.492	2956
803.635	2883
803.777	2781
803.919	2849
804.061	3180
804.204	2948
804.346	2914
804.488	2834
804.63	3009
804.773	2861
804.915	2925
805.057	3104
805.199	2910
805.341	2971
805.483	3001
805.626	3013
805.768	2967
805.91	3089
806.052	3100
806.194	3047
806.336	3230
806.478	3047
806.62	2952
806.762	2986
806.904	3051
807.046	3203
807.188	2994
807.33	2910
807.472	2967
807.614	2922
807.756	3005
807.898	2918
808.04	2902
808.182	2998
808.324	2986
808.465	2872
808.607	2914
808.749	2769
808.891	2845
809.033	2952
809.174	2990
809.316	2902
809.458	2872
809.6	2788
809.741	2758
809.883	2746
810.025	2880
810.166	2849
810.308	2845
810.45	2872
810.591	2766
810.733	2796
810.875	2834
811.016	2773
811.158	2762
811.299	2842
811.441	2948
811.582	2925
811.724	2811
811.865	2796
812.007	2895
812.148	2857
812.29	2842
812.431	2902
812.573	2944
812.714	2963
812.855	3066
812.997	3066
813.138	3116
813.279	3005
813.421	2990
813.562	2944
813.703	2883
813.845	2876
813.986	2754
814.127	2712
814.268	2781
814.41	2864
814.551	2815
814.692	2876
814.833	2811
814.974	2906
815.115	2994
815.256	2823
815.397	2826
815.539	2857
815.68	2758
815.821	2804
815.962	2944
816.103	2914
816.244	2887
816.385	2880
816.526	2963
816.666	2929
816.807	2739
816.948	2868
817.089	2899
817.23	2868
817.371	2750
817.512	2800
817.653	2845
817.793	2853
817.934	2891
818.075	2975
818.216	2998
818.356	2998
818.497	2883
818.638	2773
818.778	2826
818.919	2781
819.06	2769
819.2	2838
819.341	2807
819.481	2781
819.622	2944
819.762	3058
819.903	3074
820.043	2925
820.184	2887
820.324	2902
820.465	3020
820.605	3001
820.746	2982
820.886	2960
821.026	3100
821.167	3176
821.307	3272
821.447	3230
821.588	3211
821.728	3214
821.868	3180
822.008	3081
822.149	3199
822.289	3222
822.429	3112
822.569	3104
822.709	3154
822.849	3013
822.99	3013
823.13	3169
823.27	3214
823.41	3123
823.55	3157
823.69	3157
823.83	3176
823.97	3093
824.11	3017
824.25	2986
824.389	3093
824.529	3093
824.669	3085
824.809	3207
824.949	3230
825.089	3214
825.228	3188
825.368	2994
825.508	2960
825.648	2929
825.787	2990
825.927	3017
826.067	2956
826.206	2971
826.346	3051
826.485	3089
826.625	3138
826.765	3230
826.904	3203
827.044	3009
827.183	2948
827.323	2880
827.462	3028
827.601	2914
827.741	2914
827.88	2979
828.02	2826
828.159	3017
828.298	3055
828.437	3085
828.577	3047
828.716	3207
828.855	3074
828.994	2906
829.134	2891
829.273	2918
829.412	2834
829.551	2853
829.69	2910
829.829	2990
829.968	3100
830.107	3020
830.246	3058
830.385	2941
830.524	2933
830.663	2819
830.802	2708
830.941	2632
831.08	2689
831.219	2785
831.357	2762
831.496	2937
831.635	2724
831.774	2640
831.913	2629
832.051	2549
832.19	2590
832.329	2701
832.467	2541
832.606	2488
832.744	2560
832.883	2579
833.022	2602
833.16	2670
833.299	2712
833.437	2697
833.576	2720
833.714	2724
833.852	2773
833.991	2777
834.129	2834
834.267	2838
834.406	2785
834.544	2868
834.682	2876
834.821	2830
834.959	3051
835.097	2906
835.235	3077
835.373	3005
835.511	3028
835.65	2948
835.788	2937
835.926	2826
836.064	2815
836.202	2868
836.34	3062
836.478	3150
836.615	3032
836.753	3112
836.891	3218
837.029	3165
837.167	3104
837.305	3047
837.443	3093
837.58	2941
837.718	3119
837.856	3077
837.993	3020
838.131	3104
838.269	3138
838.406	3081
838.544	3081
838.681	2944
838.819	2899
838.956	2800
839.094	2811
839.231	2929
839.369	3009
839.506	3340
839.643	3214
839.781	3028
839.918	2967
840.055	3036
840.193	3097
840.33	3077
840.467	3100
840.604	3161
840.742	3378
840.879	3036
841.016	3055
841.153	3131
841.29	3336
841.427	3317
841.564	3264
841.701	3310
841.838	3256
841.975	3131
842.112	3214
842.249	3043
842.385	3058
842.522	3268
842.659	3077
842.796	3070
842.933	3093
843.069	3043
843.206	3077
843.343	3207
843.479	3074
843.616	3173
843.752	2918
843.889	2895
844.025	3051
844.162	2887
844.298	3043
844.435	2952
844.571	2895
844.708	3070
844.844	3211
844.98	3211
845.117	3218
845.253	3051
845.389	3032
845.525	3104
845.661	3081
845.798	2990
845.934	3100
846.07	3074
846.206	3207
846.342	3283
846.478	3226
846.614	3100
846.75	3024
846.886	3005
847.022	3260
847.158	3176
847.294	3214
847.429	3218
847.565	3211
847.701	3504
847.837	3043
847.972	3005
848.108	3173
848.244	3104
848.379	2975
848.515	2971
848.65	2937
848.786	3017
848.921	2998
849.057	3123
849.192	3146
849.328	3062
849.463	3100
849.598	3077
849.734	3001
849.869	2944
850.004	2933
850.14	2971
850.275	2918
850.41	2857
850.545	2864
850.68	2925
850.815	2971
850.95	2979
851.085	3203
851.22	3123
851.355	3032
851.49	2998
851.625	2979
851.76	3028
851.895	2902
852.03	2902
852.165	3043
852.299	3089
852.434	3199
852.569	3135
852.703	3157
852.838	3268
852.973	3351
853.107	3310
853.242	3154
853.376	3074
853.511	2990
853.645	3070
853.78	3203
853.914	3127
854.048	3108
854.183	3097
854.317	3138
854.451	3279
854.585	3142
854.72	3074
854.854	3222
854.988	3051
855.122	3074
855.256	2971
855.39	3131
855.524	3192
855.658	3161
855.792	3165
855.926	3169
856.06	3218
856.194	3245
856.327	3165
856.461	3093
856.595	3123
856.729	3112
856.862	3192
856.996	3161
857.13	3199
857.263	3230
857.397	3294
857.53	3104
857.664	3184
857.797	3233
857.931	3249
858.064	3161
858.197	3230
858.331	3146
858.464	3051
858.597	3013
858.731	3112
858.864	3108
858.997	3074
859.13	3150
859.263	3138
859.396	3211
859.529	3058
859.662	3062
859.795	3051
859.928	3138
860.061	3313
860.194	3291
860.327	3150
860.46	3138
860.592	3211
860.725	3264
860.858	3214
860.99	3097
861.123	3024
861.256	3039
861.388	3138
861.521	3876
861.653	3032
861.786	3001
861.918	3013
862.05	3055
862.183	3043
862.315	3112
862.447	3233
862.58	3146
862.712	2960
862.844	2891
862.976	2982
863.108	2998
863.24	3291
863.372	2857
863.504	2982
863.636	2963
863.768	2990
863.9	2982
864.032	2925
864.164	2925
864.296	2982
864.428	3070
864.559	3093
864.691	3089
864.823	3062
864.954	3043
865.086	3013
865.217	2963
865.349	2971
865.48	2956
865.612	3020
865.743	3119
865.875	3001
866.006	2975
866.137	2929
866.269	2937
866.4	2910
866.531	2914
866.662	2922
866.793	2868
866.924	2902
867.055	2967
867.186	2944
867.317	2891
867.448	2845
867.579	2868
867.71	2826
867.841	2762
867.972	2891
868.103	2910
868.233	2891
868.364	2876
868.495	2899
868.625	3058
868.756	3180
868.886	2963
869.017	2948
869.147	3169
869.278	3135
869.408	3017
869.539	3047
869.669	3100
869.799	3039
869.929	3142
870.06	3104
870.19	3321
870.32	3294
870.45	3294
870.58	3393
870.71	3458
870.84	3450
870.97	3283
871.1	3253
871.23	3488
871.36	3443
871.489	3367
871.619	3348
871.749	3397
871.879	3401
872.008	3458
872.138	3355
872.267	3302
872.397	3165
872.526	3066
872.656	3028
872.785	3077
872.915	3222
873.044	3283
873.173	3241
873.303	3249
873.432	3237
873.561	3226
873.69	3154
873.819	3142
873.948	3203
874.077	3123
874.206	3058
874.335	3089
874.464	3214
874.593	3367
874.722	3275
874.851	3409
874.979	3359
875.108	3302
875.237	3184
875.365	3180
875.494	3169
875.623	3260
875.751	3116
875.88	3135
876.008	3180
876.136	3226
876.265	3378
876.393	3477
876.521	3409
876.65	3412
876.778	3332
876.906	3249
877.034	3176
877.162	3233
877.29	3157
877.418	3256
877.546	3279
877.674	3222
877.802	3233
877.93	3199
878.058	3157
878.185	3097
878.313	3245
878.441	3207
878.568	3100
878.696	3150
878.824	3272
878.951	3256
879.079	3450
879.206	3591
879.333	3420
879.461	3359
879.588	3336
879.715	3496
879.842	3568
879.97	3435
880.097	3157
880.224	3138
880.351	3157
880.478	3211
880.605	3195
880.732	3154
880.859	3488
880.986	3317
881.112	3340
881.239	3214
881.366	3100
881.493	3043
881.619	3009
881.746	3077
881.872	3104
881.999	3081
882.125	3154
882.252	3272
882.378	3310
882.505	3374
882.631	3264
882.757	3119
882.883	3203
883.01	3222
883.136	3173
883.262	3089
883.388	3097
883.514	3325
883.64	3363
883.766	3317
883.892	3176
884.018	3249
884.143	3420
884.269	3576
884.395	3226
884.52	3157
884.646	3207
884.772	3116
884.897	3112
885.023	3226
885.148	3332
885.274	3386
885.399	3344
885.524	3264
885.65	3245
885.775	3325
885.9	3272
886.025	3435
886.15	3321
886.275	3256
886.4	3195
886.525	3302
886.65	3291
886.775	3253
886.9	3496
887.025	3618
887.149	3378
887.274	3268
887.399	3195
887.523	3226
887.648	3173
887.773	3214
887.897	3351
888.021	3389
888.146	3279
888.27	3416
888.395	3504
888.519	3443
888.643	3469
888.767	3473
888.891	3302
889.015	3260
889.139	3321
889.263	3268
889.387	3370
889.511	3538
889.635	3439
889.759	3291
889.883	3287
890.006	3363
890.13	3466
890.254	3306
890.377	3310
890.501	3218
890.624	3188
890.748	3298
890.871	3203
890.995	3116
891.118	3074
891.241	3218
891.364	3275
891.488	3317
891.611	3195
891.734	3241
891.857	3287
891.98	3222
892.103	3332
892.226	3283
892.349	3245
892.471	3119
892.594	3260
892.717	3291
892.839	3275
892.962	3260
893.085	3359
893.207	3275
893.33	3135
893.452	3199
893.575	3359
893.697	3214
893.819	3492
893.941	3462
894.064	3450
894.186	3279
894.308	3291
894.43	3412
894.552	3515
894.674	3485
894.796	3279
894.918	3313
895.04	3294
895.161	3405
895.283	3370
895.405	3325
895.526	3416
895.648	3431
895.769	3420
895.891	3458
896.012	3488
896.134	3496
896.255	3405
896.376	3409
896.498	3359
896.619	3443
896.74	3370
896.861	3374
896.982	3705
897.103	3838
897.224	3591
897.345	3526
897.466	3447
897.587	3526
897.708	3614
897.828	3542
897.949	3473
898.07	3294
898.19	3378
898.311	3610
898.431	3462
898.552	3507
898.672	3564
898.792	3545
898.913	3542
899.033	3386
899.153	3321
899.273	3207
899.393	3291
899.513	3329
899.633	3332
899.753	3325
899.873	3291
899.993	3386
900.113	3344
900.232	3378
900.352	3386
900.472	3313
900.591	3184
900.711	3275
900.83	3260
900.95	3473
901.069	3496
901.189	3367
901.308	3211
901.427	3108
901.546	3180
901.665	3268
901.784	3329
901.904	3176
902.023	3157
902.141	3028
902.26	2963
902.379	3116
902.498	3058
902.617	3036
902.735	3199
902.854	3241
902.973	3214
903.091	3070
903.21	3058
903.328	3146
903.446	3077
903.565	3123
903.683	3199
903.801	3085
903.919	3237
904.038	3283
904.156	3192
904.274	3287
904.392	3256
904.51	3302
904.627	3367
904.745	3473
904.863	3485
904.981	3287
905.098	3165
905.216	3256
905.334	3310
905.451	3302
905.569	3321
905.686	3405
905.803	3450
905.921	3275
906.038	3447
906.155	3340
906.272	3321
906.389	3336
906.506	3253
906.623	3268
906.74	3272
906.857	3188
906.974	3260
907.091	3443
907.208	3584
907.324	3481
907.441	3378
907.557	3226
907.674	3237
907.79	3211
907.907	3275
908.023	3397
908.139	3389
908.256	3291
908.372	3412
908.488	3344
908.604	3249
908.72	3195
908.836	3275
908.952	3302
909.068	3348
909.184	3447
909.3	3405
909.415	3485
909.531	3515
909.647	3298
909.762	3298
909.878	3237
909.993	3363
910.108	3287
910.224	3313
910.339	3386
910.454	3351
910.57	3264
910.685	3260
910.8	3584
910.915	3530
911.03	3439
911.145	3256
911.259	3218
911.374	3363
911.489	3249
911.604	3207
911.718	3100
911.833	3180
911.947	3024
912.062	3001
912.176	3180
912.291	3195
912.405	3211
912.519	3462
912.633	3450
912.748	3317
912.862	3283
912.976	3180
913.09	3039
913.204	3180
913.318	3203
913.431	3310
913.545	3336
913.659	3412
913.772	3340
913.886	3253
914	3184
914.113	3355
914.226	3378
914.34	3374
914.453	3203
914.566	3412
914.68	3283
914.793	3306
914.906	3150
915.019	3112
915.132	3093
915.245	3154
915.358	3199
915.47	3245
915.583	3245
915.696	3260
915.809	3397
915.921	3416
916.034	3272
916.146	3275
916.259	3207
916.371	3329
916.483	3412
916.595	3249
916.708	3344
916.82	3351
916.932	3336
917.044	3344
917.156	3351
917.268	3230
917.38	3310
917.491	3306
917.603	3363
917.715	3447
917.826	3431
917.938	3401
918.049	3279
918.161	3412
918.272	3545
918.384	3618
918.495	3492
918.606	3310
918.717	3279
918.828	3370
918.939	3428
919.05	3325
919.161	3355
919.272	3192
919.383	3268
919.494	3496
919.604	3675
919.715	3496
919.826	3389
919.936	3492
920.047	3587
920.157	3545
920.267	3751
920.378	3614
920.488	3561
920.598	3789
920.708	3922
920.818	3835
920.928	3873
921.038	4010
921.148	4017
921.258	3724
921.368	3618
921.477	3561
921.587	3500
921.697	3462
921.806	3595
921.916	3504
922.025	3370
922.134	3325
922.244	3321
922.353	3405
922.462	3317
922.571	3218
922.68	3085
922.789	3066
922.898	3157
923.007	3100
923.116	3230
923.224	3176
923.333	3146
923.442	3138
923.55	3093
923.659	3169
923.767	3230
923.876	3127
923.984	3279
924.092	3127
924.201	3214
924.309	3260
924.417	3256
924.525	3161
924.633	3264
924.741	4143
924.849	3017
924.956	3275
925.064	3097
925.172	2998
925.279	3097
925.387	3195
925.494	3214
925.602	3351
925.709	3340
925.816	3112
925.924	3275
926.031	3382
926.138	3344
926.245	3382
926.352	3237
926.459	3447
926.566	3492
926.673	3317
926.779	3287
926.886	3283
926.993	3161
927.099	3146
927.206	3119
927.312	3123
927.419	3256
927.525	3207
927.631	3260
927.737	3127
927.843	3123
927.95	3047
928.056	3138
928.162	3154
928.267	3249
928.373	3911
928.479	3291
928.585	3081
928.69	3199
928.796	3253
928.901	3173
929.007	3036
929.112	3184
929.218	3169
929.323	3169
929.428	3123
929.533	3321
929.638	3127
929.743	3211
929.848	3260
929.953	3214
930.058	3169
930.163	3005
930.267	3005
930.372	3180
930.477	3081
930.581	3325
930.685	3203
930.79	3093
930.894	3131
930.998	3085
931.103	3264
931.207	2979
931.311	2910
931.415	2918
931.519	2777
931.623	2804
