Data from test_V78500241_1743.txt Node
Date: Fri Mar 25 16:27:16 CST 2022
User: usil
Spectrometer: V785-0024
Trigger mode: 0
Integration Time (sec): 4.000000E-1
Scans to average: 1
Nonlinearity correction enabled: false
Boxcar width: 0
Storing dark spectrum: false
XAxis mode: Wavelengths
Number of Pixels in Spectrum: 1024
>>>>>Begin Spectral Data<<<<<
801.071	2906
801.214	2960
801.356	2868
801.499	2883
801.641	2864
801.783	2895
801.926	3013
802.068	2941
802.211	3020
802.353	3005
802.496	2990
802.638	2975
802.78	3028
802.923	3058
803.065	3001
803.208	2876
803.35	2906
803.492	2960
803.635	2922
803.777	2735
803.919	2823
804.061	3188
804.204	2918
804.346	2872
804.488	2842
804.63	2967
804.773	2853
804.915	2883
805.057	3043
805.199	2887
805.341	2948
805.483	3013
805.626	2994
805.768	2937
805.91	3089
806.052	3100
806.194	2998
806.336	3233
806.478	2986
806.62	2960
806.762	2982
806.904	3051
807.046	3157
807.188	2941
807.33	2918
807.472	2960
807.614	2857
807.756	2994
807.898	2918
808.04	2857
808.182	2998
808.324	2941
808.465	2838
808.607	2849
808.749	2800
808.891	2838
809.033	2971
809.174	2952
809.316	2845
809.458	2872
809.6	2766
809.741	2804
809.883	2766
810.025	2842
810.166	2872
810.308	2830
810.45	2834
810.591	2762
810.733	2762
810.875	2842
811.016	2777
811.158	2800
811.299	2788
811.441	2895
811.582	2872
811.724	2842
811.865	2826
812.007	2891
812.148	2849
812.29	2815
812.431	2880
812.573	2933
812.714	2960
812.855	3009
812.997	3036
813.138	3142
813.279	3017
813.421	3009
813.562	2944
813.703	2842
813.845	2887
813.986	2769
814.127	2727
814.268	2788
814.41	2853
814.551	2792
814.692	2864
814.833	2849
814.974	2895
815.115	2937
815.256	2815
815.397	2807
815.539	2876
815.68	2766
815.821	2777
815.962	2948
816.103	2929
816.244	2899
816.385	2876
816.526	2941
816.666	2899
816.807	2750
816.948	2883
817.089	2925
817.23	2845
817.371	2769
817.512	2807
817.653	2853
817.793	2857
817.934	2887
818.075	2952
818.216	2979
818.356	3005
818.497	2922
818.638	2746
818.778	2807
818.919	2815
819.06	2781
819.2	2853
819.341	2781
819.481	2796
819.622	2906
819.762	3127
819.903	3058
820.043	2914
820.184	2883
820.324	2861
820.465	3036
820.605	3032
820.746	3032
820.886	2941
821.026	3089
821.167	3165
821.307	3230
821.447	3275
821.588	3233
821.728	3165
821.868	3154
822.008	3081
822.149	3192
822.289	3253
822.429	3081
822.569	3047
822.709	3138
822.849	3043
822.99	3070
823.13	3093
823.27	3222
823.41	3104
823.55	3169
823.69	3157
823.83	3138
823.97	3062
824.11	2990
824.25	2960
824.389	3093
824.529	3093
824.669	3032
824.809	3199
824.949	3245
825.089	3237
825.228	3104
825.368	3009
825.508	2952
825.648	2971
825.787	2963
825.927	3017
826.067	2990
826.206	2971
826.346	3017
826.485	3062
826.625	3097
826.765	3203
826.904	3233
827.044	2994
827.183	2918
827.323	2857
827.462	2979
827.601	2914
827.741	2952
827.88	2960
828.02	2838
828.159	2971
828.298	3028
828.437	3112
828.577	2986
828.716	3214
828.855	3081
828.994	2918
829.134	2872
829.273	2891
829.412	2857
829.551	2868
829.69	2872
829.829	2994
829.968	3119
830.107	3020
830.246	3013
830.385	2887
830.524	2872
830.663	2800
830.802	2705
830.941	2644
831.08	2636
831.219	2766
831.357	2754
831.496	2880
831.635	2708
831.774	2648
831.913	2648
832.051	2549
832.19	2579
832.329	2686
832.467	2549
832.606	2473
832.744	2571
832.883	2560
833.022	2579
833.16	2621
833.299	2686
833.437	2678
833.576	2686
833.714	2705
833.852	2750
833.991	2807
834.129	2777
834.267	2838
834.406	2773
834.544	2864
834.682	2891
834.821	2883
834.959	3047
835.097	2880
835.235	3055
835.373	2990
835.511	3017
835.65	3001
835.788	2960
835.926	2777
836.064	2804
836.202	2849
836.34	3077
836.478	3157
836.615	3043
836.753	3146
836.891	3184
837.029	3169
837.167	3127
837.305	3070
837.443	3043
837.58	2956
837.718	3173
837.856	3058
837.993	3024
838.131	3142
838.269	3112
838.406	3062
838.544	3074
838.681	2944
838.819	2941
838.956	2796
839.094	2853
839.231	2922
839.369	2990
839.506	3355
839.643	3188
839.781	3017
839.918	2967
840.055	3062
840.193	3039
840.33	3058
840.467	3104
840.604	3123
840.742	3393
840.879	3013
841.016	3081
841.153	3104
841.29	3336
841.427	3264
841.564	3272
841.701	3340
841.838	3176
841.975	3157
842.112	3173
842.249	3074
842.385	3047
842.522	3207
842.659	3055
842.796	3024
842.933	3085
843.069	3028
843.206	2986
843.343	3150
843.479	3119
843.616	3131
843.752	2899
843.889	2823
844.025	3039
844.162	2864
844.298	3058
844.435	2952
844.571	2910
844.708	3055
844.844	3195
844.98	3211
845.117	3176
845.253	3036
845.389	2998
845.525	3070
845.661	3104
845.798	3005
845.934	3070
846.07	3020
846.206	3188
846.342	3313
846.478	3226
846.614	3089
846.75	3024
846.886	3028
847.022	3283
847.158	3150
847.294	3192
847.429	3226
847.565	3218
847.701	3488
847.837	3005
847.972	2967
848.108	3165
848.244	3135
848.379	2967
848.515	2922
848.65	2941
848.786	2982
848.921	3017
849.057	3058
849.192	3135
849.328	3077
849.463	3089
849.598	3058
849.734	3055
849.869	2975
850.004	2906
850.14	2956
850.275	2899
850.41	2842
850.545	2864
850.68	2891
850.815	2952
850.95	2963
851.085	3188
851.22	3081
851.355	3024
851.49	2975
851.625	2982
851.76	2994
851.895	2975
852.03	2914
852.165	3039
852.299	3100
852.434	3173
852.569	3131
852.703	3157
852.838	3203
852.973	3355
853.107	3329
853.242	3154
853.376	3100
853.511	3001
853.645	3074
853.78	3260
853.914	3112
854.048	3085
854.183	3081
854.317	3161
854.451	3272
854.585	3146
854.72	3039
854.854	3199
854.988	3074
855.122	3081
855.256	2967
855.39	3150
855.524	3207
855.658	3188
855.792	3157
855.926	3203
856.06	3211
856.194	3268
856.327	3173
856.461	3051
856.595	3055
856.729	3043
856.862	3195
856.996	3116
857.13	3188
857.263	3245
857.397	3218
857.53	3116
857.664	3203
857.797	3237
857.931	3214
858.064	3116
858.197	3211
858.331	3131
858.464	3058
858.597	3017
858.731	3112
858.864	3154
858.997	3039
859.13	3138
859.263	3180
859.396	3176
859.529	3085
859.662	3081
859.795	3032
859.928	3142
860.061	3283
860.194	3233
860.327	3104
860.46	3104
860.592	3249
860.725	3226
860.858	3253
860.99	3097
861.123	3039
861.256	3055
861.388	3104
861.521	3964
861.653	3005
861.786	2982
861.918	2975
862.05	3062
862.183	3077
862.315	3131
862.447	3192
862.58	3089
862.712	2967
862.844	2861
862.976	3009
863.108	2998
863.24	3325
863.372	2868
863.504	2967
863.636	2948
863.768	3024
863.9	2971
864.032	2929
864.164	2963
864.296	3009
864.428	3085
864.559	3108
864.691	3104
864.823	3058
864.954	2986
865.086	3062
865.217	2986
865.349	2918
865.48	2922
865.612	3001
865.743	3154
865.875	2967
866.006	2922
866.137	2975
866.269	2914
866.4	2941
866.531	2937
866.662	2861
866.793	2895
866.924	2922
867.055	2948
867.186	2914
867.317	2838
867.448	2861
867.579	2845
867.71	2830
867.841	2826
867.972	2948
868.103	2883
868.233	2891
868.364	2864
868.495	2891
868.625	3081
868.756	3142
868.886	2937
869.017	3028
869.147	3135
869.278	3150
869.408	3047
869.539	2998
869.669	3093
869.799	3055
869.929	3108
870.06	3093
870.19	3321
870.32	3283
870.45	3283
870.58	3409
870.71	3462
870.84	3428
870.97	3287
871.1	3256
871.23	3534
871.36	3450
871.489	3348
871.619	3409
871.749	3412
871.879	3431
872.008	3477
872.138	3332
872.267	3275
872.397	3131
872.526	3100
872.656	3005
872.785	3116
872.915	3211
873.044	3279
873.173	3233
873.303	3226
873.432	3214
873.561	3199
873.69	3176
873.819	3116
873.948	3176
874.077	3119
874.206	3028
874.335	3089
874.464	3199
874.593	3317
874.722	3268
874.851	3393
874.979	3367
875.108	3348
875.237	3173
875.365	3199
875.494	3154
875.623	3256
875.751	3081
875.88	3100
876.008	3203
876.136	3214
876.265	3359
876.393	3507
876.521	3382
876.65	3367
876.778	3313
876.906	3222
877.034	3218
877.162	3211
877.29	3180
877.418	3272
877.546	3222
877.674	3264
877.802	3233
877.93	3195
878.058	3131
878.185	3066
878.313	3180
878.441	3184
878.568	3085
878.696	3192
878.824	3218
878.951	3272
879.079	3458
879.206	3603
879.333	3435
879.461	3351
879.588	3344
879.715	3428
879.842	3603
879.97	3355
880.097	3142
880.224	3116
880.351	3184
880.478	3245
880.605	3203
880.732	3184
880.859	3485
880.986	3272
881.112	3313
881.239	3192
881.366	3093
881.493	3047
881.619	3024
881.746	3108
881.872	3089
881.999	3097
882.125	3169
882.252	3275
882.378	3260
882.505	3439
882.631	3279
882.757	3180
882.883	3169
883.01	3222
883.136	3195
883.262	3104
883.388	3070
883.514	3298
883.64	3367
883.766	3313
883.892	3173
884.018	3207
884.143	3393
884.269	3515
884.395	3176
884.52	3108
884.646	3161
884.772	3135
884.897	3051
885.023	3230
885.148	3306
885.274	3447
885.399	3348
885.524	3249
885.65	3283
885.775	3317
885.9	3294
886.025	3428
886.15	3351
886.275	3302
886.4	3188
886.525	3249
886.65	3256
886.775	3256
886.9	3515
887.025	3591
887.149	3374
887.274	3237
887.399	3192
887.523	3169
887.648	3207
887.773	3184
887.897	3363
888.021	3397
888.146	3272
888.27	3409
888.395	3576
888.519	3443
888.643	3420
888.767	3458
888.891	3332
889.015	3218
889.139	3302
889.263	3264
889.387	3397
889.511	3473
889.635	3439
889.759	3310
889.883	3291
890.006	3386
890.13	3500
890.254	3264
890.377	3332
890.501	3192
890.624	3199
890.748	3268
890.871	3157
890.995	3100
891.118	3058
891.241	3211
891.364	3237
891.488	3344
891.611	3157
891.734	3203
891.857	3287
891.98	3249
892.103	3355
892.226	3260
892.349	3180
892.471	3135
892.594	3230
892.717	3302
892.839	3283
892.962	3325
893.085	3348
893.207	3302
893.33	3119
893.452	3214
893.575	3294
893.697	3237
893.819	3443
893.941	3511
894.064	3424
894.186	3256
894.308	3256
894.43	3466
894.552	3515
894.674	3515
894.796	3272
894.918	3268
895.04	3291
895.161	3397
895.283	3397
895.405	3302
895.526	3363
895.648	3431
895.769	3401
895.891	3439
896.012	3462
896.134	3424
896.255	3382
896.376	3393
896.498	3359
896.619	3443
896.74	3321
896.861	3405
896.982	3652
897.103	3804
897.224	3606
897.345	3504
897.466	3409
897.587	3469
897.708	3614
897.828	3519
897.949	3454
898.07	3310
898.19	3405
898.311	3572
898.431	3466
898.552	3462
898.672	3568
898.792	3557
898.913	3477
899.033	3420
899.153	3310
899.273	3211
899.393	3291
899.513	3287
899.633	3306
899.753	3367
899.873	3348
899.993	3386
900.113	3329
900.232	3374
900.352	3363
900.472	3294
900.591	3226
900.711	3287
900.83	3241
900.95	3428
901.069	3504
901.189	3325
901.308	3165
901.427	3100
901.546	3154
901.665	3302
901.784	3367
901.904	3203
902.023	3142
902.141	2982
902.26	3005
902.379	3123
902.498	3085
902.617	3009
902.735	3207
902.854	3192
902.973	3184
903.091	3058
903.21	3039
903.328	3150
903.446	3104
903.565	3100
903.683	3207
903.801	3154
903.919	3214
904.038	3294
904.156	3169
904.274	3313
904.392	3264
904.51	3310
904.627	3382
904.745	3405
904.863	3488
904.981	3245
905.098	3138
905.216	3237
905.334	3306
905.451	3294
905.569	3298
905.686	3401
905.803	3416
905.921	3283
906.038	3397
906.155	3306
906.272	3275
906.389	3344
906.506	3275
906.623	3253
906.74	3237
906.857	3173
906.974	3275
907.091	3466
907.208	3584
907.324	3458
907.441	3367
907.557	3249
907.674	3222
907.79	3199
907.907	3249
908.023	3344
908.139	3405
908.256	3283
908.372	3359
908.488	3321
908.604	3256
908.72	3203
908.836	3275
908.952	3302
909.068	3370
909.184	3473
909.3	3401
909.415	3496
909.531	3485
909.647	3253
909.762	3302
909.878	3253
909.993	3374
910.108	3359
910.224	3298
910.339	3363
910.454	3355
910.57	3279
910.685	3275
910.8	3561
910.915	3538
911.03	3424
911.145	3249
911.259	3260
911.374	3329
911.489	3249
911.604	3211
911.718	3142
911.833	3165
911.947	3051
912.062	2933
912.176	3165
912.291	3203
912.405	3211
912.519	3397
912.633	3481
912.748	3363
912.862	3279
912.976	3188
913.09	3039
913.204	3138
913.318	3245
913.431	3329
913.545	3294
913.659	3420
913.772	3298
913.886	3188
914	3184
914.113	3355
914.226	3393
914.34	3367
914.453	3211
914.566	3447
914.68	3298
914.793	3317
914.906	3150
915.019	3154
915.132	3066
915.245	3165
915.358	3142
915.47	3222
915.583	3268
915.696	3275
915.809	3397
915.921	3439
916.034	3260
916.146	3253
916.259	3256
916.371	3382
916.483	3321
916.595	3249
916.708	3336
916.82	3359
916.932	3340
917.044	3344
917.156	3287
917.268	3249
917.38	3253
917.491	3302
917.603	3378
917.715	3435
917.826	3454
917.938	3405
918.049	3256
918.161	3397
918.272	3564
918.384	3610
918.495	3504
918.606	3336
918.717	3287
918.828	3363
918.939	3420
919.05	3310
919.161	3355
919.272	3211
919.383	3325
919.494	3526
919.604	3694
919.715	3492
919.826	3409
919.936	3447
920.047	3580
920.157	3545
920.267	3755
920.378	3614
920.488	3542
920.598	3755
920.708	3998
920.818	3804
920.928	3808
921.038	3994
921.148	3949
921.258	3682
921.368	3656
921.477	3618
921.587	3504
921.697	3420
921.806	3622
921.916	3492
922.025	3344
922.134	3367
922.244	3237
922.353	3439
922.462	3279
922.571	3214
922.68	3108
922.789	3081
922.898	3154
923.007	3093
923.116	3226
923.224	3192
923.333	3146
923.442	3089
923.55	3085
923.659	3135
923.767	3199
923.876	3112
923.984	3279
924.092	3104
924.201	3173
924.309	3214
924.417	3279
924.525	3230
924.633	3253
924.741	4002
924.849	3043
924.956	3253
925.064	3108
925.172	3058
925.279	3093
925.387	3195
925.494	3237
925.602	3344
925.709	3336
925.816	3165
925.924	3283
926.031	3370
926.138	3313
926.245	3313
926.352	3272
926.459	3389
926.566	3458
926.673	3325
926.779	3253
926.886	3287
926.993	3135
927.099	3154
927.206	3131
927.312	3093
927.419	3249
927.525	3184
927.631	3344
927.737	3116
927.843	3142
927.95	3047
928.056	3104
928.162	3180
928.267	3222
928.373	3899
928.479	3317
928.585	3055
928.69	3218
928.796	3272
928.901	3161
929.007	3036
929.112	3211
929.218	3161
929.323	3108
929.428	3131
929.533	3310
929.638	3127
929.743	3157
929.848	3279
929.953	3195
930.058	3135
930.163	2990
930.267	3028
930.372	3230
930.477	3032
930.581	3294
930.685	3157
930.79	3058
930.894	3161
930.998	3104
931.103	3272
931.207	2967
931.311	2956
931.415	2941
931.519	2731
931.623	2788
