Data from test_V78500241_1984.txt Node
Date: Fri Mar 25 16:28:56 CST 2022
User: usil
Spectrometer: V785-0024
Trigger mode: 0
Integration Time (sec): 4.000000E-1
Scans to average: 1
Nonlinearity correction enabled: false
Boxcar width: 0
Storing dark spectrum: false
XAxis mode: Wavelengths
Number of Pixels in Spectrum: 1024
>>>>>Begin Spectral Data<<<<<
801.071	2922
801.214	2922
801.356	2895
801.499	2883
801.641	2857
801.783	2933
801.926	3058
802.068	2956
802.211	2994
802.353	3028
802.496	2933
802.638	3028
802.78	3047
802.923	3055
803.065	3013
803.208	2887
803.35	2929
803.492	2910
803.635	2922
803.777	2766
803.919	2849
804.061	3211
804.204	2944
804.346	2902
804.488	2815
804.63	2963
804.773	2880
804.915	2899
805.057	3077
805.199	2914
805.341	2979
805.483	3047
805.626	3020
805.768	2944
805.91	3077
806.052	3112
806.194	3043
806.336	3211
806.478	3013
806.62	2944
806.762	3001
806.904	3020
807.046	3173
807.188	2967
807.33	2910
807.472	2975
807.614	2895
807.756	2994
807.898	2941
808.04	2902
808.182	2952
808.324	2937
808.465	2880
808.607	2883
808.749	2785
808.891	2842
809.033	2982
809.174	2956
809.316	2887
809.458	2895
809.6	2796
809.741	2788
809.883	2735
810.025	2842
810.166	2880
810.308	2826
810.45	2853
810.591	2788
810.733	2762
810.875	2849
811.016	2788
811.158	2758
811.299	2788
811.441	2952
811.582	2887
811.724	2792
811.865	2800
812.007	2891
812.148	2861
812.29	2845
812.431	2895
812.573	2937
812.714	2998
812.855	3020
812.997	3032
813.138	3135
813.279	2986
813.421	2971
813.562	2918
813.703	2880
813.845	2887
813.986	2735
814.127	2746
814.268	2811
814.41	2853
814.551	2804
814.692	2861
814.833	2785
814.974	2895
815.115	2975
815.256	2804
815.397	2826
815.539	2853
815.68	2785
815.821	2758
815.962	2944
816.103	2929
816.244	2887
816.385	2823
816.526	2937
816.666	2918
816.807	2735
816.948	2853
817.089	2880
817.23	2830
817.371	2750
817.512	2750
817.653	2826
817.793	2830
817.934	2868
818.075	2914
818.216	2967
818.356	3024
818.497	2864
818.638	2788
818.778	2781
818.919	2823
819.06	2773
819.2	2853
819.341	2800
819.481	2819
819.622	2899
819.762	3100
819.903	3013
820.043	2861
820.184	2918
820.324	2895
820.465	3009
820.605	3017
820.746	3036
820.886	2887
821.026	3085
821.167	3127
821.307	3237
821.447	3275
821.588	3233
821.728	3184
821.868	3180
822.008	3081
822.149	3211
822.289	3218
822.429	3112
822.569	3055
822.709	3180
822.849	3024
822.99	3097
823.13	3184
823.27	3195
823.41	3127
823.55	3127
823.69	3116
823.83	3165
823.97	3077
824.11	2963
824.25	2982
824.389	3024
824.529	3093
824.669	3070
824.809	3184
824.949	3245
825.089	3195
825.228	3184
825.368	2990
825.508	2982
825.648	2975
825.787	3001
825.927	3017
826.067	2933
826.206	2971
826.346	3039
826.485	3058
826.625	3116
826.765	3249
826.904	3203
827.044	2986
827.183	2960
827.323	2842
827.462	2960
827.601	2918
827.741	2929
827.88	2918
828.02	2857
828.159	2967
828.298	3032
828.437	3104
828.577	3039
828.716	3241
828.855	3085
828.994	2925
829.134	2857
829.273	2918
829.412	2857
829.551	2891
829.69	2883
829.829	3013
829.968	3119
830.107	3001
830.246	3043
830.385	2906
830.524	2872
830.663	2823
830.802	2758
830.941	2632
831.08	2651
831.219	2766
831.357	2773
831.496	2971
831.635	2724
831.774	2644
831.913	2640
832.051	2533
832.19	2571
832.329	2716
832.467	2533
832.606	2423
832.744	2564
832.883	2571
833.022	2590
833.16	2625
833.299	2682
833.437	2705
833.576	2716
833.714	2705
833.852	2716
833.991	2792
834.129	2834
834.267	2826
834.406	2773
834.544	2906
834.682	2891
834.821	2880
834.959	3085
835.097	2883
835.235	3043
835.373	2975
835.511	3039
835.65	2925
835.788	2963
835.926	2785
836.064	2766
836.202	2845
836.34	3085
836.478	3142
836.615	3036
836.753	3116
836.891	3154
837.029	3192
837.167	3127
837.305	3077
837.443	3009
837.58	2979
837.718	3150
837.856	3077
837.993	3009
838.131	3077
838.269	3112
838.406	3066
838.544	3074
838.681	2925
838.819	2918
838.956	2815
839.094	2868
839.231	2948
839.369	3005
839.506	3382
839.643	3188
839.781	2998
839.918	2982
840.055	3024
840.193	3077
840.33	3093
840.467	3089
840.604	3131
840.742	3386
840.879	3062
841.016	3020
841.153	3055
841.29	3306
841.427	3287
841.564	3264
841.701	3279
841.838	3245
841.975	3195
842.112	3192
842.249	3043
842.385	3001
842.522	3218
842.659	3081
842.796	3058
842.933	3097
843.069	3005
843.206	3017
843.343	3161
843.479	3089
843.616	3138
843.752	2902
843.889	2815
844.025	3051
844.162	2895
844.298	3062
844.435	2963
844.571	2937
844.708	3097
844.844	3176
844.98	3218
845.117	3184
845.253	3066
845.389	3024
845.525	3093
845.661	3104
845.798	2982
845.934	3104
846.07	3036
846.206	3214
846.342	3291
846.478	3199
846.614	3108
846.75	3047
846.886	2990
847.022	3222
847.158	3108
847.294	3165
847.429	3237
847.565	3211
847.701	3500
847.837	3058
847.972	2960
848.108	3154
848.244	3131
848.379	3013
848.515	2952
848.65	2922
848.786	2941
848.921	3009
849.057	3093
849.192	3161
849.328	3009
849.463	3081
849.598	3062
849.734	3062
849.869	2994
850.004	2906
850.14	2990
850.275	2933
850.41	2838
850.545	2868
850.68	2910
850.815	2963
850.95	2986
851.085	3154
851.22	3097
851.355	3039
851.49	2963
851.625	3005
851.76	3024
851.895	2922
852.03	2922
852.165	3066
852.299	3104
852.434	3195
852.569	3116
852.703	3142
852.838	3268
852.973	3348
853.107	3294
853.242	3127
853.376	3104
853.511	2952
853.645	3024
853.78	3188
853.914	3123
854.048	3081
854.183	3066
854.317	3138
854.451	3287
854.585	3085
854.72	3074
854.854	3203
854.988	3032
855.122	3116
855.256	2944
855.39	3135
855.524	3218
855.658	3195
855.792	3192
855.926	3180
856.06	3195
856.194	3256
856.327	3127
856.461	3089
856.595	3074
856.729	3108
856.862	3207
856.996	3154
857.13	3192
857.263	3233
857.397	3283
857.53	3146
857.664	3233
857.797	3233
857.931	3260
858.064	3119
858.197	3249
858.331	3119
858.464	3077
858.597	2994
858.731	3138
858.864	3123
858.997	3112
859.13	3119
859.263	3127
859.396	3195
859.529	3089
859.662	3081
859.795	3024
859.928	3154
860.061	3272
860.194	3241
860.327	3142
860.46	3085
860.592	3203
860.725	3256
860.858	3249
860.99	3104
861.123	3051
861.256	3013
861.388	3161
861.521	3899
861.653	3028
861.786	2925
861.918	2986
862.05	3058
862.183	3062
862.315	3165
862.447	3203
862.58	3097
862.712	2967
862.844	2842
862.976	3001
863.108	2975
863.24	3428
863.372	2872
863.504	2944
863.636	2967
863.768	3001
863.9	2982
864.032	2887
864.164	2960
864.296	2994
864.428	3093
864.559	3123
864.691	3100
864.823	3077
864.954	3024
865.086	3047
865.217	2998
865.349	2967
865.48	2963
865.612	3028
865.743	3146
865.875	3005
866.006	2929
866.137	2990
866.269	2956
866.4	2899
866.531	2906
866.662	2922
866.793	2902
866.924	2864
867.055	2982
867.186	2910
867.317	2842
867.448	2804
867.579	2834
867.71	2811
867.841	2811
867.972	2883
868.103	2906
868.233	2857
868.364	2880
868.495	2872
868.625	3043
868.756	3127
868.886	2963
869.017	3024
869.147	3138
869.278	3123
869.408	3036
869.539	3032
869.669	3097
869.799	3013
869.929	3142
870.06	3119
870.19	3279
870.32	3260
870.45	3272
870.58	3363
870.71	3450
870.84	3447
870.97	3268
871.1	3226
871.23	3450
871.36	3466
871.489	3313
871.619	3386
871.749	3378
871.879	3454
872.008	3534
872.138	3359
872.267	3249
872.397	3135
872.526	3093
872.656	3009
872.785	3089
872.915	3230
873.044	3302
873.173	3222
873.303	3241
873.432	3218
873.561	3211
873.69	3138
873.819	3157
873.948	3192
874.077	3093
874.206	3047
874.335	3070
874.464	3195
874.593	3363
874.722	3249
874.851	3370
874.979	3306
875.108	3298
875.237	3165
875.365	3157
875.494	3165
875.623	3272
875.751	3055
875.88	3123
876.008	3161
876.136	3203
876.265	3378
876.393	3481
876.521	3405
876.65	3386
876.778	3329
876.906	3233
877.034	3176
877.162	3260
877.29	3173
877.418	3253
877.546	3230
877.674	3233
877.802	3233
877.93	3199
878.058	3157
878.185	3108
878.313	3207
878.441	3188
878.568	3081
878.696	3173
878.824	3237
878.951	3298
879.079	3428
879.206	3641
879.333	3473
879.461	3298
879.588	3351
879.715	3473
879.842	3553
879.97	3378
880.097	3154
880.224	3154
880.351	3173
880.478	3214
880.605	3173
880.732	3188
880.859	3466
880.986	3279
881.112	3332
881.239	3203
881.366	3100
881.493	3039
881.619	3032
881.746	3093
881.872	3062
881.999	3112
882.125	3192
882.252	3199
882.378	3313
882.505	3389
882.631	3298
882.757	3127
882.883	3230
883.01	3211
883.136	3142
883.262	3085
883.388	3085
883.514	3306
883.64	3370
883.766	3291
883.892	3218
884.018	3233
884.143	3416
884.269	3511
884.395	3161
884.52	3203
884.646	3165
884.772	3135
884.897	3070
885.023	3222
885.148	3340
885.274	3393
885.399	3378
885.524	3264
885.65	3245
885.775	3313
885.9	3264
886.025	3401
886.15	3336
886.275	3268
886.4	3222
886.525	3325
886.65	3203
886.775	3283
886.9	3462
887.025	3568
887.149	3359
887.274	3272
887.399	3154
887.523	3253
887.648	3188
887.773	3169
887.897	3374
888.021	3348
888.146	3306
888.27	3416
888.395	3557
888.519	3401
888.643	3428
888.767	3443
888.891	3317
889.015	3222
889.139	3302
889.263	3230
889.387	3389
889.511	3561
889.635	3424
889.759	3287
889.883	3298
890.006	3428
890.13	3450
890.254	3233
890.377	3363
890.501	3203
890.624	3195
890.748	3275
890.871	3180
890.995	3116
891.118	3013
891.241	3203
891.364	3237
891.488	3302
891.611	3165
891.734	3230
891.857	3298
891.98	3253
892.103	3348
892.226	3245
892.349	3199
892.471	3081
892.594	3211
892.717	3241
892.839	3283
892.962	3283
893.085	3382
893.207	3279
893.33	3135
893.452	3192
893.575	3348
893.697	3233
893.819	3469
893.941	3481
894.064	3443
894.186	3253
894.308	3253
894.43	3405
894.552	3530
894.674	3473
894.796	3272
894.918	3260
895.04	3268
895.161	3466
895.283	3374
895.405	3298
895.526	3287
895.648	3397
895.769	3416
895.891	3462
896.012	3447
896.134	3447
896.255	3378
896.376	3367
896.498	3344
896.619	3405
896.74	3355
896.861	3382
896.982	3682
897.103	3861
897.224	3576
897.345	3545
897.466	3481
897.587	3485
897.708	3591
897.828	3507
897.949	3424
898.07	3329
898.19	3412
898.311	3603
898.431	3462
898.552	3496
898.672	3622
898.792	3545
898.913	3526
899.033	3435
899.153	3306
899.273	3207
899.393	3268
899.513	3298
899.633	3332
899.753	3313
899.873	3310
899.993	3374
900.113	3340
900.232	3359
900.352	3332
900.472	3329
900.591	3180
900.711	3294
900.83	3233
900.95	3397
901.069	3523
901.189	3351
901.308	3195
901.427	3146
901.546	3192
901.665	3294
901.784	3332
901.904	3173
902.023	3138
902.141	3024
902.26	2986
902.379	3123
902.498	3055
902.617	3062
902.735	3180
902.854	3211
902.973	3180
903.091	3070
903.21	3077
903.328	3112
903.446	3085
903.565	3123
903.683	3173
903.801	3131
903.919	3237
904.038	3260
904.156	3180
904.274	3275
904.392	3249
904.51	3279
904.627	3336
904.745	3450
904.863	3462
904.981	3245
905.098	3157
905.216	3233
905.334	3332
905.451	3302
905.569	3279
905.686	3405
905.803	3420
905.921	3291
906.038	3416
906.155	3325
906.272	3260
906.389	3340
906.506	3195
906.623	3268
906.74	3279
906.857	3218
906.974	3226
907.091	3447
907.208	3545
907.324	3454
907.441	3382
907.557	3241
907.674	3233
907.79	3154
907.907	3310
908.023	3336
908.139	3325
908.256	3275
908.372	3401
908.488	3313
908.604	3260
908.72	3226
908.836	3275
908.952	3253
909.068	3344
909.184	3477
909.3	3386
909.415	3466
909.531	3447
909.647	3291
909.762	3256
909.878	3264
909.993	3355
910.108	3332
910.224	3340
910.339	3405
910.454	3287
910.57	3306
910.685	3230
910.8	3595
910.915	3564
911.03	3416
911.145	3279
911.259	3310
911.374	3298
911.489	3233
911.604	3211
911.718	3100
911.833	3131
911.947	3062
912.062	2944
912.176	3180
912.291	3188
912.405	3192
912.519	3416
912.633	3450
912.748	3348
912.862	3249
912.976	3161
913.09	3039
913.204	3135
913.318	3214
913.431	3332
913.545	3310
913.659	3401
913.772	3321
913.886	3203
914	3161
914.113	3348
914.226	3409
914.34	3351
914.453	3199
914.566	3405
914.68	3291
914.793	3329
914.906	3157
915.019	3085
915.132	3074
915.245	3169
915.358	3230
915.47	3237
915.583	3275
915.696	3272
915.809	3416
915.921	3416
916.034	3222
916.146	3275
916.259	3203
916.371	3378
916.483	3401
916.595	3310
916.708	3344
916.82	3306
916.932	3329
917.044	3382
917.156	3340
917.268	3268
917.38	3283
917.491	3359
917.603	3370
917.715	3412
917.826	3496
917.938	3374
918.049	3268
918.161	3405
918.272	3572
918.384	3580
918.495	3507
918.606	3294
918.717	3253
918.828	3359
918.939	3351
919.05	3294
919.161	3374
919.272	3157
919.383	3291
919.494	3534
919.604	3694
919.715	3450
919.826	3401
919.936	3466
920.047	3564
920.157	3538
920.267	3728
920.378	3633
920.488	3568
920.598	3774
920.708	3922
920.818	3778
920.928	3804
921.038	4029
921.148	3987
921.258	3728
921.368	3629
921.477	3545
921.587	3530
921.697	3477
921.806	3648
921.916	3511
922.025	3336
922.134	3310
922.244	3313
922.353	3405
922.462	3253
922.571	3211
922.68	3066
922.789	3070
922.898	3127
923.007	3066
923.116	3207
923.224	3161
923.333	3154
923.442	3119
923.55	3039
923.659	3154
923.767	3203
923.876	3089
923.984	3214
924.092	3089
924.201	3188
924.309	3237
924.417	3260
924.525	3195
924.633	3218
924.741	4143
924.849	3062
924.956	3272
925.064	3108
925.172	3039
925.279	3104
925.387	3218
925.494	3184
925.602	3355
925.709	3355
925.816	3154
925.924	3272
926.031	3424
926.138	3317
926.245	3351
926.352	3275
926.459	3409
926.566	3485
926.673	3291
926.779	3226
926.886	3199
926.993	3165
927.099	3150
927.206	3100
927.312	3119
927.419	3237
927.525	3188
927.631	3268
927.737	3127
927.843	3097
927.95	3055
928.056	3119
928.162	3142
928.267	3253
928.373	3884
928.479	3302
928.585	3039
928.69	3192
928.796	3253
928.901	3157
929.007	3055
929.112	3207
929.218	3176
929.323	3119
929.428	3142
929.533	3340
929.638	3104
929.743	3180
929.848	3249
929.953	3203
930.058	3146
930.163	3009
930.267	3047
930.372	3245
930.477	3020
930.581	3294
930.685	3184
930.79	3081
930.894	3135
930.998	3066
931.103	3253
931.207	2963
931.311	2956
931.415	2967
931.519	2727
931.623	2792
