Data from test_V78500241_861.txt Node
Date: Fri Mar 25 16:21:10 CST 2022
User: usil
Spectrometer: V785-0024
Trigger mode: 0
Integration Time (sec): 4.000000E-1
Scans to average: 1
Nonlinearity correction enabled: false
Boxcar width: 0
Storing dark spectrum: false
XAxis mode: Wavelengths
Number of Pixels in Spectrum: 1024
>>>>>Begin Spectral Data<<<<<
801.071	2918
801.214	2994
801.356	2933
801.499	2963
801.641	2922
801.783	2960
801.926	3066
802.068	2998
802.211	3043
802.353	3062
802.496	3001
802.638	3066
802.78	3070
802.923	3116
803.065	3017
803.208	2941
803.35	2906
803.492	2941
803.635	2956
803.777	2766
803.919	2868
804.061	3195
804.204	2971
804.346	2906
804.488	2838
804.63	3005
804.773	2906
804.915	2902
805.057	3100
805.199	2929
805.341	3001
805.483	3043
805.626	3028
805.768	2998
805.91	3104
806.052	3104
806.194	3028
806.336	3237
806.478	3043
806.62	2956
806.762	2956
806.904	3066
807.046	3180
807.188	2975
807.33	2910
807.472	2998
807.614	2929
807.756	2998
807.898	2967
808.04	2895
808.182	2982
808.324	2944
808.465	2948
808.607	2830
808.749	2766
808.891	2864
809.033	2948
809.174	2975
809.316	2902
809.458	2880
809.6	2788
809.741	2773
809.883	2769
810.025	2872
810.166	2861
810.308	2857
810.45	2864
810.591	2781
810.733	2769
810.875	2830
811.016	2746
811.158	2758
811.299	2815
811.441	2952
811.582	2910
811.724	2849
811.865	2807
812.007	2933
812.148	2880
812.29	2902
812.431	2887
812.573	2937
812.714	2933
812.855	3020
812.997	3028
813.138	3116
813.279	2998
813.421	2998
813.562	2960
813.703	2857
813.845	2910
813.986	2781
814.127	2762
814.268	2823
814.41	2842
814.551	2830
814.692	2861
814.833	2811
814.974	2891
815.115	2975
815.256	2849
815.397	2849
815.539	2853
815.68	2785
815.821	2777
815.962	2967
816.103	2937
816.244	2883
816.385	2857
816.526	2990
816.666	2883
816.807	2773
816.948	2891
817.089	2929
817.23	2823
817.371	2773
817.512	2826
817.653	2834
817.793	2826
817.934	2899
818.075	2982
818.216	2979
818.356	3028
818.497	2861
818.638	2758
818.778	2834
818.919	2800
819.06	2762
819.2	2906
819.341	2811
819.481	2773
819.622	2922
819.762	3104
819.903	3001
820.043	2914
820.184	2891
820.324	2910
820.465	2990
820.605	3028
820.746	3020
820.886	2975
821.026	3108
821.167	3142
821.307	3230
821.447	3306
821.588	3260
821.728	3226
821.868	3176
822.008	3116
822.149	3150
822.289	3226
822.429	3077
822.569	3066
822.709	3192
822.849	3009
822.99	3043
823.13	3176
823.27	3233
823.41	3119
823.55	3150
823.69	3131
823.83	3169
823.97	3077
824.11	2998
824.25	3024
824.389	2994
824.529	3100
824.669	3062
824.809	3192
824.949	3230
825.089	3211
825.228	3180
825.368	2963
825.508	2971
825.648	2975
825.787	3009
825.927	3020
826.067	2948
826.206	2971
826.346	3058
826.485	3070
826.625	3146
826.765	3253
826.904	3192
827.044	3017
827.183	2937
827.323	2857
827.462	2979
827.601	2902
827.741	2956
827.88	2941
828.02	2857
828.159	2963
828.298	3047
828.437	3093
828.577	3020
828.716	3241
828.855	3070
828.994	2906
829.134	2880
829.273	2906
829.412	2861
829.551	2872
829.69	2895
829.829	3005
829.968	3093
830.107	3001
830.246	3028
830.385	2948
830.524	2891
830.663	2807
830.802	2731
830.941	2655
831.08	2651
831.219	2785
831.357	2777
831.496	2975
831.635	2689
831.774	2648
831.913	2617
832.051	2541
832.19	2587
832.329	2712
832.467	2541
832.606	2511
832.744	2606
832.883	2587
833.022	2587
833.16	2655
833.299	2716
833.437	2693
833.576	2682
833.714	2693
833.852	2758
833.991	2777
834.129	2815
834.267	2834
834.406	2804
834.544	2842
834.682	2880
834.821	2914
834.959	3066
835.097	2872
835.235	3062
835.373	2975
835.511	2982
835.65	2967
835.788	2941
835.926	2819
836.064	2796
836.202	2777
836.34	3066
836.478	3169
836.615	3039
836.753	3131
836.891	3233
837.029	3169
837.167	3089
837.305	3058
837.443	3066
837.58	2963
837.718	3138
837.856	3051
837.993	2994
838.131	3119
838.269	3077
838.406	3123
838.544	3116
838.681	2963
838.819	2891
838.956	2796
839.094	2834
839.231	2914
839.369	3009
839.506	3397
839.643	3233
839.781	3036
839.918	2960
840.055	3017
840.193	3047
840.33	3100
840.467	3104
840.604	3161
840.742	3409
840.879	3017
841.016	3032
841.153	3112
841.29	3363
841.427	3260
841.564	3226
841.701	3298
841.838	3218
841.975	3192
842.112	3207
842.249	3089
842.385	3028
842.522	3230
842.659	3066
842.796	3036
842.933	3108
843.069	3032
843.206	3070
843.343	3154
843.479	3093
843.616	3135
843.752	2883
843.889	2868
844.025	3077
844.162	2891
844.298	3070
844.435	2933
844.571	2944
844.708	3093
844.844	3233
844.98	3253
845.117	3173
845.253	3058
845.389	3005
845.525	3104
845.661	3081
845.798	3039
845.934	3100
846.07	3070
846.206	3222
846.342	3310
846.478	3207
846.614	3058
846.75	3066
846.886	3020
847.022	3245
847.158	3093
847.294	3161
847.429	3256
847.565	3176
847.701	3496
847.837	3017
847.972	2998
848.108	3150
848.244	3154
848.379	2979
848.515	2975
848.65	2941
848.786	2944
848.921	2967
849.057	3097
849.192	3157
849.328	3051
849.463	3097
849.598	3051
849.734	3036
849.869	2990
850.004	2948
850.14	2952
850.275	2929
850.41	2861
850.545	2876
850.68	2956
850.815	2975
850.95	2960
851.085	3188
851.22	3036
851.355	3024
851.49	2994
851.625	3013
851.76	2967
851.895	2918
852.03	2902
852.165	3051
852.299	3085
852.434	3176
852.569	3119
852.703	3161
852.838	3253
852.973	3283
853.107	3325
853.242	3100
853.376	3135
853.511	2956
853.645	3043
853.78	3253
853.914	3077
854.048	3154
854.183	3093
854.317	3150
854.451	3313
854.585	3142
854.72	3077
854.854	3180
854.988	3055
855.122	3051
855.256	2948
855.39	3108
855.524	3218
855.658	3173
855.792	3131
855.926	3195
856.06	3195
856.194	3218
856.327	3154
856.461	3070
856.595	3093
856.729	3055
856.862	3218
856.996	3127
857.13	3195
857.263	3184
857.397	3272
857.53	3085
857.664	3161
857.797	3230
857.931	3233
858.064	3123
858.197	3199
858.331	3142
858.464	3097
858.597	3005
858.731	3127
858.864	3123
858.997	3043
859.13	3097
859.263	3154
859.396	3192
859.529	3047
859.662	3036
859.795	3036
859.928	3135
860.061	3253
860.194	3272
860.327	3161
860.46	3062
860.592	3233
860.725	3218
860.858	3233
860.99	3097
861.123	3009
861.256	3039
861.388	3142
861.521	3846
861.653	2998
861.786	2967
861.918	2986
862.05	3070
862.183	3116
862.315	3157
862.447	3203
862.58	3112
862.712	2937
862.844	2887
862.976	3005
863.108	2982
863.24	3306
863.372	2872
863.504	2956
863.636	2944
863.768	3028
863.9	2975
864.032	2895
864.164	2929
864.296	2990
864.428	3020
864.559	3077
864.691	3085
864.823	3100
864.954	3093
865.086	3036
865.217	2971
865.349	2960
865.48	2986
865.612	3047
865.743	3157
865.875	3001
866.006	2975
866.137	2967
866.269	2948
866.4	2925
866.531	2941
866.662	2883
866.793	2876
866.924	2880
867.055	2948
867.186	2906
867.317	2880
867.448	2842
867.579	2830
867.71	2845
867.841	2823
867.972	2891
868.103	2891
868.233	2899
868.364	2830
868.495	2861
868.625	3085
868.756	3176
868.886	2948
869.017	3043
869.147	3161
869.278	3157
869.408	3017
869.539	3047
869.669	3104
869.799	3043
869.929	3104
870.06	3116
870.19	3283
870.32	3272
870.45	3268
870.58	3370
870.71	3454
870.84	3416
870.97	3249
871.1	3211
871.23	3500
871.36	3435
871.489	3355
871.619	3412
871.749	3389
871.879	3428
872.008	3458
872.138	3340
872.267	3256
872.397	3123
872.526	3077
872.656	3020
872.785	3070
872.915	3230
873.044	3294
873.173	3222
873.303	3253
873.432	3249
873.561	3233
873.69	3161
873.819	3161
873.948	3207
874.077	3097
874.206	3043
874.335	3093
874.464	3199
874.593	3359
874.722	3241
874.851	3378
874.979	3382
875.108	3275
875.237	3211
875.365	3169
875.494	3150
875.623	3237
875.751	3089
875.88	3070
876.008	3188
876.136	3237
876.265	3348
876.393	3526
876.521	3447
876.65	3370
876.778	3348
876.906	3241
877.034	3203
877.162	3214
877.29	3165
877.418	3253
877.546	3241
877.674	3218
877.802	3245
877.93	3203
878.058	3150
878.185	3089
878.313	3173
878.441	3195
878.568	3074
878.696	3138
878.824	3241
878.951	3291
879.079	3454
879.206	3610
879.333	3424
879.461	3302
879.588	3355
879.715	3462
879.842	3584
879.97	3370
880.097	3207
880.224	3135
880.351	3218
880.478	3218
880.605	3173
880.732	3180
880.859	3416
880.986	3298
881.112	3329
881.239	3203
881.366	3051
881.493	2994
881.619	3055
881.746	3047
881.872	3051
881.999	3066
882.125	3165
882.252	3249
882.378	3260
882.505	3458
882.631	3253
882.757	3123
882.883	3199
883.01	3214
883.136	3123
883.262	3116
883.388	3085
883.514	3306
883.64	3382
883.766	3302
883.892	3173
884.018	3253
884.143	3393
884.269	3519
884.395	3249
884.52	3119
884.646	3188
884.772	3142
884.897	3108
885.023	3222
885.148	3355
885.274	3397
885.399	3332
885.524	3306
885.65	3291
885.775	3310
885.9	3264
886.025	3443
886.15	3313
886.275	3272
886.4	3245
886.525	3279
886.65	3268
886.775	3268
886.9	3466
887.025	3667
887.149	3389
887.274	3222
887.399	3176
887.523	3173
887.648	3161
887.773	3188
887.897	3340
888.021	3424
888.146	3294
888.27	3454
888.395	3526
888.519	3428
888.643	3428
888.767	3428
888.891	3272
889.015	3233
889.139	3233
889.263	3241
889.387	3447
889.511	3496
889.635	3450
889.759	3260
889.883	3260
890.006	3363
890.13	3447
890.254	3245
890.377	3332
890.501	3211
890.624	3169
890.748	3321
890.871	3199
890.995	3074
891.118	3070
891.241	3135
891.364	3260
891.488	3294
891.611	3195
891.734	3199
891.857	3279
891.98	3249
892.103	3344
892.226	3260
892.349	3199
892.471	3081
892.594	3237
892.717	3321
892.839	3226
892.962	3294
893.085	3332
893.207	3302
893.33	3127
893.452	3241
893.575	3344
893.697	3275
893.819	3462
893.941	3488
894.064	3439
894.186	3268
894.308	3241
894.43	3428
894.552	3526
894.674	3428
894.796	3302
894.918	3310
895.04	3302
895.161	3401
895.283	3378
895.405	3275
895.526	3382
895.648	3424
895.769	3420
895.891	3469
896.012	3443
896.134	3481
896.255	3397
896.376	3348
896.498	3344
896.619	3386
896.74	3329
896.861	3382
896.982	3671
897.103	3800
897.224	3606
897.345	3538
897.466	3431
897.587	3481
897.708	3587
897.828	3492
897.949	3409
898.07	3306
898.19	3428
898.311	3587
898.431	3435
898.552	3492
898.672	3614
898.792	3606
898.913	3553
899.033	3458
899.153	3313
899.273	3226
899.393	3302
899.513	3306
899.633	3344
899.753	3351
899.873	3287
899.993	3382
900.113	3332
900.232	3359
900.352	3310
900.472	3302
900.591	3180
900.711	3287
900.83	3211
900.95	3378
901.069	3492
901.189	3332
901.308	3150
901.427	3138
901.546	3184
901.665	3275
901.784	3321
901.904	3230
902.023	3176
902.141	2982
902.26	2956
902.379	3119
902.498	3097
902.617	3051
902.735	3199
902.854	3211
902.973	3180
903.091	3055
903.21	3100
903.328	3135
903.446	3135
903.565	3077
903.683	3165
903.801	3089
903.919	3230
904.038	3241
904.156	3161
904.274	3283
904.392	3230
904.51	3275
904.627	3317
904.745	3416
904.863	3473
904.981	3260
905.098	3192
905.216	3218
905.334	3325
905.451	3313
905.569	3275
905.686	3412
905.803	3428
905.921	3256
906.038	3409
906.155	3348
906.272	3256
906.389	3344
906.506	3180
906.623	3264
906.74	3272
906.857	3199
906.974	3253
907.091	3401
907.208	3534
907.324	3428
907.441	3382
907.557	3218
907.674	3233
907.79	3180
907.907	3241
908.023	3355
908.139	3389
908.256	3344
908.372	3351
908.488	3313
908.604	3275
908.72	3249
908.836	3253
908.952	3264
909.068	3336
909.184	3469
909.3	3370
909.415	3473
909.531	3462
909.647	3272
909.762	3298
909.878	3260
909.993	3329
910.108	3329
910.224	3332
910.339	3355
910.454	3336
910.57	3272
910.685	3241
910.8	3542
910.915	3496
911.03	3431
911.145	3264
911.259	3256
911.374	3317
911.489	3207
911.604	3192
911.718	3074
911.833	3176
911.947	3051
912.062	2982
912.176	3119
912.291	3176
912.405	3192
912.519	3405
912.633	3439
912.748	3279
912.862	3260
912.976	3165
913.09	3055
913.204	3138
913.318	3226
913.431	3317
913.545	3325
913.659	3367
913.772	3321
913.886	3214
914	3146
914.113	3332
914.226	3435
914.34	3336
914.453	3226
914.566	3389
914.68	3249
914.793	3275
914.906	3146
915.019	3085
915.132	3024
915.245	3157
915.358	3161
915.47	3192
915.583	3241
915.696	3287
915.809	3405
915.921	3382
916.034	3207
916.146	3268
916.259	3211
916.371	3374
916.483	3329
916.595	3260
916.708	3325
916.82	3332
916.932	3325
917.044	3351
917.156	3370
917.268	3249
917.38	3310
917.491	3294
917.603	3397
917.715	3492
917.826	3447
917.938	3409
918.049	3287
918.161	3447
918.272	3564
918.384	3542
918.495	3477
918.606	3332
918.717	3306
918.828	3424
918.939	3458
919.05	3287
919.161	3397
919.272	3207
919.383	3332
919.494	3500
919.604	3724
919.715	3507
919.826	3481
919.936	3492
920.047	3622
920.157	3557
920.267	3789
920.378	3671
920.488	3584
920.598	3800
920.708	3987
920.818	3816
920.928	3861
921.038	4063
921.148	4032
921.258	3736
921.368	3667
921.477	3618
921.587	3584
921.697	3435
921.806	3648
921.916	3576
922.025	3405
922.134	3386
922.244	3359
922.353	3477
922.462	3222
922.571	3272
922.68	3104
922.789	3108
922.898	3165
923.007	3154
923.116	3279
923.224	3184
923.333	3199
923.442	3131
923.55	3131
923.659	3165
923.767	3279
923.876	3146
923.984	3287
924.092	3199
924.201	3211
924.309	3230
924.417	3325
924.525	3253
924.633	3272
924.741	4234
924.849	3058
924.956	3344
925.064	3135
925.172	3077
925.279	3116
925.387	3222
925.494	3241
925.602	3386
925.709	3405
925.816	3230
925.924	3336
926.031	3416
926.138	3378
926.245	3397
926.352	3310
926.459	3435
926.566	3500
926.673	3370
926.779	3302
926.886	3272
926.993	3214
927.099	3176
927.206	3142
927.312	3157
927.419	3283
927.525	3245
927.631	3325
927.737	3199
927.843	3150
927.95	3089
928.056	3154
928.162	3180
928.267	3294
928.373	3819
928.479	3351
928.585	3074
928.69	3241
928.796	3294
928.901	3233
929.007	3062
929.112	3218
929.218	3161
929.323	3161
929.428	3184
929.533	3351
929.638	3135
929.743	3199
929.848	3302
929.953	3207
930.058	3176
930.163	3047
930.267	3097
930.372	3207
930.477	3066
930.581	3332
930.685	3192
930.79	3070
930.894	3176
930.998	3116
931.103	3291
931.207	2990
931.311	2956
931.415	2971
931.519	2823
931.623	2826
