Data from test_V78500241_802.txt Node
Date: Fri Mar 25 16:20:45 CST 2022
User: usil
Spectrometer: V785-0024
Trigger mode: 0
Integration Time (sec): 4.000000E-1
Scans to average: 1
Nonlinearity correction enabled: false
Boxcar width: 0
Storing dark spectrum: false
XAxis mode: Wavelengths
Number of Pixels in Spectrum: 1024
>>>>>Begin Spectral Data<<<<<
801.071	2899
801.214	2937
801.356	2868
801.499	2906
801.641	2883
801.783	2872
801.926	3051
802.068	2986
802.211	2998
802.353	3058
802.496	2918
802.638	2982
802.78	3020
802.923	3051
803.065	3001
803.208	2883
803.35	2906
803.492	2914
803.635	2925
803.777	2731
803.919	2887
804.061	3173
804.204	2948
804.346	2883
804.488	2826
804.63	2990
804.773	2849
804.915	2891
805.057	3036
805.199	2891
805.341	2982
805.483	3055
805.626	2971
805.768	2922
805.91	3074
806.052	3081
806.194	3047
806.336	3245
806.478	3017
806.62	2941
806.762	2963
806.904	3051
807.046	3123
807.188	2979
807.33	2925
807.472	2963
807.614	2883
807.756	2952
807.898	2891
808.04	2918
808.182	2990
808.324	2967
808.465	2902
808.607	2849
808.749	2823
808.891	2838
809.033	2933
809.174	2990
809.316	2853
809.458	2857
809.6	2735
809.741	2743
809.883	2758
810.025	2849
810.166	2857
810.308	2785
810.45	2857
810.591	2746
810.733	2792
810.875	2834
811.016	2785
811.158	2769
811.299	2792
811.441	2918
811.582	2910
811.724	2815
811.865	2868
812.007	2880
812.148	2845
812.29	2826
812.431	2899
812.573	2952
812.714	2979
812.855	3036
812.997	3043
813.138	3112
813.279	2994
813.421	2994
813.562	2956
813.703	2830
813.845	2849
813.986	2773
814.127	2724
814.268	2792
814.41	2853
814.551	2777
814.692	2857
814.833	2811
814.974	2883
815.115	2960
815.256	2830
815.397	2800
815.539	2895
815.68	2792
815.821	2796
815.962	2887
816.103	2887
816.244	2872
816.385	2872
816.526	2941
816.666	2933
816.807	2739
816.948	2864
817.089	2918
817.23	2861
817.371	2785
817.512	2811
817.653	2823
817.793	2815
817.934	2853
818.075	2910
818.216	2960
818.356	3028
818.497	2902
818.638	2773
818.778	2830
818.919	2804
819.06	2762
819.2	2864
819.341	2811
819.481	2792
819.622	2872
819.762	3104
819.903	3005
820.043	2925
820.184	2895
820.324	2891
820.465	3036
820.605	3005
820.746	3039
820.886	2899
821.026	3119
821.167	3157
821.307	3237
821.447	3249
821.588	3253
821.728	3169
821.868	3218
822.008	3089
822.149	3211
822.289	3214
822.429	3108
822.569	3093
822.709	3154
822.849	3058
822.99	3036
823.13	3176
823.27	3211
823.41	3074
823.55	3165
823.69	3138
823.83	3150
823.97	3112
824.11	3013
824.25	2994
824.389	3039
824.529	3085
824.669	3070
824.809	3157
824.949	3241
825.089	3214
825.228	3173
825.368	2990
825.508	2910
825.648	2982
825.787	3017
825.927	2967
826.067	2948
826.206	2944
826.346	3043
826.485	3047
826.625	3074
826.765	3222
826.904	3199
827.044	2971
827.183	2941
827.323	2868
827.462	2998
827.601	2914
827.741	2918
827.88	2982
828.02	2857
828.159	2994
828.298	3047
828.437	3085
828.577	3047
828.716	3245
828.855	3089
828.994	2937
829.134	2887
829.273	2929
829.412	2876
829.551	2826
829.69	2849
829.829	2990
829.968	3150
830.107	2986
830.246	3009
830.385	2918
830.524	2857
830.663	2823
830.802	2716
830.941	2648
831.08	2625
831.219	2781
831.357	2762
831.496	2975
831.635	2693
831.774	2636
831.913	2648
832.051	2545
832.19	2594
832.329	2693
832.467	2537
832.606	2488
832.744	2560
832.883	2560
833.022	2575
833.16	2655
833.299	2659
833.437	2659
833.576	2667
833.714	2651
833.852	2739
833.991	2762
834.129	2830
834.267	2792
834.406	2769
834.544	2887
834.682	2845
834.821	2864
834.959	3070
835.097	2876
835.235	3062
835.373	2933
835.511	3020
835.65	2941
835.788	2967
835.926	2800
836.064	2834
836.202	2861
836.34	3097
836.478	3142
836.615	3051
836.753	3116
836.891	3192
837.029	3169
837.167	3066
837.305	3062
837.443	3017
837.58	2963
837.718	3074
837.856	3051
837.993	3028
838.131	3116
838.269	3146
838.406	3070
838.544	3081
838.681	2941
838.819	2918
838.956	2804
839.094	2834
839.231	2941
839.369	3043
839.506	3351
839.643	3203
839.781	3024
839.918	2952
840.055	3039
840.193	3020
840.33	3066
840.467	3097
840.604	3150
840.742	3412
840.879	3055
841.016	3013
841.153	3058
841.29	3310
841.427	3294
841.564	3233
841.701	3298
841.838	3241
841.975	3135
842.112	3211
842.249	3089
842.385	3013
842.522	3230
842.659	3093
842.796	3058
842.933	3058
843.069	3020
843.206	3055
843.343	3199
843.479	3104
843.616	3123
843.752	2929
843.889	2834
844.025	3066
844.162	2876
844.298	3089
844.435	2880
844.571	2922
844.708	3051
844.844	3188
844.98	3230
845.117	3188
845.253	3058
845.389	3024
845.525	3055
845.661	3097
845.798	2994
845.934	3100
846.07	2994
846.206	3180
846.342	3332
846.478	3207
846.614	3066
846.75	3047
846.886	3017
847.022	3218
847.158	3119
847.294	3188
847.429	3237
847.565	3218
847.701	3488
847.837	3051
847.972	2979
848.108	3165
848.244	3157
848.379	2960
848.515	2963
848.65	2922
848.786	2960
848.921	3005
849.057	3116
849.192	3135
849.328	3047
849.463	3112
849.598	3036
849.734	3051
849.869	2982
850.004	2922
850.14	2967
850.275	2918
850.41	2823
850.545	2872
850.68	2910
850.815	2956
850.95	2979
851.085	3180
851.22	3074
851.355	3058
851.49	2998
851.625	2986
851.76	3028
851.895	2944
852.03	2887
852.165	3017
852.299	3108
852.434	3192
852.569	3123
852.703	3176
852.838	3237
852.973	3363
853.107	3317
853.242	3165
853.376	3077
853.511	3005
853.645	3017
853.78	3249
853.914	3119
854.048	3108
854.183	3097
854.317	3180
854.451	3313
854.585	3138
854.72	3077
854.854	3203
854.988	3032
855.122	3097
855.256	2929
855.39	3112
855.524	3207
855.658	3188
855.792	3150
855.926	3203
856.06	3192
856.194	3253
856.327	3180
856.461	3100
856.595	3039
856.729	3070
856.862	3184
856.996	3146
857.13	3203
857.263	3192
857.397	3268
857.53	3089
857.664	3184
857.797	3245
857.931	3287
858.064	3184
858.197	3218
858.331	3150
858.464	3077
858.597	2990
858.731	3116
858.864	3108
858.997	3108
859.13	3165
859.263	3180
859.396	3214
859.529	3074
859.662	3085
859.795	3039
859.928	3142
860.061	3275
860.194	3260
860.327	3131
860.46	3093
860.592	3230
860.725	3256
860.858	3268
860.99	3127
861.123	3024
861.256	3085
861.388	3119
861.521	3975
861.653	3017
861.786	2967
861.918	2998
862.05	3070
862.183	3070
862.315	3150
862.447	3214
862.58	3112
862.712	2937
862.844	2861
862.976	3020
863.108	2998
863.24	3275
863.372	2842
863.504	2937
863.636	2922
863.768	3009
863.9	2982
864.032	2929
864.164	2933
864.296	3017
864.428	3104
864.559	3116
864.691	3081
864.823	3074
864.954	3009
865.086	3051
865.217	3013
865.349	2948
865.48	2963
865.612	2990
865.743	3161
865.875	2975
866.006	2902
866.137	2922
866.269	2948
866.4	2925
866.531	2899
866.662	2914
866.793	2887
866.924	2891
867.055	2994
867.186	2906
867.317	2872
867.448	2845
867.579	2800
867.71	2830
867.841	2857
867.972	2849
868.103	2914
868.233	2887
868.364	2883
868.495	2899
868.625	3097
868.756	3138
868.886	2948
869.017	3017
869.147	3180
869.278	3154
869.408	3036
869.539	3005
869.669	3097
869.799	3017
869.929	3112
870.06	3116
870.19	3351
870.32	3272
870.45	3283
870.58	3370
870.71	3439
870.84	3443
870.97	3291
871.1	3241
871.23	3454
871.36	3428
871.489	3370
871.619	3321
871.749	3382
871.879	3458
872.008	3492
872.138	3359
872.267	3222
872.397	3131
872.526	3104
872.656	3013
872.785	3070
872.915	3245
873.044	3325
873.173	3226
873.303	3203
873.432	3249
873.561	3241
873.69	3142
873.819	3154
873.948	3214
874.077	3070
874.206	3028
874.335	3116
874.464	3192
874.593	3310
874.722	3245
874.851	3412
874.979	3325
875.108	3275
875.237	3203
875.365	3161
875.494	3165
875.623	3268
875.751	3119
875.88	3100
876.008	3154
876.136	3230
876.265	3389
876.393	3496
876.521	3374
876.65	3351
876.778	3336
876.906	3222
877.034	3203
877.162	3230
877.29	3146
877.418	3264
877.546	3279
877.674	3199
877.802	3188
877.93	3226
878.058	3161
878.185	3081
878.313	3222
878.441	3218
878.568	3058
878.696	3161
878.824	3218
878.951	3317
879.079	3424
879.206	3584
879.333	3409
879.461	3382
879.588	3409
879.715	3485
879.842	3561
879.97	3359
880.097	3157
880.224	3077
880.351	3211
880.478	3176
880.605	3192
880.732	3173
880.859	3485
880.986	3321
881.112	3302
881.239	3195
881.366	3089
881.493	3017
881.619	3005
881.746	3066
881.872	3043
881.999	3074
882.125	3131
882.252	3226
882.378	3272
882.505	3412
882.631	3253
882.757	3150
882.883	3233
883.01	3226
883.136	3180
883.262	3062
883.388	3154
883.514	3245
883.64	3351
883.766	3298
883.892	3195
884.018	3233
884.143	3416
884.269	3515
884.395	3226
884.52	3154
884.646	3154
884.772	3093
884.897	3112
885.023	3214
885.148	3348
885.274	3370
885.399	3332
885.524	3310
885.65	3222
885.775	3298
885.9	3249
886.025	3412
886.15	3370
886.275	3287
886.4	3264
886.525	3260
886.65	3249
886.775	3275
886.9	3492
887.025	3663
887.149	3397
887.274	3264
887.399	3169
887.523	3222
887.648	3161
887.773	3203
887.897	3340
888.021	3397
888.146	3317
888.27	3412
888.395	3519
888.519	3416
888.643	3412
888.767	3435
888.891	3321
889.015	3237
889.139	3287
889.263	3233
889.387	3412
889.511	3466
889.635	3412
889.759	3260
889.883	3268
890.006	3351
890.13	3488
890.254	3272
890.377	3344
890.501	3214
890.624	3173
890.748	3302
890.871	3184
890.995	3097
891.118	3028
891.241	3176
891.364	3207
891.488	3313
891.611	3138
891.734	3211
891.857	3264
891.98	3230
892.103	3294
892.226	3275
892.349	3214
892.471	3085
892.594	3256
892.717	3272
892.839	3253
892.962	3279
893.085	3389
893.207	3302
893.33	3108
893.452	3199
893.575	3336
893.697	3230
893.819	3485
893.941	3485
894.064	3401
894.186	3268
894.308	3256
894.43	3416
894.552	3515
894.674	3466
894.796	3226
894.918	3298
895.04	3283
895.161	3401
895.283	3351
895.405	3310
895.526	3359
895.648	3424
895.769	3386
895.891	3447
896.012	3412
896.134	3466
896.255	3374
896.376	3386
896.498	3378
896.619	3450
896.74	3321
896.861	3386
896.982	3629
897.103	3842
897.224	3545
897.345	3466
897.466	3397
897.587	3477
897.708	3614
897.828	3526
897.949	3443
898.07	3317
898.19	3447
898.311	3603
898.431	3412
898.552	3500
898.672	3572
898.792	3549
898.913	3507
899.033	3367
899.153	3253
899.273	3211
899.393	3287
899.513	3283
899.633	3317
899.753	3313
899.873	3329
899.993	3412
900.113	3336
900.232	3401
900.352	3332
900.472	3310
900.591	3226
900.711	3279
900.83	3253
900.95	3412
901.069	3485
901.189	3336
901.308	3184
901.427	3150
901.546	3214
901.665	3317
901.784	3302
901.904	3211
902.023	3218
902.141	3036
902.26	3032
902.379	3142
902.498	3097
902.617	3089
902.735	3241
902.854	3203
902.973	3192
903.091	3077
903.21	3112
903.328	3135
903.446	3123
903.565	3173
903.683	3207
903.801	3150
903.919	3287
904.038	3317
904.156	3188
904.274	3306
904.392	3325
904.51	3332
904.627	3363
904.745	3473
904.863	3523
904.981	3310
905.098	3230
905.216	3268
905.334	3313
905.451	3344
905.569	3382
905.686	3462
905.803	3523
905.921	3344
906.038	3454
906.155	3382
906.272	3340
906.389	3374
906.506	3268
906.623	3313
906.74	3298
906.857	3226
906.974	3321
907.091	3447
907.208	3603
907.324	3492
907.441	3416
907.557	3302
907.674	3283
907.79	3233
907.907	3336
908.023	3431
908.139	3420
908.256	3386
908.372	3424
908.488	3397
908.604	3298
908.72	3283
908.836	3306
908.952	3294
909.068	3367
909.184	3504
909.3	3439
909.415	3534
909.531	3496
909.647	3294
909.762	3321
909.878	3294
909.993	3412
910.108	3412
910.224	3386
910.339	3435
910.454	3386
910.57	3321
910.685	3268
910.8	3618
910.915	3561
911.03	3469
911.145	3294
911.259	3313
911.374	3355
911.489	3313
911.604	3260
911.718	3154
911.833	3173
911.947	3055
912.062	2990
912.176	3230
912.291	3203
912.405	3237
912.519	3431
912.633	3511
912.748	3348
912.862	3275
912.976	3211
913.09	3108
913.204	3176
913.318	3268
913.431	3340
913.545	3393
913.659	3473
913.772	3374
913.886	3203
914	3272
914.113	3393
914.226	3477
914.34	3386
914.453	3241
914.566	3439
914.68	3325
914.793	3412
914.906	3195
915.019	3142
915.132	3081
915.245	3169
915.358	3245
915.47	3256
915.583	3329
915.696	3294
915.809	3401
915.921	3447
916.034	3306
916.146	3283
916.259	3253
916.371	3378
916.483	3416
916.595	3317
916.708	3367
916.82	3325
916.932	3378
917.044	3382
917.156	3374
917.268	3302
917.38	3329
917.491	3336
917.603	3405
917.715	3481
917.826	3462
917.938	3409
918.049	3321
918.161	3409
918.272	3595
918.384	3587
918.495	3561
918.606	3386
918.717	3310
918.828	3405
918.939	3454
919.05	3367
919.161	3401
919.272	3169
919.383	3313
919.494	3507
919.604	3732
919.715	3496
919.826	3428
919.936	3488
920.047	3610
920.157	3572
920.267	3774
920.378	3584
920.488	3610
920.598	3831
920.708	3953
920.818	3892
920.928	3831
921.038	4090
921.148	4032
921.258	3759
921.368	3648
921.477	3603
921.587	3568
921.697	3466
921.806	3671
921.916	3545
922.025	3374
922.134	3386
922.244	3340
922.353	3519
922.462	3317
922.571	3237
922.68	3150
922.789	3108
922.898	3146
923.007	3173
923.116	3237
923.224	3199
923.333	3260
923.442	3123
923.55	3127
923.659	3150
923.767	3249
923.876	3157
923.984	3306
924.092	3119
924.201	3237
924.309	3256
924.417	3233
924.525	3226
924.633	3264
924.741	4204
924.849	3108
924.956	3336
925.064	3127
925.172	3058
925.279	3131
925.387	3230
925.494	3253
925.602	3401
925.709	3393
925.816	3214
925.924	3283
926.031	3393
926.138	3344
926.245	3393
926.352	3264
926.459	3439
926.566	3507
926.673	3355
926.779	3241
926.886	3253
926.993	3188
927.099	3157
927.206	3108
927.312	3138
927.419	3279
927.525	3272
927.631	3329
927.737	3188
927.843	3157
927.95	3047
928.056	3176
928.162	3173
928.267	3253
928.373	3781
928.479	3317
928.585	3142
928.69	3253
928.796	3302
928.901	3180
929.007	3055
929.112	3256
929.218	3211
929.323	3165
929.428	3176
929.533	3329
929.638	3104
929.743	3214
929.848	3302
929.953	3260
930.058	3127
930.163	3032
930.267	3116
930.372	3222
930.477	3062
930.581	3351
930.685	3222
930.79	3070
930.894	3138
930.998	3112
931.103	3306
931.207	2933
931.311	2986
931.415	2952
931.519	2819
931.623	2823
