Data from test_V78500241_576.txt Node
Date: Fri Mar 25 16:19:11 CST 2022
User: usil
Spectrometer: V785-0024
Trigger mode: 0
Integration Time (sec): 4.000000E-1
Scans to average: 1
Nonlinearity correction enabled: false
Boxcar width: 0
Storing dark spectrum: false
XAxis mode: Wavelengths
Number of Pixels in Spectrum: 1024
>>>>>Begin Spectral Data<<<<<
801.071	2899
801.214	2990
801.356	2883
801.499	2937
801.641	2902
801.783	2952
801.926	3024
802.068	2982
802.211	2990
802.353	3058
802.496	2975
802.638	3009
802.78	3039
802.923	3108
803.065	3013
803.208	2902
803.35	2944
803.492	2963
803.635	2998
803.777	2804
803.919	2853
804.061	3218
804.204	2937
804.346	2929
804.488	2876
804.63	3039
804.773	2895
804.915	2910
805.057	3108
805.199	2918
805.341	2979
805.483	3066
805.626	3043
805.768	2952
805.91	3081
806.052	3089
806.194	3058
806.336	3230
806.478	3024
806.62	2941
806.762	3017
806.904	3093
807.046	3173
807.188	2986
807.33	2925
807.472	3020
807.614	2933
807.756	3005
807.898	2899
808.04	2902
808.182	2967
808.324	2960
808.465	2876
808.607	2902
808.749	2830
808.891	2868
809.033	2975
809.174	2994
809.316	2880
809.458	2914
809.6	2792
809.741	2792
809.883	2735
810.025	2853
810.166	2868
810.308	2861
810.45	2880
810.591	2800
810.733	2788
810.875	2853
811.016	2826
811.158	2769
811.299	2811
811.441	2971
811.582	2918
811.724	2811
811.865	2891
812.007	2941
812.148	2883
812.29	2895
812.431	2895
812.573	2967
812.714	3013
812.855	3066
812.997	3066
813.138	3131
813.279	3009
813.421	2967
813.562	2986
813.703	2887
813.845	2925
813.986	2785
814.127	2731
814.268	2842
814.41	2849
814.551	2826
814.692	2853
814.833	2834
814.974	2895
815.115	2967
815.256	2883
815.397	2830
815.539	2845
815.68	2796
815.821	2811
815.962	2941
816.103	2937
816.244	2899
816.385	2857
816.526	2982
816.666	2925
816.807	2800
816.948	2883
817.089	2906
817.23	2876
817.371	2796
817.512	2807
817.653	2864
817.793	2857
817.934	2895
818.075	2975
818.216	2994
818.356	3032
818.497	2925
818.638	2800
818.778	2830
818.919	2830
819.06	2743
819.2	2891
819.341	2853
819.481	2819
819.622	2918
819.762	3127
819.903	3089
820.043	2937
820.184	2906
820.324	2880
820.465	3047
820.605	3020
820.746	3009
820.886	2937
821.026	3116
821.167	3157
821.307	3287
821.447	3272
821.588	3245
821.728	3226
821.868	3207
822.008	3093
822.149	3176
822.289	3188
822.429	3089
822.569	3097
822.709	3199
822.849	3093
822.99	3074
823.13	3131
823.27	3222
823.41	3119
823.55	3218
823.69	3146
823.83	3195
823.97	3119
824.11	3013
824.25	2998
824.389	3070
824.529	3127
824.669	3093
824.809	3192
824.949	3245
825.089	3207
825.228	3173
825.368	3017
825.508	2963
825.648	2963
825.787	3028
825.927	3055
826.067	2963
826.206	2979
826.346	3070
826.485	3070
826.625	3123
826.765	3268
826.904	3230
827.044	3020
827.183	2922
827.323	2849
827.462	2971
827.601	2941
827.741	2944
827.88	2941
828.02	2842
828.159	2994
828.298	3043
828.437	3070
828.577	3036
828.716	3264
828.855	3108
828.994	2906
829.134	2872
829.273	2937
829.412	2899
829.551	2861
829.69	2902
829.829	2994
829.968	3100
830.107	3028
830.246	3039
830.385	2941
830.524	2910
830.663	2811
830.802	2739
830.941	2667
831.08	2644
831.219	2811
831.357	2750
831.496	2922
831.635	2724
831.774	2659
831.913	2689
832.051	2552
832.19	2579
832.329	2712
832.467	2526
832.606	2469
832.744	2606
832.883	2594
833.022	2606
833.16	2648
833.299	2686
833.437	2674
833.576	2720
833.714	2686
833.852	2769
833.991	2731
834.129	2815
834.267	2838
834.406	2800
834.544	2861
834.682	2864
834.821	2864
834.959	3085
835.097	2883
835.235	3043
835.373	2994
835.511	2998
835.65	2944
835.788	2956
835.926	2861
836.064	2849
836.202	2838
836.34	3108
836.478	3119
836.615	3036
836.753	3165
836.891	3169
837.029	3184
837.167	3100
837.305	3066
837.443	3039
837.58	2960
837.718	3104
837.856	3058
837.993	3028
838.131	3119
838.269	3112
838.406	3097
838.544	3062
838.681	2975
838.819	2914
838.956	2781
839.094	2864
839.231	2918
839.369	3039
839.506	3382
839.643	3199
839.781	3036
839.918	2979
840.055	3047
840.193	3058
840.33	3089
840.467	3097
840.604	3173
840.742	3469
840.879	3055
841.016	3032
841.153	3089
841.29	3336
841.427	3291
841.564	3291
841.701	3302
841.838	3233
841.975	3157
842.112	3245
842.249	3066
842.385	3043
842.522	3291
842.659	3058
842.796	3100
842.933	3108
843.069	3039
843.206	3017
843.343	3207
843.479	3108
843.616	3085
843.752	2937
843.889	2883
844.025	3116
844.162	2902
844.298	3062
844.435	2941
844.571	2910
844.708	3077
844.844	3195
844.98	3245
845.117	3165
845.253	3036
845.389	2979
845.525	3119
845.661	3097
845.798	3028
845.934	3100
846.07	3093
846.206	3203
846.342	3294
846.478	3230
846.614	3108
846.75	3032
846.886	3009
847.022	3260
847.158	3180
847.294	3188
847.429	3211
847.565	3256
847.701	3462
847.837	3047
847.972	2979
848.108	3138
848.244	3169
848.379	3005
848.515	2937
848.65	2895
848.786	2952
848.921	3020
849.057	3081
849.192	3157
849.328	3066
849.463	3135
849.598	3051
849.734	3028
849.869	2933
850.004	2944
850.14	2975
850.275	2925
850.41	2842
850.545	2880
850.68	2952
850.815	2979
850.95	2937
851.085	3211
851.22	3097
851.355	3039
851.49	2994
851.625	3013
851.76	3017
851.895	2944
852.03	2918
852.165	3047
852.299	3127
852.434	3188
852.569	3074
852.703	3169
852.838	3203
852.973	3317
853.107	3313
853.242	3116
853.376	3043
853.511	2994
853.645	3036
853.78	3211
853.914	3097
854.048	3135
854.183	3058
854.317	3127
854.451	3287
854.585	3142
854.72	3089
854.854	3203
854.988	3058
855.122	3093
855.256	2944
855.39	3112
855.524	3230
855.658	3161
855.792	3173
855.926	3199
856.06	3241
856.194	3253
856.327	3150
856.461	3070
856.595	3070
856.729	3093
856.862	3226
856.996	3157
857.13	3142
857.263	3226
857.397	3264
857.53	3116
857.664	3169
857.797	3237
857.931	3256
858.064	3161
858.197	3195
858.331	3100
858.464	3081
858.597	3020
858.731	3150
858.864	3123
858.997	3081
859.13	3146
859.263	3192
859.396	3207
859.529	3062
859.662	3074
859.795	3043
859.928	3161
860.061	3268
860.194	3298
860.327	3131
860.46	3051
860.592	3249
860.725	3218
860.858	3253
860.99	3093
861.123	3043
861.256	3020
861.388	3123
861.521	3732
861.653	2979
861.786	3005
861.918	2994
862.05	3066
862.183	3119
862.315	3138
862.447	3180
862.58	3104
862.712	2937
862.844	2880
862.976	3001
863.108	3039
863.24	3412
863.372	2891
863.504	2960
863.636	2925
863.768	3055
863.9	3005
864.032	2914
864.164	2902
864.296	3013
864.428	3070
864.559	3074
864.691	3070
864.823	3077
864.954	3043
865.086	3058
865.217	3032
865.349	2960
865.48	2960
865.612	3028
865.743	3127
865.875	3009
866.006	2902
866.137	2998
866.269	2922
866.4	2944
866.531	2944
866.662	2857
866.793	2868
866.924	2857
867.055	2998
867.186	2925
867.317	2876
867.448	2823
867.579	2853
867.71	2868
867.841	2796
867.972	2895
868.103	2902
868.233	2876
868.364	2883
868.495	2914
868.625	3093
868.756	3165
868.886	3005
869.017	3036
869.147	3123
869.278	3169
869.408	3077
869.539	2990
869.669	3100
869.799	3024
869.929	3097
870.06	3100
870.19	3348
870.32	3294
870.45	3283
870.58	3359
870.71	3431
870.84	3409
870.97	3298
871.1	3226
871.23	3458
871.36	3454
871.489	3393
871.619	3409
871.749	3409
871.879	3424
872.008	3450
872.138	3363
872.267	3294
872.397	3108
872.526	3127
872.656	2979
872.785	3081
872.915	3256
873.044	3317
873.173	3192
873.303	3283
873.432	3207
873.561	3249
873.69	3192
873.819	3157
873.948	3203
874.077	3077
874.206	3032
874.335	3077
874.464	3203
874.593	3363
874.722	3233
874.851	3378
874.979	3329
875.108	3283
875.237	3192
875.365	3142
875.494	3203
875.623	3169
875.751	3032
875.88	3119
876.008	3222
876.136	3256
876.265	3382
876.393	3488
876.521	3409
876.65	3389
876.778	3329
876.906	3245
877.034	3203
877.162	3214
877.29	3184
877.418	3279
877.546	3253
877.674	3260
877.802	3237
877.93	3222
878.058	3135
878.185	3097
878.313	3188
878.441	3157
878.568	3077
878.696	3119
878.824	3253
878.951	3275
879.079	3462
879.206	3606
879.333	3397
879.461	3359
879.588	3325
879.715	3488
879.842	3576
879.97	3374
880.097	3169
880.224	3123
880.351	3169
880.478	3230
880.605	3203
880.732	3192
880.859	3549
880.986	3279
881.112	3325
881.239	3199
881.366	3093
881.493	3017
881.619	3013
881.746	3055
881.872	3104
881.999	3074
882.125	3119
882.252	3241
882.378	3291
882.505	3420
882.631	3256
882.757	3146
882.883	3218
883.01	3195
883.136	3180
883.262	3123
883.388	3112
883.514	3313
883.64	3386
883.766	3313
883.892	3222
884.018	3249
884.143	3401
884.269	3526
884.395	3230
884.52	3192
884.646	3123
884.772	3157
884.897	3116
885.023	3222
885.148	3287
885.274	3450
885.399	3351
885.524	3287
885.65	3230
885.775	3310
885.9	3283
886.025	3431
886.15	3325
886.275	3275
886.4	3222
886.525	3298
886.65	3294
886.775	3287
886.9	3488
887.025	3599
887.149	3424
887.274	3275
887.399	3180
887.523	3188
887.648	3146
887.773	3192
887.897	3310
888.021	3393
888.146	3294
888.27	3462
888.395	3523
888.519	3458
888.643	3443
888.767	3515
888.891	3298
889.015	3260
889.139	3264
889.263	3241
889.387	3393
889.511	3519
889.635	3454
889.759	3264
889.883	3264
890.006	3378
890.13	3492
890.254	3272
890.377	3313
890.501	3199
890.624	3176
890.748	3298
890.871	3192
890.995	3108
891.118	3081
891.241	3184
891.364	3199
891.488	3317
891.611	3173
891.734	3214
891.857	3298
891.98	3214
892.103	3283
892.226	3268
892.349	3180
892.471	3108
892.594	3222
892.717	3313
892.839	3249
892.962	3279
893.085	3367
893.207	3294
893.33	3150
893.452	3218
893.575	3355
893.697	3226
893.819	3485
893.941	3481
894.064	3454
894.186	3256
894.308	3275
894.43	3424
894.552	3523
894.674	3450
894.796	3279
894.918	3310
895.04	3306
895.161	3382
895.283	3359
895.405	3272
895.526	3348
895.648	3416
895.769	3435
895.891	3443
896.012	3504
896.134	3447
896.255	3416
896.376	3370
896.498	3348
896.619	3420
896.74	3393
896.861	3389
896.982	3679
897.103	3873
897.224	3595
897.345	3485
897.466	3447
897.587	3488
897.708	3618
897.828	3530
897.949	3428
898.07	3329
898.19	3386
898.311	3614
898.431	3462
898.552	3523
898.672	3587
898.792	3576
898.913	3511
899.033	3450
899.153	3306
899.273	3233
899.393	3294
899.513	3306
899.633	3313
899.753	3363
899.873	3291
899.993	3378
900.113	3313
900.232	3382
900.352	3355
900.472	3306
900.591	3226
900.711	3287
900.83	3192
900.95	3378
901.069	3523
901.189	3325
901.308	3138
901.427	3077
901.546	3142
901.665	3298
901.784	3298
901.904	3222
902.023	3150
902.141	3013
902.26	3005
902.379	3131
902.498	3051
902.617	3062
902.735	3214
902.854	3180
902.973	3169
903.091	3062
903.21	3028
903.328	3150
903.446	3119
903.565	3085
903.683	3169
903.801	3097
903.919	3241
904.038	3279
904.156	3154
904.274	3317
904.392	3294
904.51	3264
904.627	3302
904.745	3443
904.863	3530
904.981	3264
905.098	3169
905.216	3218
905.334	3321
905.451	3317
905.569	3294
905.686	3367
905.803	3439
905.921	3264
906.038	3431
906.155	3340
906.272	3260
906.389	3351
906.506	3211
906.623	3226
906.74	3268
906.857	3176
906.974	3241
907.091	3477
907.208	3538
907.324	3435
907.441	3355
907.557	3256
907.674	3222
907.79	3218
907.907	3291
908.023	3397
908.139	3409
908.256	3306
908.372	3393
908.488	3351
908.604	3253
908.72	3226
908.836	3321
908.952	3287
909.068	3336
909.184	3496
909.3	3378
909.415	3485
909.531	3504
909.647	3260
909.762	3329
909.878	3253
909.993	3355
910.108	3378
910.224	3325
910.339	3405
910.454	3336
910.57	3287
910.685	3249
910.8	3580
910.915	3526
911.03	3428
911.145	3275
911.259	3256
911.374	3279
911.489	3264
911.604	3253
911.718	3112
911.833	3176
911.947	3043
912.062	2979
912.176	3150
912.291	3176
912.405	3203
912.519	3458
912.633	3473
912.748	3310
912.862	3272
912.976	3154
913.09	3085
913.204	3123
913.318	3150
913.431	3344
913.545	3325
913.659	3409
913.772	3386
913.886	3241
914	3218
914.113	3351
914.226	3386
914.34	3363
914.453	3230
914.566	3393
914.68	3287
914.793	3298
914.906	3146
915.019	3100
915.132	3074
915.245	3165
915.358	3253
915.47	3241
915.583	3275
915.696	3241
915.809	3431
915.921	3420
916.034	3256
916.146	3214
916.259	3211
916.371	3405
916.483	3348
916.595	3253
916.708	3321
916.82	3348
916.932	3370
917.044	3317
917.156	3382
917.268	3253
917.38	3325
917.491	3325
917.603	3348
917.715	3466
917.826	3428
917.938	3412
918.049	3306
918.161	3519
918.272	3610
918.384	3542
918.495	3496
918.606	3340
918.717	3283
918.828	3424
918.939	3389
919.05	3245
919.161	3359
919.272	3195
919.383	3332
919.494	3439
919.604	3675
919.715	3458
919.826	3378
919.936	3485
920.047	3584
920.157	3561
920.267	3736
920.378	3591
920.488	3553
920.598	3770
920.708	3972
920.818	3793
920.928	3823
921.038	4048
921.148	3994
921.258	3717
921.368	3641
921.477	3553
921.587	3507
921.697	3477
921.806	3610
921.916	3519
922.025	3363
922.134	3332
922.244	3302
922.353	3466
922.462	3283
922.571	3283
922.68	3097
922.789	3097
922.898	3173
923.007	3135
923.116	3180
923.224	3154
923.333	3207
923.442	3077
923.55	3127
923.659	3135
923.767	3218
923.876	3066
923.984	3260
924.092	3112
924.201	3199
924.309	3222
924.417	3237
924.525	3173
924.633	3253
924.741	4013
924.849	3017
924.956	3275
925.064	3085
925.172	3028
925.279	3138
925.387	3169
925.494	3195
925.602	3321
925.709	3363
925.816	3211
925.924	3249
926.031	3351
926.138	3283
926.245	3370
926.352	3245
926.459	3378
926.566	3439
926.673	3302
926.779	3230
926.886	3233
926.993	3150
927.099	3108
927.206	3100
927.312	3161
927.419	3211
927.525	3230
927.631	3256
927.737	3192
927.843	3127
927.95	2990
928.056	3104
928.162	3169
928.267	3260
928.373	3808
928.479	3332
928.585	3036
928.69	3230
928.796	3241
928.901	3146
929.007	3036
929.112	3199
929.218	3154
929.323	3119
929.428	3142
929.533	3325
929.638	3089
929.743	3195
929.848	3310
929.953	3245
930.058	3123
930.163	2986
930.267	3077
930.372	3222
930.477	3017
930.581	3313
930.685	3169
930.79	3062
930.894	3116
930.998	3085
931.103	3260
931.207	2963
931.311	2933
931.415	2914
931.519	2773
931.623	2796
