Data from test_V78500241_1641.txt Node
Date: Fri Mar 25 16:26:34 CST 2022
User: usil
Spectrometer: V785-0024
Trigger mode: 0
Integration Time (sec): 4.000000E-1
Scans to average: 1
Nonlinearity correction enabled: false
Boxcar width: 0
Storing dark spectrum: false
XAxis mode: Wavelengths
Number of Pixels in Spectrum: 1024
>>>>>Begin Spectral Data<<<<<
801.071	2914
801.214	2937
801.356	2883
801.499	2895
801.641	2883
801.783	2918
801.926	3024
802.068	2948
802.211	2994
802.353	3032
802.496	2933
802.638	3024
802.78	3039
802.923	3089
803.065	3017
803.208	2883
803.35	2914
803.492	2868
803.635	2933
803.777	2746
803.919	2887
804.061	3154
804.204	2971
804.346	2891
804.488	2845
804.63	2998
804.773	2872
804.915	2887
805.057	3081
805.199	2944
805.341	2956
805.483	3020
805.626	3017
805.768	2944
805.91	3081
806.052	3097
806.194	3001
806.336	3226
806.478	3043
806.62	2960
806.762	2990
806.904	3074
807.046	3195
807.188	2967
807.33	2948
807.472	2967
807.614	2941
807.756	2994
807.898	2914
808.04	2895
808.182	2952
808.324	2948
808.465	2880
808.607	2876
808.749	2815
808.891	2868
809.033	3001
809.174	2948
809.316	2868
809.458	2925
809.6	2746
809.741	2769
809.883	2773
810.025	2887
810.166	2853
810.308	2842
810.45	2842
810.591	2777
810.733	2735
810.875	2849
811.016	2766
811.158	2777
811.299	2819
811.441	2941
811.582	2910
811.724	2834
811.865	2826
812.007	2922
812.148	2883
812.29	2872
812.431	2899
812.573	2944
812.714	2956
812.855	3047
812.997	3032
813.138	3154
813.279	2990
813.421	2967
813.562	2971
813.703	2876
813.845	2861
813.986	2739
814.127	2754
814.268	2823
814.41	2845
814.551	2788
814.692	2883
814.833	2807
814.974	2895
815.115	2982
815.256	2815
815.397	2830
815.539	2842
815.68	2754
815.821	2830
815.962	2922
816.103	2952
816.244	2876
816.385	2868
816.526	2925
816.666	2895
816.807	2766
816.948	2887
817.089	2895
817.23	2834
817.371	2762
817.512	2796
817.653	2861
817.793	2842
817.934	2883
818.075	2982
818.216	2979
818.356	3047
818.497	2861
818.638	2811
818.778	2838
818.919	2796
819.06	2754
819.2	2838
819.341	2815
819.481	2804
819.622	2922
819.762	3135
819.903	3032
820.043	2899
820.184	2925
820.324	2937
820.465	3005
820.605	3009
820.746	3047
820.886	2941
821.026	3081
821.167	3154
821.307	3253
821.447	3275
821.588	3226
821.728	3146
821.868	3184
822.008	3074
822.149	3188
822.289	3233
822.429	3100
822.569	3058
822.709	3146
822.849	3013
822.99	3074
823.13	3176
823.27	3180
823.41	3089
823.55	3138
823.69	3169
823.83	3192
823.97	3077
824.11	2967
824.25	3005
824.389	3058
824.529	3112
824.669	3036
824.809	3195
824.949	3237
825.089	3222
825.228	3116
825.368	2963
825.508	2956
825.648	2929
825.787	2963
825.927	2986
826.067	2922
826.206	2941
826.346	3055
826.485	3104
826.625	3119
826.765	3260
826.904	3233
827.044	2963
827.183	2941
827.323	2861
827.462	2952
827.601	2933
827.741	2948
827.88	2952
828.02	2872
828.159	2990
828.298	3024
828.437	3074
828.577	3032
828.716	3253
828.855	3066
828.994	2929
829.134	2868
829.273	2922
829.412	2861
829.551	2872
829.69	2906
829.829	2986
829.968	3127
830.107	3001
830.246	3039
830.385	2910
830.524	2906
830.663	2823
830.802	2731
830.941	2636
831.08	2636
831.219	2731
831.357	2746
831.496	2952
831.635	2697
831.774	2617
831.913	2663
832.051	2533
832.19	2571
832.329	2697
832.467	2526
832.606	2495
832.744	2568
832.883	2571
833.022	2571
833.16	2655
833.299	2678
833.437	2724
833.576	2670
833.714	2686
833.852	2731
833.991	2811
834.129	2811
834.267	2864
834.406	2807
834.544	2880
834.682	2887
834.821	2861
834.959	3058
835.097	2868
835.235	3085
835.373	2982
835.511	2982
835.65	2971
835.788	2952
835.926	2838
836.064	2800
836.202	2849
836.34	3085
836.478	3146
836.615	3066
836.753	3127
836.891	3184
837.029	3161
837.167	3123
837.305	3062
837.443	3039
837.58	2967
837.718	3127
837.856	3051
837.993	3032
838.131	3104
838.269	3093
838.406	3070
838.544	3066
838.681	2948
838.819	2899
838.956	2800
839.094	2845
839.231	2929
839.369	3013
839.506	3344
839.643	3211
839.781	3009
839.918	2967
840.055	3043
840.193	3062
840.33	3097
840.467	3104
840.604	3138
840.742	3401
840.879	3036
841.016	3028
841.153	3131
841.29	3351
841.427	3332
841.564	3272
841.701	3310
841.838	3169
841.975	3207
842.112	3214
842.249	3047
842.385	2994
842.522	3260
842.659	3070
842.796	3036
842.933	3085
843.069	3051
843.206	3024
843.343	3184
843.479	3062
843.616	3093
843.752	2914
843.889	2891
844.025	3070
844.162	2872
844.298	3070
844.435	2975
844.571	2925
844.708	3089
844.844	3161
844.98	3211
845.117	3173
845.253	3055
845.389	3009
845.525	3093
845.661	3093
845.798	3005
845.934	3093
846.07	3020
846.206	3188
846.342	3329
846.478	3268
846.614	3081
846.75	3058
846.886	3020
847.022	3230
847.158	3138
847.294	3173
847.429	3233
847.565	3207
847.701	3439
847.837	3017
847.972	3024
848.108	3161
848.244	3142
848.379	2967
848.515	2933
848.65	2918
848.786	2956
848.921	3020
849.057	3108
849.192	3146
849.328	3036
849.463	3097
849.598	3058
849.734	3028
849.869	2990
850.004	2956
850.14	2963
850.275	2880
850.41	2849
850.545	2842
850.68	2933
850.815	2967
850.95	2963
851.085	3199
851.22	3131
851.355	2990
851.49	2937
851.625	2975
851.76	2982
851.895	2922
852.03	2941
852.165	3005
852.299	3104
852.434	3165
852.569	3127
852.703	3150
852.838	3245
852.973	3370
853.107	3302
853.242	3131
853.376	3093
853.511	2948
853.645	3036
853.78	3211
853.914	3089
854.048	3116
854.183	3116
854.317	3119
854.451	3287
854.585	3135
854.72	3036
854.854	3222
854.988	3047
855.122	3085
855.256	2956
855.39	3085
855.524	3218
855.658	3131
855.792	3169
855.926	3192
856.06	3226
856.194	3237
856.327	3154
856.461	3066
856.595	3104
856.729	3100
856.862	3241
856.996	3142
857.13	3169
857.263	3207
857.397	3245
857.53	3112
857.664	3207
857.797	3237
857.931	3207
858.064	3146
858.197	3230
858.331	3108
858.464	3127
858.597	3036
858.731	3135
858.864	3154
858.997	3070
859.13	3154
859.263	3173
859.396	3188
859.529	3070
859.662	3081
859.795	3047
859.928	3100
860.061	3264
860.194	3279
860.327	3116
860.46	3074
860.592	3268
860.725	3264
860.858	3230
860.99	3085
861.123	3074
861.256	3051
861.388	3146
861.521	3808
861.653	3017
861.786	2967
861.918	3001
862.05	3047
862.183	3070
862.315	3176
862.447	3188
862.58	3100
862.712	2967
862.844	2872
862.976	3005
863.108	2975
863.24	3409
863.372	2883
863.504	2933
863.636	2929
863.768	3028
863.9	2971
864.032	2887
864.164	2971
864.296	3017
864.428	3112
864.559	3100
864.691	3074
864.823	3062
864.954	3039
865.086	3043
865.217	2986
865.349	2937
865.48	2998
865.612	2990
865.743	3150
865.875	2960
866.006	2956
866.137	2952
866.269	2963
866.4	2937
866.531	2899
866.662	2914
866.793	2876
866.924	2922
867.055	2960
867.186	2914
867.317	2872
867.448	2845
867.579	2849
867.71	2842
867.841	2842
867.972	2895
868.103	2918
868.233	2880
868.364	2872
868.495	2918
868.625	3051
868.756	3192
868.886	2960
869.017	3028
869.147	3169
869.278	3142
869.408	3032
869.539	3028
869.669	3062
869.799	3032
869.929	3154
870.06	3131
870.19	3329
870.32	3264
870.45	3302
870.58	3351
870.71	3466
870.84	3424
870.97	3245
871.1	3249
871.23	3504
871.36	3458
871.489	3378
871.619	3355
871.749	3416
871.879	3409
872.008	3519
872.138	3386
872.267	3230
872.397	3165
872.526	3074
872.656	3009
872.785	3081
872.915	3241
873.044	3340
873.173	3203
873.303	3245
873.432	3268
873.561	3214
873.69	3119
873.819	3131
873.948	3165
874.077	3104
874.206	3028
874.335	3085
874.464	3199
874.593	3344
874.722	3237
874.851	3405
874.979	3348
875.108	3359
875.237	3161
875.365	3180
875.494	3131
875.623	3237
875.751	3066
875.88	3138
876.008	3157
876.136	3226
876.265	3344
876.393	3488
876.521	3412
876.65	3405
876.778	3344
876.906	3260
877.034	3169
877.162	3253
877.29	3154
877.418	3272
877.546	3230
877.674	3237
877.802	3237
877.93	3237
878.058	3108
878.185	3116
878.313	3203
878.441	3199
878.568	3062
878.696	3142
878.824	3264
878.951	3264
879.079	3443
879.206	3599
879.333	3435
879.461	3348
879.588	3344
879.715	3473
879.842	3610
879.97	3397
880.097	3173
880.224	3161
880.351	3199
880.478	3226
880.605	3161
880.732	3180
880.859	3458
880.986	3325
881.112	3306
881.239	3207
881.366	3070
881.493	3017
881.619	3039
881.746	3070
881.872	3119
881.999	3085
882.125	3116
882.252	3214
882.378	3275
882.505	3405
882.631	3287
882.757	3131
882.883	3211
883.01	3203
883.136	3150
883.262	3066
883.388	3123
883.514	3317
883.64	3378
883.766	3321
883.892	3173
884.018	3203
884.143	3397
884.269	3515
884.395	3203
884.52	3119
884.646	3161
884.772	3123
884.897	3081
885.023	3192
885.148	3336
885.274	3443
885.399	3355
885.524	3268
885.65	3283
885.775	3325
885.9	3310
886.025	3428
886.15	3348
886.275	3283
886.4	3241
886.525	3279
886.65	3287
886.775	3272
886.9	3454
887.025	3652
887.149	3389
887.274	3264
887.399	3173
887.523	3211
887.648	3161
887.773	3176
887.897	3351
888.021	3401
888.146	3291
888.27	3420
888.395	3545
888.519	3428
888.643	3458
888.767	3439
888.891	3310
889.015	3218
889.139	3264
889.263	3245
889.387	3367
889.511	3534
889.635	3469
889.759	3291
889.883	3275
890.006	3405
890.13	3496
890.254	3268
890.377	3329
890.501	3203
890.624	3214
890.748	3302
890.871	3165
890.995	3097
891.118	3058
891.241	3169
891.364	3203
891.488	3317
891.611	3157
891.734	3207
891.857	3313
891.98	3211
892.103	3313
892.226	3275
892.349	3211
892.471	3104
892.594	3256
892.717	3260
892.839	3283
892.962	3279
893.085	3351
893.207	3264
893.33	3169
893.452	3245
893.575	3336
893.697	3268
893.819	3500
893.941	3454
894.064	3431
894.186	3260
894.308	3294
894.43	3431
894.552	3549
894.674	3450
894.796	3260
894.918	3336
895.04	3306
895.161	3473
895.283	3393
895.405	3291
895.526	3325
895.648	3416
895.769	3439
895.891	3428
896.012	3481
896.134	3477
896.255	3359
896.376	3401
896.498	3348
896.619	3447
896.74	3351
896.861	3424
896.982	3644
897.103	3899
897.224	3572
897.345	3523
897.466	3481
897.587	3519
897.708	3610
897.828	3568
897.949	3447
898.07	3359
898.19	3389
898.311	3591
898.431	3447
898.552	3458
898.672	3591
898.792	3595
898.913	3523
899.033	3386
899.153	3294
899.273	3226
899.393	3272
899.513	3332
899.633	3313
899.753	3321
899.873	3302
899.993	3397
900.113	3355
900.232	3378
900.352	3325
900.472	3275
900.591	3214
900.711	3302
900.83	3241
900.95	3439
901.069	3492
901.189	3325
901.308	3119
901.427	3150
901.546	3222
901.665	3302
901.784	3313
901.904	3195
902.023	3119
902.141	3028
902.26	2963
902.379	3112
902.498	3047
902.617	3077
902.735	3214
902.854	3249
902.973	3176
903.091	3070
903.21	3047
903.328	3142
903.446	3100
903.565	3089
903.683	3203
903.801	3127
903.919	3241
904.038	3245
904.156	3173
904.274	3287
904.392	3268
904.51	3287
904.627	3359
904.745	3409
904.863	3466
904.981	3260
905.098	3123
905.216	3222
905.334	3321
905.451	3310
905.569	3321
905.686	3370
905.803	3439
905.921	3237
906.038	3412
906.155	3313
906.272	3268
906.389	3329
906.506	3233
906.623	3230
906.74	3279
906.857	3192
906.974	3253
907.091	3416
907.208	3542
907.324	3443
907.441	3378
907.557	3211
907.674	3218
907.79	3195
907.907	3260
908.023	3359
908.139	3374
908.256	3329
908.372	3355
908.488	3329
908.604	3253
908.72	3226
908.836	3253
908.952	3272
909.068	3336
909.184	3477
909.3	3370
909.415	3488
909.531	3466
909.647	3302
909.762	3279
909.878	3264
909.993	3359
910.108	3348
910.224	3332
910.339	3389
910.454	3310
910.57	3321
910.685	3233
910.8	3584
910.915	3519
911.03	3443
911.145	3291
911.259	3241
911.374	3325
911.489	3233
911.604	3230
911.718	3085
911.833	3138
911.947	3001
912.062	2967
912.176	3150
912.291	3176
912.405	3176
912.519	3447
912.633	3435
912.748	3313
912.862	3275
912.976	3180
913.09	3066
913.204	3112
913.318	3207
913.431	3382
913.545	3344
913.659	3435
913.772	3336
913.886	3222
914	3169
914.113	3348
914.226	3393
914.34	3313
914.453	3264
914.566	3386
914.68	3291
914.793	3340
914.906	3127
915.019	3097
915.132	3074
915.245	3169
915.358	3207
915.47	3214
915.583	3268
915.696	3310
915.809	3397
915.921	3409
916.034	3245
916.146	3256
916.259	3199
916.371	3336
916.483	3386
916.595	3249
916.708	3344
916.82	3340
916.932	3283
917.044	3386
917.156	3332
917.268	3237
917.38	3237
917.491	3310
917.603	3298
917.715	3469
917.826	3477
917.938	3401
918.049	3294
918.161	3439
918.272	3587
918.384	3523
918.495	3428
918.606	3287
918.717	3294
918.828	3355
918.939	3378
919.05	3310
919.161	3378
919.272	3169
919.383	3275
919.494	3523
919.604	3663
919.715	3515
919.826	3386
919.936	3443
920.047	3587
920.157	3504
920.267	3812
920.378	3591
920.488	3572
920.598	3766
920.708	3922
920.818	3816
920.928	3808
921.038	4025
921.148	4002
921.258	3701
921.368	3610
921.477	3568
921.587	3584
921.697	3420
921.806	3629
921.916	3534
922.025	3329
922.134	3405
922.244	3291
922.353	3405
922.462	3230
922.571	3214
922.68	3112
922.789	3081
922.898	3157
923.007	3112
923.116	3218
923.224	3180
923.333	3188
923.442	3104
923.55	3100
923.659	3119
923.767	3176
923.876	3131
923.984	3214
924.092	3157
924.201	3188
924.309	3195
924.417	3245
924.525	3184
924.633	3256
924.741	4196
924.849	3020
924.956	3211
925.064	3097
925.172	3066
925.279	3116
925.387	3211
925.494	3199
925.602	3355
925.709	3291
925.816	3180
925.924	3272
926.031	3370
926.138	3325
926.245	3378
926.352	3253
926.459	3393
926.566	3447
926.673	3317
926.779	3245
926.886	3230
926.993	3176
927.099	3119
927.206	3081
927.312	3108
927.419	3226
927.525	3195
927.631	3283
927.737	3135
927.843	3093
927.95	3039
928.056	3138
928.162	3169
928.267	3268
928.373	3751
928.479	3294
928.585	3074
928.69	3207
928.796	3298
928.901	3154
929.007	3039
929.112	3211
929.218	3214
929.323	3154
929.428	3138
929.533	3302
929.638	3127
929.743	3157
929.848	3233
929.953	3222
930.058	3161
930.163	2986
930.267	3058
930.372	3207
930.477	3032
930.581	3321
930.685	3146
930.79	3051
930.894	3097
930.998	3081
931.103	3245
931.207	2979
931.311	2914
931.415	2910
931.519	2785
931.623	2815
