Data from test_V78500241_1422.txt Node
Date: Fri Mar 25 16:25:03 CST 2022
User: usil
Spectrometer: V785-0024
Trigger mode: 0
Integration Time (sec): 4.000000E-1
Scans to average: 1
Nonlinearity correction enabled: false
Boxcar width: 0
Storing dark spectrum: false
XAxis mode: Wavelengths
Number of Pixels in Spectrum: 1024
>>>>>Begin Spectral Data<<<<<
801.071	2922
801.214	2933
801.356	2872
801.499	2857
801.641	2864
801.783	2914
801.926	3024
802.068	2937
802.211	2998
802.353	3032
802.496	2929
802.638	2986
802.78	3024
802.923	3085
803.065	3001
803.208	2910
803.35	2914
803.492	2918
803.635	2929
803.777	2731
803.919	2857
804.061	3211
804.204	2910
804.346	2918
804.488	2861
804.63	2990
804.773	2838
804.915	2902
805.057	3081
805.199	2925
805.341	2948
805.483	3047
805.626	2998
805.768	2967
805.91	3077
806.052	3058
806.194	3013
806.336	3241
806.478	3009
806.62	2925
806.762	2982
806.904	3077
807.046	3138
807.188	2990
807.33	2918
807.472	2971
807.614	2876
807.756	2990
807.898	2944
808.04	2883
808.182	2937
808.324	2933
808.465	2891
808.607	2861
808.749	2834
808.891	2823
809.033	2941
809.174	2956
809.316	2880
809.458	2883
809.6	2743
809.741	2773
809.883	2788
810.025	2834
810.166	2876
810.308	2868
810.45	2876
810.591	2785
810.733	2796
810.875	2830
811.016	2773
811.158	2777
811.299	2773
811.441	2937
811.582	2891
811.724	2842
811.865	2830
812.007	2891
812.148	2864
812.29	2857
812.431	2872
812.573	2937
812.714	2979
812.855	3070
812.997	3055
813.138	3127
813.279	3001
813.421	2994
813.562	2944
813.703	2899
813.845	2872
813.986	2773
814.127	2743
814.268	2826
814.41	2845
814.551	2804
814.692	2842
814.833	2830
814.974	2891
815.115	2941
815.256	2830
815.397	2838
815.539	2876
815.68	2804
815.821	2781
815.962	2967
816.103	2948
816.244	2902
816.385	2857
816.526	2941
816.666	2899
816.807	2762
816.948	2876
817.089	2929
817.23	2872
817.371	2769
817.512	2796
817.653	2853
817.793	2830
817.934	2853
818.075	2986
818.216	2998
818.356	3013
818.497	2887
818.638	2807
818.778	2792
818.919	2773
819.06	2731
819.2	2891
819.341	2769
819.481	2804
819.622	2929
819.762	3116
819.903	3036
820.043	2906
820.184	2902
820.324	2880
820.465	2971
820.605	3001
820.746	3032
820.886	2910
821.026	3104
821.167	3184
821.307	3226
821.447	3268
821.588	3249
821.728	3188
821.868	3195
822.008	3085
822.149	3180
822.289	3222
822.429	3108
822.569	3100
822.709	3142
822.849	3039
822.99	3093
823.13	3131
823.27	3154
823.41	3119
823.55	3123
823.69	3138
823.83	3154
823.97	3043
824.11	3024
824.25	2963
824.389	3058
824.529	3100
824.669	3055
824.809	3211
824.949	3207
825.089	3188
825.228	3180
825.368	3024
825.508	2914
825.648	2941
825.787	2975
825.927	3005
826.067	2971
826.206	3005
826.346	3055
826.485	3081
826.625	3119
826.765	3279
826.904	3161
827.044	2952
827.183	2941
827.323	2861
827.462	2979
827.601	2902
827.741	2933
827.88	2929
828.02	2834
828.159	2960
828.298	3055
828.437	3100
828.577	3051
828.716	3237
828.855	3047
828.994	2891
829.134	2872
829.273	2891
829.412	2849
829.551	2872
829.69	2887
829.829	2990
829.968	3116
830.107	3013
830.246	2998
830.385	2861
830.524	2857
830.663	2811
830.802	2720
830.941	2644
831.08	2632
831.219	2766
831.357	2758
831.496	2937
831.635	2693
831.774	2651
831.913	2617
832.051	2526
832.19	2583
832.329	2663
832.467	2560
832.606	2499
832.744	2575
832.883	2606
833.022	2602
833.16	2625
833.299	2655
833.437	2693
833.576	2693
833.714	2720
833.852	2724
833.991	2773
834.129	2880
834.267	2804
834.406	2773
834.544	2887
834.682	2895
834.821	2861
834.959	3032
835.097	2895
835.235	3047
835.373	2998
835.511	3005
835.65	2967
835.788	2967
835.926	2842
836.064	2823
836.202	2830
836.34	3043
836.478	3131
836.615	3028
836.753	3123
836.891	3192
837.029	3146
837.167	3123
837.305	3047
837.443	2990
837.58	2944
837.718	3165
837.856	3043
837.993	3055
838.131	3127
838.269	3097
838.406	3108
838.544	3093
838.681	2937
838.819	2902
838.956	2796
839.094	2834
839.231	2902
839.369	3074
839.506	3332
839.643	3245
839.781	3005
839.918	2952
840.055	2994
840.193	3017
840.33	3058
840.467	3097
840.604	3097
840.742	3393
840.879	3074
841.016	3047
841.153	3104
841.29	3329
841.427	3298
841.564	3211
841.701	3291
841.838	3199
841.975	3142
842.112	3195
842.249	3074
842.385	3028
842.522	3241
842.659	3089
842.796	3051
842.933	3062
843.069	3074
843.206	3001
843.343	3169
843.479	3119
843.616	3135
843.752	2895
843.889	2853
844.025	3058
844.162	2849
844.298	3089
844.435	2960
844.571	2895
844.708	3043
844.844	3199
844.98	3241
845.117	3203
845.253	3062
845.389	2994
845.525	3097
845.661	3100
845.798	3009
845.934	3097
846.07	3036
846.206	3214
846.342	3313
846.478	3237
846.614	3077
846.75	3039
846.886	3039
847.022	3249
847.158	3119
847.294	3169
847.429	3199
847.565	3188
847.701	3488
847.837	2998
847.972	3036
848.108	3157
848.244	3135
848.379	2967
848.515	2937
848.65	2910
848.786	2933
848.921	3009
849.057	3074
849.192	3169
849.328	3081
849.463	3104
849.598	3047
849.734	3013
849.869	2975
850.004	2899
850.14	3001
850.275	2933
850.41	2849
850.545	2895
850.68	2944
850.815	2948
850.95	2960
851.085	3180
851.22	3142
851.355	3036
851.49	2986
851.625	2975
851.76	3017
851.895	2944
852.03	2902
852.165	3013
852.299	3108
852.434	3123
852.569	3104
852.703	3138
852.838	3226
852.973	3351
853.107	3310
853.242	3135
853.376	3066
853.511	2975
853.645	3047
853.78	3214
853.914	3138
854.048	3097
854.183	3070
854.317	3127
854.451	3283
854.585	3108
854.72	3108
854.854	3180
854.988	3032
855.122	3074
855.256	2929
855.39	3081
855.524	3249
855.658	3180
855.792	3165
855.926	3165
856.06	3214
856.194	3268
856.327	3123
856.461	3051
856.595	3085
856.729	3081
856.862	3195
856.996	3150
857.13	3192
857.263	3199
857.397	3241
857.53	3157
857.664	3203
857.797	3249
857.931	3233
858.064	3169
858.197	3226
858.331	3146
858.464	3116
858.597	3024
858.731	3108
858.864	3108
858.997	3097
859.13	3150
859.263	3127
859.396	3192
859.529	3062
859.662	3055
859.795	3005
859.928	3123
860.061	3253
860.194	3275
860.327	3123
860.46	3104
860.592	3253
860.725	3214
860.858	3192
860.99	3081
861.123	3032
861.256	3039
861.388	3169
861.521	3781
861.653	2956
861.786	2960
861.918	3013
862.05	3032
862.183	3058
862.315	3100
862.447	3203
862.58	3100
862.712	2918
862.844	2876
862.976	3001
863.108	2994
863.24	3313
863.372	2868
863.504	2922
863.636	2960
863.768	3017
863.9	2990
864.032	2899
864.164	2925
864.296	2998
864.428	3070
864.559	3066
864.691	3062
864.823	3066
864.954	3020
865.086	3051
865.217	2952
865.349	2948
865.48	2990
865.612	3013
865.743	3119
865.875	2994
866.006	2880
866.137	2952
866.269	2933
866.4	2956
866.531	2883
866.662	2880
866.793	2872
866.924	2887
867.055	2971
867.186	2902
867.317	2891
867.448	2842
867.579	2826
867.71	2887
867.841	2819
867.972	2899
868.103	2902
868.233	2842
868.364	2910
868.495	2880
868.625	3055
868.756	3161
868.886	2994
869.017	2982
869.147	3154
869.278	3116
869.408	3058
869.539	3005
869.669	3131
869.799	3058
869.929	3142
870.06	3074
870.19	3325
870.32	3256
870.45	3298
870.58	3370
870.71	3435
870.84	3466
870.97	3298
871.1	3218
871.23	3530
871.36	3428
871.489	3340
871.619	3355
871.749	3382
871.879	3428
872.008	3496
872.138	3382
872.267	3272
872.397	3169
872.526	3089
872.656	2975
872.785	3070
872.915	3218
873.044	3294
873.173	3237
873.303	3245
873.432	3230
873.561	3218
873.69	3131
873.819	3146
873.948	3184
874.077	3074
874.206	3009
874.335	3097
874.464	3188
874.593	3348
874.722	3268
874.851	3389
874.979	3363
875.108	3287
875.237	3180
875.365	3127
875.494	3161
875.623	3230
875.751	3112
875.88	3093
876.008	3169
876.136	3203
876.265	3378
876.393	3504
876.521	3401
876.65	3389
876.778	3287
876.906	3226
877.034	3203
877.162	3233
877.29	3188
877.418	3230
877.546	3253
877.674	3226
877.802	3199
877.93	3199
878.058	3150
878.185	3085
878.313	3161
878.441	3226
878.568	3020
878.696	3142
878.824	3222
878.951	3283
879.079	3412
879.206	3591
879.333	3466
879.461	3298
879.588	3291
879.715	3492
879.842	3572
879.97	3332
880.097	3127
880.224	3108
880.351	3222
880.478	3199
880.605	3150
880.732	3176
880.859	3477
880.986	3294
881.112	3351
881.239	3188
881.366	3108
881.493	3028
881.619	3017
881.746	3070
881.872	3104
881.999	3081
882.125	3138
882.252	3222
882.378	3260
882.505	3401
882.631	3249
882.757	3135
882.883	3154
883.01	3207
883.136	3146
883.262	3089
883.388	3150
883.514	3332
883.64	3359
883.766	3298
883.892	3169
884.018	3211
884.143	3416
884.269	3500
884.395	3203
884.52	3165
884.646	3176
884.772	3108
884.897	3104
885.023	3207
885.148	3313
885.274	3443
885.399	3386
885.524	3264
885.65	3203
885.775	3291
885.9	3264
886.025	3409
886.15	3378
886.275	3294
886.4	3211
886.525	3264
886.65	3260
886.775	3260
886.9	3515
887.025	3637
887.149	3424
887.274	3287
887.399	3146
887.523	3165
887.648	3188
887.773	3203
887.897	3367
888.021	3359
888.146	3317
888.27	3416
888.395	3538
888.519	3450
888.643	3420
888.767	3469
888.891	3313
889.015	3241
889.139	3283
889.263	3241
889.387	3374
889.511	3530
889.635	3416
889.759	3291
889.883	3249
890.006	3374
890.13	3492
890.254	3275
890.377	3401
890.501	3161
890.624	3188
890.748	3283
890.871	3154
890.995	3043
891.118	3051
891.241	3207
891.364	3207
891.488	3291
891.611	3173
891.734	3237
891.857	3287
891.98	3203
892.103	3325
892.226	3275
892.349	3203
892.471	3112
892.594	3176
892.717	3287
892.839	3279
892.962	3317
893.085	3344
893.207	3275
893.33	3150
893.452	3226
893.575	3306
893.697	3241
893.819	3488
893.941	3492
894.064	3439
894.186	3260
894.308	3283
894.43	3382
894.552	3530
894.674	3462
894.796	3256
894.918	3287
895.04	3294
895.161	3443
895.283	3420
895.405	3272
895.526	3374
895.648	3447
895.769	3424
895.891	3412
896.012	3485
896.134	3431
896.255	3416
896.376	3351
896.498	3370
896.619	3409
896.74	3344
896.861	3420
896.982	3679
897.103	3838
897.224	3625
897.345	3511
897.466	3435
897.587	3485
897.708	3584
897.828	3542
897.949	3416
898.07	3348
898.19	3416
898.311	3584
898.431	3443
898.552	3500
898.672	3534
898.792	3542
898.913	3504
899.033	3397
899.153	3256
899.273	3256
899.393	3272
899.513	3287
899.633	3310
899.753	3351
899.873	3283
899.993	3355
900.113	3336
900.232	3397
900.352	3317
900.472	3275
900.591	3184
900.711	3294
900.83	3226
900.95	3374
901.069	3462
901.189	3367
901.308	3142
901.427	3142
901.546	3135
901.665	3253
901.784	3302
901.904	3211
902.023	3116
902.141	3001
902.26	2975
902.379	3108
902.498	3070
902.617	3013
902.735	3192
902.854	3222
902.973	3195
903.091	3032
903.21	3058
903.328	3146
903.446	3127
903.565	3085
903.683	3226
903.801	3150
903.919	3256
904.038	3256
904.156	3203
904.274	3256
904.392	3279
904.51	3275
904.627	3325
904.745	3466
904.863	3515
904.981	3264
905.098	3180
905.216	3256
905.334	3298
905.451	3317
905.569	3317
905.686	3435
905.803	3466
905.921	3283
906.038	3412
906.155	3336
906.272	3268
906.389	3363
906.506	3249
906.623	3298
906.74	3306
906.857	3214
906.974	3279
907.091	3504
907.208	3587
907.324	3530
907.441	3405
907.557	3218
907.674	3275
907.79	3249
907.907	3332
908.023	3389
908.139	3424
908.256	3363
908.372	3386
908.488	3409
908.604	3351
908.72	3302
908.836	3340
908.952	3313
909.068	3374
909.184	3473
909.3	3447
909.415	3561
909.531	3473
909.647	3317
909.762	3340
909.878	3321
909.993	3367
910.108	3355
910.224	3416
910.339	3454
910.454	3382
910.57	3310
910.685	3279
910.8	3595
910.915	3576
911.03	3458
911.145	3336
911.259	3306
911.374	3317
911.489	3291
911.604	3230
911.718	3214
911.833	3207
911.947	3093
912.062	3081
912.176	3218
912.291	3211
912.405	3214
912.519	3477
912.633	3488
912.748	3367
912.862	3317
912.976	3211
913.09	3100
913.204	3207
913.318	3264
913.431	3374
913.545	3370
913.659	3431
913.772	3370
913.886	3264
914	3222
914.113	3412
914.226	3481
914.34	3416
914.453	3241
914.566	3447
914.68	3325
914.793	3344
914.906	3184
915.019	3154
915.132	3093
915.245	3192
915.358	3226
915.47	3245
915.583	3294
915.696	3329
915.809	3466
915.921	3412
916.034	3283
916.146	3306
916.259	3253
916.371	3416
916.483	3389
916.595	3287
916.708	3374
916.82	3363
916.932	3336
917.044	3348
917.156	3359
917.268	3275
917.38	3325
917.491	3351
917.603	3405
917.715	3477
917.826	3496
917.938	3397
918.049	3283
918.161	3450
918.272	3584
918.384	3629
918.495	3523
918.606	3367
918.717	3275
918.828	3443
918.939	3409
919.05	3348
919.161	3401
919.272	3195
919.383	3325
919.494	3557
919.604	3720
919.715	3519
919.826	3439
919.936	3511
920.047	3580
920.157	3618
920.267	3770
920.378	3625
920.488	3595
920.598	3797
920.708	3922
920.818	3857
920.928	3865
921.038	4029
921.148	4021
921.258	3740
921.368	3701
921.477	3610
921.587	3568
921.697	3473
921.806	3667
921.916	3534
922.025	3370
922.134	3386
922.244	3389
922.353	3420
922.462	3321
922.571	3272
922.68	3138
922.789	3062
922.898	3142
923.007	3131
923.116	3249
923.224	3192
923.333	3253
923.442	3108
923.55	3138
923.659	3169
923.767	3241
923.876	3135
923.984	3298
924.092	3161
924.201	3233
924.309	3256
924.417	3283
924.525	3199
924.633	3268
924.741	4192
924.849	3043
924.956	3321
925.064	3142
925.172	3074
925.279	3112
925.387	3195
925.494	3253
925.602	3401
925.709	3325
925.816	3226
925.924	3310
926.031	3428
926.138	3355
926.245	3405
926.352	3256
926.459	3443
926.566	3519
926.673	3329
926.779	3302
926.886	3310
926.993	3192
927.099	3195
927.206	3123
927.312	3150
927.419	3272
927.525	3203
927.631	3306
927.737	3188
927.843	3146
927.95	3070
928.056	3176
928.162	3157
928.267	3283
928.373	3945
928.479	3389
928.585	3100
928.69	3260
928.796	3298
928.901	3199
929.007	3081
929.112	3241
929.218	3195
929.323	3165
929.428	3188
929.533	3340
929.638	3135
929.743	3192
929.848	3291
929.953	3249
930.058	3161
930.163	3043
930.267	3077
930.372	3226
930.477	3047
930.581	3325
930.685	3207
930.79	3108
930.894	3131
930.998	3135
931.103	3302
931.207	3001
931.311	2967
931.415	2971
931.519	2826
931.623	2838
