Data from test_V78500241_1111.txt Node
Date: Fri Mar 25 16:22:53 CST 2022
User: usil
Spectrometer: V785-0024
Trigger mode: 0
Integration Time (sec): 4.000000E-1
Scans to average: 1
Nonlinearity correction enabled: false
Boxcar width: 0
Storing dark spectrum: false
XAxis mode: Wavelengths
Number of Pixels in Spectrum: 1024
>>>>>Begin Spectral Data<<<<<
801.071	2933
801.214	2933
801.356	2891
801.499	2941
801.641	2895
801.783	2941
801.926	3051
802.068	2963
802.211	3009
802.353	3051
802.496	2982
802.638	3036
802.78	3013
802.923	3097
803.065	2986
803.208	2941
803.35	2910
803.492	2941
803.635	2986
803.777	2792
803.919	2864
804.061	3203
804.204	2998
804.346	2902
804.488	2853
804.63	2990
804.773	2891
804.915	2887
805.057	3089
805.199	2925
805.341	3009
805.483	3077
805.626	3020
805.768	2975
805.91	3077
806.052	3043
806.194	3043
806.336	3256
806.478	3039
806.62	2952
806.762	2975
806.904	3043
807.046	3146
807.188	3001
807.33	2929
807.472	3009
807.614	2941
807.756	2975
807.898	2925
808.04	2895
808.182	2971
808.324	2971
808.465	2868
808.607	2922
808.749	2800
808.891	2849
809.033	2986
809.174	2979
809.316	2910
809.458	2883
809.6	2788
809.741	2766
809.883	2750
810.025	2853
810.166	2830
810.308	2845
810.45	2868
810.591	2788
810.733	2788
810.875	2819
811.016	2796
811.158	2785
811.299	2804
811.441	2937
811.582	2880
811.724	2830
811.865	2842
812.007	2910
812.148	2861
812.29	2857
812.431	2925
812.573	2944
812.714	2967
812.855	3047
812.997	3047
813.138	3089
813.279	2986
813.421	3009
813.562	2971
813.703	2853
813.845	2899
813.986	2773
814.127	2750
814.268	2804
814.41	2880
814.551	2807
814.692	2872
814.833	2811
814.974	2861
815.115	2922
815.256	2845
815.397	2796
815.539	2857
815.68	2807
815.821	2766
815.962	2975
816.103	2914
816.244	2872
816.385	2864
816.526	2956
816.666	2929
816.807	2739
816.948	2861
817.089	2895
817.23	2845
817.371	2800
817.512	2769
817.653	2826
817.793	2796
817.934	2883
818.075	2960
818.216	2971
818.356	3043
818.497	2887
818.638	2796
818.778	2845
818.919	2804
819.06	2804
819.2	2876
819.341	2838
819.481	2785
819.622	2910
819.762	3077
819.903	3074
820.043	2956
820.184	2883
820.324	2902
820.465	3001
820.605	3017
820.746	3047
820.886	2910
821.026	3051
821.167	3173
821.307	3302
821.447	3256
821.588	3249
821.728	3218
821.868	3188
822.008	3081
822.149	3203
822.289	3230
822.429	3097
822.569	3085
822.709	3173
822.849	3036
822.99	3077
823.13	3199
823.27	3184
823.41	3097
823.55	3142
823.69	3169
823.83	3203
823.97	3081
824.11	3001
824.25	2986
824.389	3081
824.529	3112
824.669	3070
824.809	3207
824.949	3272
825.089	3214
825.228	3150
825.368	2982
825.508	2963
825.648	2975
825.787	3036
825.927	3020
826.067	2986
826.206	2933
826.346	3074
826.485	3104
826.625	3108
826.765	3241
826.904	3207
827.044	3020
827.183	2933
827.323	2845
827.462	2960
827.601	2929
827.741	2944
827.88	2986
828.02	2838
828.159	2979
828.298	2998
828.437	3127
828.577	3032
828.716	3264
828.855	3085
828.994	2918
829.134	2861
829.273	2918
829.412	2861
829.551	2826
829.69	2895
829.829	2990
829.968	3093
830.107	3009
830.246	2990
830.385	2918
830.524	2891
830.663	2830
830.802	2739
830.941	2613
831.08	2648
831.219	2746
831.357	2739
831.496	2948
831.635	2739
831.774	2640
831.913	2659
832.051	2564
832.19	2564
832.329	2682
832.467	2541
832.606	2484
832.744	2587
832.883	2583
833.022	2587
833.16	2617
833.299	2670
833.437	2689
833.576	2724
833.714	2682
833.852	2705
833.991	2785
834.129	2853
834.267	2845
834.406	2807
834.544	2895
834.682	2864
834.821	2838
834.959	3089
835.097	2906
835.235	3119
835.373	2994
835.511	3028
835.65	2963
835.788	2948
835.926	2830
836.064	2796
836.202	2861
836.34	3108
836.478	3169
836.615	3055
836.753	3116
836.891	3173
837.029	3173
837.167	3104
837.305	3074
837.443	3028
837.58	2967
837.718	3093
837.856	3074
837.993	3039
838.131	3131
838.269	3116
838.406	3074
838.544	3089
838.681	2952
838.819	2918
838.956	2811
839.094	2838
839.231	2906
839.369	3013
839.506	3355
839.643	3176
839.781	2982
839.918	2963
840.055	3032
840.193	3032
840.33	3055
840.467	3062
840.604	3138
840.742	3374
840.879	3097
841.016	3058
841.153	3081
841.29	3351
841.427	3294
841.564	3226
841.701	3291
841.838	3199
841.975	3165
842.112	3222
842.249	3089
842.385	3047
842.522	3245
842.659	3108
842.796	3062
842.933	3089
843.069	3032
843.206	3058
843.343	3218
843.479	3062
843.616	3104
843.752	2872
843.889	2891
844.025	3093
844.162	2891
844.298	3097
844.435	2925
844.571	2929
844.708	3047
844.844	3192
844.98	3192
845.117	3184
845.253	3062
845.389	3032
845.525	3085
845.661	3097
845.798	3032
845.934	3123
846.07	2986
846.206	3176
846.342	3283
846.478	3218
846.614	3074
846.75	3058
846.886	3005
847.022	3253
847.158	3146
847.294	3199
847.429	3237
847.565	3199
847.701	3469
847.837	3017
847.972	3001
848.108	3116
848.244	3146
848.379	2956
848.515	2925
848.65	2902
848.786	2979
848.921	3036
849.057	3085
849.192	3154
849.328	3036
849.463	3123
849.598	3020
849.734	3005
849.869	2963
850.004	2937
850.14	2963
850.275	2918
850.41	2842
850.545	2849
850.68	2933
850.815	2982
850.95	2975
851.085	3180
851.22	3097
851.355	3009
851.49	2963
851.625	2975
851.76	3024
851.895	2910
852.03	2910
852.165	3024
852.299	3104
852.434	3161
852.569	3146
852.703	3180
852.838	3256
852.973	3294
853.107	3287
853.242	3123
853.376	3085
853.511	2952
853.645	3028
853.78	3237
853.914	3157
854.048	3154
854.183	3081
854.317	3138
854.451	3275
854.585	3066
854.72	3089
854.854	3230
854.988	3036
855.122	3077
855.256	2979
855.39	3104
855.524	3230
855.658	3184
855.792	3154
855.926	3180
856.06	3207
856.194	3253
856.327	3131
856.461	3058
856.595	3104
856.729	3074
856.862	3142
856.996	3180
857.13	3245
857.263	3203
857.397	3302
857.53	3131
857.664	3173
857.797	3256
857.931	3226
858.064	3150
858.197	3188
858.331	3116
858.464	3055
858.597	2990
858.731	3100
858.864	3108
858.997	3100
859.13	3154
859.263	3184
859.396	3184
859.529	3047
859.662	3062
859.795	3047
859.928	3112
860.061	3241
860.194	3298
860.327	3131
860.46	3108
860.592	3211
860.725	3226
860.858	3260
860.99	3097
861.123	3036
861.256	3070
861.388	3176
861.521	3667
861.653	3005
861.786	2986
861.918	2979
862.05	3043
862.183	3085
862.315	3169
862.447	3203
862.58	3093
862.712	2944
862.844	2895
862.976	3009
863.108	2975
863.24	3397
863.372	2845
863.504	2960
863.636	2971
863.768	3043
863.9	2944
864.032	2887
864.164	2948
864.296	3047
864.428	3112
864.559	3112
864.691	3085
864.823	3047
864.954	2998
865.086	3017
865.217	2975
865.349	2944
865.48	2941
865.612	3017
865.743	3169
865.875	2941
866.006	2944
866.137	3009
866.269	2990
866.4	2941
866.531	2918
866.662	2876
866.793	2891
866.924	2864
867.055	2960
867.186	2944
867.317	2906
867.448	2842
867.579	2823
867.71	2811
867.841	2834
867.972	2872
868.103	2937
868.233	2876
868.364	2868
868.495	2880
868.625	3062
868.756	3135
868.886	2971
869.017	3032
869.147	3184
869.278	3142
869.408	3055
869.539	3024
869.669	3097
869.799	3032
869.929	3131
870.06	3074
870.19	3279
870.32	3283
870.45	3283
870.58	3351
870.71	3431
870.84	3462
870.97	3283
871.1	3230
871.23	3431
871.36	3424
871.489	3348
871.619	3420
871.749	3367
871.879	3439
872.008	3424
872.138	3382
872.267	3272
872.397	3165
872.526	3131
872.656	3028
872.785	3085
872.915	3214
873.044	3355
873.173	3230
873.303	3249
873.432	3195
873.561	3176
873.69	3150
873.819	3116
873.948	3192
874.077	3108
874.206	3036
874.335	3097
874.464	3211
874.593	3321
874.722	3226
874.851	3416
874.979	3382
875.108	3325
875.237	3207
875.365	3150
875.494	3199
875.623	3237
875.751	3047
875.88	3116
876.008	3165
876.136	3237
876.265	3397
876.393	3507
876.521	3431
876.65	3374
876.778	3332
876.906	3241
877.034	3241
877.162	3233
877.29	3146
877.418	3237
877.546	3222
877.674	3260
877.802	3199
877.93	3222
878.058	3142
878.185	3062
878.313	3214
878.441	3176
878.568	3058
878.696	3135
878.824	3272
878.951	3272
879.079	3447
879.206	3599
879.333	3412
879.461	3287
879.588	3310
879.715	3439
879.842	3580
879.97	3382
880.097	3150
880.224	3116
880.351	3154
880.478	3230
880.605	3180
880.732	3180
880.859	3485
880.986	3321
881.112	3321
881.239	3207
881.366	3077
881.493	3066
881.619	3043
881.746	3047
881.872	3108
881.999	3058
882.125	3150
882.252	3245
882.378	3287
882.505	3405
882.631	3268
882.757	3146
882.883	3165
883.01	3184
883.136	3176
883.262	3097
883.388	3108
883.514	3275
883.64	3401
883.766	3283
883.892	3192
884.018	3294
884.143	3389
884.269	3526
884.395	3192
884.52	3180
884.646	3211
884.772	3097
884.897	3051
885.023	3218
885.148	3329
885.274	3431
885.399	3321
885.524	3302
885.65	3272
885.775	3279
885.9	3287
886.025	3389
886.15	3370
886.275	3249
886.4	3237
886.525	3279
886.65	3302
886.775	3279
886.9	3462
887.025	3622
887.149	3431
887.274	3260
887.399	3176
887.523	3230
887.648	3195
887.773	3165
887.897	3370
888.021	3397
888.146	3302
888.27	3447
888.395	3530
888.519	3416
888.643	3439
888.767	3473
888.891	3253
889.015	3237
889.139	3310
889.263	3222
889.387	3382
889.511	3462
889.635	3466
889.759	3317
889.883	3298
890.006	3363
890.13	3466
890.254	3230
890.377	3351
890.501	3192
890.624	3195
890.748	3298
890.871	3192
890.995	3089
891.118	3043
891.241	3188
891.364	3230
891.488	3268
891.611	3176
891.734	3180
891.857	3249
891.98	3245
892.103	3291
892.226	3241
892.349	3184
892.471	3116
892.594	3203
892.717	3287
892.839	3245
892.962	3272
893.085	3367
893.207	3268
893.33	3135
893.452	3249
893.575	3378
893.697	3226
893.819	3466
893.941	3485
894.064	3428
894.186	3268
894.308	3272
894.43	3416
894.552	3523
894.674	3450
894.796	3275
894.918	3317
895.04	3298
895.161	3393
895.283	3351
895.405	3291
895.526	3336
895.648	3424
895.769	3424
895.891	3458
896.012	3454
896.134	3492
896.255	3389
896.376	3310
896.498	3367
896.619	3447
896.74	3370
896.861	3374
896.982	3675
897.103	3842
897.224	3534
897.345	3515
897.466	3386
897.587	3488
897.708	3595
897.828	3534
897.949	3412
898.07	3332
898.19	3416
898.311	3610
898.431	3420
898.552	3519
898.672	3572
898.792	3599
898.913	3515
899.033	3409
899.153	3283
899.273	3230
899.393	3291
899.513	3268
899.633	3306
899.753	3332
899.873	3298
899.993	3367
900.113	3359
900.232	3409
900.352	3348
900.472	3264
900.591	3188
900.711	3294
900.83	3214
900.95	3409
901.069	3496
901.189	3348
901.308	3142
901.427	3135
901.546	3161
901.665	3298
901.784	3321
901.904	3211
902.023	3146
902.141	3013
902.26	2941
902.379	3108
902.498	3089
902.617	3047
902.735	3184
902.854	3222
902.973	3211
903.091	3047
903.21	3055
903.328	3112
903.446	3081
903.565	3070
903.683	3116
903.801	3112
903.919	3237
904.038	3287
904.156	3192
904.274	3253
904.392	3249
904.51	3310
904.627	3329
904.745	3420
904.863	3507
904.981	3237
905.098	3154
905.216	3211
905.334	3283
905.451	3279
905.569	3294
905.686	3409
905.803	3454
905.921	3291
906.038	3367
906.155	3332
906.272	3249
906.389	3310
906.506	3195
906.623	3283
906.74	3268
906.857	3180
906.974	3253
907.091	3431
907.208	3576
907.324	3447
907.441	3355
907.557	3195
907.674	3226
907.79	3192
907.907	3241
908.023	3393
908.139	3351
908.256	3332
908.372	3348
908.488	3370
908.604	3207
908.72	3188
908.836	3253
908.952	3214
909.068	3306
909.184	3428
909.3	3401
909.415	3496
909.531	3504
909.647	3249
909.762	3260
909.878	3298
909.993	3359
910.108	3306
910.224	3298
910.339	3386
910.454	3313
910.57	3294
910.685	3222
910.8	3580
910.915	3504
911.03	3382
911.145	3298
911.259	3260
911.374	3336
911.489	3264
911.604	3222
911.718	3081
911.833	3112
911.947	3066
912.062	2971
912.176	3104
912.291	3184
912.405	3214
912.519	3397
912.633	3462
912.748	3329
912.862	3306
912.976	3157
913.09	3066
913.204	3112
913.318	3218
913.431	3298
913.545	3294
913.659	3386
913.772	3378
913.886	3195
914	3173
914.113	3351
914.226	3405
914.34	3321
914.453	3226
914.566	3382
914.68	3241
914.793	3298
914.906	3108
915.019	3089
915.132	3043
915.245	3207
915.358	3157
915.47	3253
915.583	3218
915.696	3268
915.809	3386
915.921	3397
916.034	3249
916.146	3249
916.259	3233
916.371	3412
916.483	3370
916.595	3275
916.708	3313
916.82	3310
916.932	3329
917.044	3272
917.156	3344
917.268	3222
917.38	3313
917.491	3306
917.603	3363
917.715	3439
917.826	3458
917.938	3405
918.049	3302
918.161	3405
918.272	3553
918.384	3584
918.495	3523
918.606	3348
918.717	3287
918.828	3382
918.939	3439
919.05	3332
919.161	3412
919.272	3184
919.383	3279
919.494	3511
919.604	3686
919.715	3488
919.826	3450
919.936	3462
920.047	3587
920.157	3576
920.267	3793
920.378	3606
920.488	3606
920.598	3808
920.708	3991
920.818	3857
920.928	3861
921.038	4036
921.148	3994
921.258	3724
921.368	3679
921.477	3584
921.587	3561
921.697	3511
921.806	3701
921.916	3557
922.025	3363
922.134	3420
922.244	3355
922.353	3447
922.462	3302
922.571	3256
922.68	3157
922.789	3119
922.898	3188
923.007	3097
923.116	3264
923.224	3214
923.333	3279
923.442	3112
923.55	3119
923.659	3169
923.767	3275
923.876	3157
923.984	3302
924.092	3135
924.201	3256
924.309	3233
924.417	3264
924.525	3253
924.633	3294
924.741	4051
924.849	3085
924.956	3287
925.064	3100
925.172	3066
925.279	3142
925.387	3226
925.494	3222
925.602	3389
925.709	3336
925.816	3195
925.924	3287
926.031	3431
926.138	3336
926.245	3378
926.352	3279
926.459	3409
926.566	3481
926.673	3340
926.779	3329
926.886	3256
926.993	3211
927.099	3218
927.206	3169
927.312	3146
927.419	3253
927.525	3218
927.631	3344
927.737	3180
927.843	3116
927.95	3039
928.056	3157
928.162	3222
928.267	3306
928.373	3907
928.479	3367
928.585	3108
928.69	3260
928.796	3260
928.901	3233
929.007	3077
929.112	3268
929.218	3211
929.323	3207
929.428	3180
929.533	3359
929.638	3161
929.743	3188
929.848	3256
929.953	3260
930.058	3211
930.163	3055
930.267	3051
930.372	3268
930.477	3047
930.581	3329
930.685	3237
930.79	3116
930.894	3195
930.998	3116
931.103	3344
931.207	3001
931.311	2956
931.415	2929
931.519	2838
931.623	2826
