Data from test_V78500241_1273.txt Node
Date: Fri Mar 25 16:24:01 CST 2022
User: usil
Spectrometer: V785-0024
Trigger mode: 0
Integration Time (sec): 4.000000E-1
Scans to average: 1
Nonlinearity correction enabled: false
Boxcar width: 0
Storing dark spectrum: false
XAxis mode: Wavelengths
Number of Pixels in Spectrum: 1024
>>>>>Begin Spectral Data<<<<<
801.071	2880
801.214	3001
801.356	2910
801.499	2960
801.641	2906
801.783	2960
801.926	3077
802.068	2990
802.211	2979
802.353	3036
802.496	2948
802.638	3024
802.78	3039
802.923	3070
803.065	3039
803.208	2910
803.35	2914
803.492	2902
803.635	2941
803.777	2777
803.919	2910
804.061	3184
804.204	2979
804.346	2914
804.488	2857
804.63	2979
804.773	2895
804.915	2941
805.057	3058
805.199	2918
805.341	2982
805.483	3032
805.626	3001
805.768	2906
805.91	3116
806.052	3127
806.194	3051
806.336	3188
806.478	3036
806.62	2925
806.762	2975
806.904	3081
807.046	3154
807.188	2967
807.33	2902
807.472	3005
807.614	2902
807.756	3005
807.898	2937
808.04	2910
808.182	2990
808.324	2914
808.465	2895
808.607	2853
808.749	2838
808.891	2838
809.033	2971
809.174	2967
809.316	2895
809.458	2883
809.6	2792
809.741	2746
809.883	2754
810.025	2842
810.166	2842
810.308	2792
810.45	2880
810.591	2804
810.733	2758
810.875	2834
811.016	2811
811.158	2746
811.299	2830
811.441	2933
811.582	2891
811.724	2864
811.865	2807
812.007	2914
812.148	2872
812.29	2830
812.431	2887
812.573	2937
812.714	2941
812.855	3051
812.997	3043
813.138	3097
813.279	2982
813.421	2979
813.562	2960
813.703	2876
813.845	2895
813.986	2788
814.127	2708
814.268	2792
814.41	2804
814.551	2811
814.692	2906
814.833	2777
814.974	2910
815.115	2918
815.256	2823
815.397	2826
815.539	2864
815.68	2785
815.821	2800
815.962	2963
816.103	2929
816.244	2853
816.385	2887
816.526	2941
816.666	2891
816.807	2720
816.948	2880
817.089	2910
817.23	2895
817.371	2743
817.512	2800
817.653	2845
817.793	2819
817.934	2864
818.075	2929
818.216	2990
818.356	3028
818.497	2891
818.638	2788
818.778	2815
818.919	2819
819.06	2762
819.2	2864
819.341	2811
819.481	2823
819.622	2929
819.762	3112
819.903	3024
820.043	2929
820.184	2857
820.324	2864
820.465	2990
820.605	3017
820.746	3005
820.886	2952
821.026	3070
821.167	3112
821.307	3241
821.447	3256
821.588	3241
821.728	3203
821.868	3203
822.008	3070
822.149	3161
822.289	3230
822.429	3104
822.569	3093
822.709	3169
822.849	3013
822.99	3058
823.13	3142
823.27	3233
823.41	3138
823.55	3131
823.69	3142
823.83	3176
823.97	3081
824.11	2967
824.25	2967
824.389	3058
824.529	3097
824.669	3047
824.809	3169
824.949	3237
825.089	3211
825.228	3123
825.368	2986
825.508	2967
825.648	2979
825.787	3009
825.927	3009
826.067	2967
826.206	2963
826.346	3055
826.485	3066
826.625	3097
826.765	3298
826.904	3214
827.044	2998
827.183	2906
827.323	2918
827.462	2975
827.601	2952
827.741	2925
827.88	2960
828.02	2899
828.159	2982
828.298	3081
828.437	3108
828.577	3081
828.716	3249
828.855	3123
828.994	2952
829.134	2933
829.273	2956
829.412	2891
829.551	2868
829.69	2910
829.829	2998
829.968	3116
830.107	3001
830.246	3066
830.385	2925
830.524	2929
830.663	2868
830.802	2750
830.941	2689
831.08	2678
831.219	2788
831.357	2773
831.496	2971
831.635	2735
831.774	2716
831.913	2678
832.051	2590
832.19	2610
832.329	2731
832.467	2590
832.606	2514
832.744	2648
832.883	2617
833.022	2648
833.16	2670
833.299	2712
833.437	2731
833.576	2743
833.714	2758
833.852	2807
833.991	2785
834.129	2872
834.267	2849
834.406	2815
834.544	2880
834.682	2906
834.821	2902
834.959	3100
835.097	2906
835.235	3077
835.373	3058
835.511	3093
835.65	2982
835.788	2967
835.926	2876
836.064	2861
836.202	2883
836.34	3093
836.478	3192
836.615	3081
836.753	3173
836.891	3207
837.029	3260
837.167	3135
837.305	3081
837.443	3089
837.58	3009
837.718	3157
837.856	3116
837.993	3055
838.131	3154
838.269	3123
838.406	3123
838.544	3119
838.681	2963
838.819	2971
838.956	2834
839.094	2842
839.231	2971
839.369	3119
839.506	3405
839.643	3253
839.781	3043
839.918	3039
840.055	3066
840.193	3058
840.33	3097
840.467	3135
840.604	3222
840.742	3428
840.879	3062
841.016	3047
841.153	3146
841.29	3351
841.427	3329
841.564	3306
841.701	3332
841.838	3233
841.975	3199
842.112	3218
842.249	3142
842.385	3043
842.522	3275
842.659	3108
842.796	3097
842.933	3154
843.069	3077
843.206	3093
843.343	3199
843.479	3119
843.616	3222
843.752	2929
843.889	2899
844.025	3100
844.162	2906
844.298	3085
844.435	3001
844.571	2933
844.708	3100
844.844	3211
844.98	3287
845.117	3218
845.253	3100
845.389	3070
845.525	3112
845.661	3146
845.798	3036
845.934	3112
846.07	3112
846.206	3218
846.342	3317
846.478	3226
846.614	3097
846.75	3066
846.886	3036
847.022	3241
847.158	3146
847.294	3245
847.429	3287
847.565	3241
847.701	3515
847.837	3058
847.972	3043
848.108	3173
848.244	3184
848.379	2994
848.515	2975
848.65	2986
848.786	2998
848.921	3020
849.057	3108
849.192	3150
849.328	3089
849.463	3127
849.598	3085
849.734	3074
849.869	2990
850.004	2956
850.14	2990
850.275	2952
850.41	2845
850.545	2868
850.68	2941
850.815	2986
850.95	2994
851.085	3211
851.22	3135
851.355	3032
851.49	3024
851.625	2994
851.76	3051
851.895	2941
852.03	2960
852.165	3074
852.299	3146
852.434	3176
852.569	3173
852.703	3207
852.838	3226
852.973	3393
853.107	3355
853.242	3142
853.376	3138
853.511	2998
853.645	3074
853.78	3294
853.914	3097
854.048	3154
854.183	3093
854.317	3173
854.451	3329
854.585	3157
854.72	3119
854.854	3214
854.988	3085
855.122	3100
855.256	3001
855.39	3161
855.524	3233
855.658	3176
855.792	3154
855.926	3192
856.06	3241
856.194	3272
856.327	3214
856.461	3119
856.595	3097
856.729	3097
856.862	3237
856.996	3188
857.13	3226
857.263	3237
857.397	3294
857.53	3142
857.664	3226
857.797	3264
857.931	3283
858.064	3154
858.197	3264
858.331	3116
858.464	3127
858.597	3085
858.731	3146
858.864	3154
858.997	3119
859.13	3161
859.263	3222
859.396	3218
859.529	3131
859.662	3108
859.795	3093
859.928	3180
860.061	3260
860.194	3306
860.327	3173
860.46	3112
860.592	3233
860.725	3275
860.858	3272
860.99	3135
861.123	3081
861.256	3077
861.388	3157
861.521	3717
861.653	3058
861.786	3017
861.918	2994
862.05	3077
862.183	3135
862.315	3169
862.447	3199
862.58	3135
862.712	2952
862.844	2876
862.976	3058
863.108	3013
863.24	3351
863.372	2880
863.504	2963
863.636	2979
863.768	3055
863.9	3020
864.032	2952
864.164	3020
864.296	3058
864.428	3097
864.559	3142
864.691	3081
864.823	3116
864.954	3036
865.086	3032
865.217	3001
865.349	2994
865.48	3017
865.612	3077
865.743	3184
865.875	2994
866.006	2933
866.137	2979
866.269	2979
866.4	2956
866.531	2948
866.662	2937
866.793	2929
866.924	2918
867.055	2956
867.186	2952
867.317	2899
867.448	2864
867.579	2895
867.71	2864
867.841	2842
867.972	2925
868.103	2880
868.233	2891
868.364	2880
868.495	2914
868.625	3089
868.756	3180
868.886	3001
869.017	3077
869.147	3203
869.278	3180
869.408	3062
869.539	3032
869.669	3127
869.799	3043
869.929	3169
870.06	3108
870.19	3332
870.32	3310
870.45	3332
870.58	3409
870.71	3443
870.84	3443
870.97	3329
871.1	3272
871.23	3496
871.36	3450
871.489	3374
871.619	3416
871.749	3435
871.879	3443
872.008	3515
872.138	3344
872.267	3317
872.397	3180
872.526	3093
872.656	3058
872.785	3093
872.915	3230
873.044	3298
873.173	3249
873.303	3233
873.432	3264
873.561	3275
873.69	3192
873.819	3150
873.948	3226
874.077	3154
874.206	3039
874.335	3093
874.464	3211
874.593	3374
874.722	3230
874.851	3344
874.979	3378
875.108	3336
875.237	3214
875.365	3207
875.494	3195
875.623	3264
875.751	3077
875.88	3161
876.008	3256
876.136	3260
876.265	3393
876.393	3526
876.521	3424
876.65	3397
876.778	3344
876.906	3226
877.034	3218
877.162	3222
877.29	3207
877.418	3264
877.546	3275
877.674	3253
877.802	3272
877.93	3275
878.058	3169
878.185	3127
878.313	3207
878.441	3192
878.568	3081
878.696	3154
878.824	3283
878.951	3321
879.079	3466
879.206	3644
879.333	3504
879.461	3374
879.588	3416
879.715	3511
879.842	3633
879.97	3393
880.097	3192
880.224	3161
880.351	3199
880.478	3237
880.605	3184
880.732	3157
880.859	3473
880.986	3321
881.112	3329
881.239	3180
881.366	3138
881.493	3043
881.619	3005
881.746	3074
881.872	3085
881.999	3100
882.125	3135
882.252	3184
882.378	3306
882.505	3424
882.631	3279
882.757	3127
882.883	3195
883.01	3245
883.136	3161
883.262	3108
883.388	3112
883.514	3367
883.64	3401
883.766	3332
883.892	3222
884.018	3275
884.143	3443
884.269	3542
884.395	3203
884.52	3176
884.646	3188
884.772	3135
884.897	3123
885.023	3218
885.148	3340
885.274	3405
885.399	3359
885.524	3321
885.65	3291
885.775	3313
885.9	3329
886.025	3435
886.15	3397
886.275	3306
886.4	3249
886.525	3340
886.65	3272
886.775	3287
886.9	3538
887.025	3633
887.149	3420
887.274	3268
887.399	3173
887.523	3222
887.648	3199
887.773	3233
887.897	3367
888.021	3389
888.146	3310
888.27	3431
888.395	3576
888.519	3450
888.643	3488
888.767	3481
888.891	3283
889.015	3249
889.139	3279
889.263	3268
889.387	3420
889.511	3549
889.635	3412
889.759	3332
889.883	3294
890.006	3397
890.13	3511
890.254	3321
890.377	3363
890.501	3214
890.624	3180
890.748	3306
890.871	3218
890.995	3150
891.118	3058
891.241	3165
891.364	3214
891.488	3336
891.611	3199
891.734	3233
891.857	3317
891.98	3287
892.103	3310
892.226	3260
892.349	3207
892.471	3127
892.594	3264
892.717	3321
892.839	3294
892.962	3321
893.085	3374
893.207	3256
893.33	3188
893.452	3211
893.575	3370
893.697	3302
893.819	3466
893.941	3519
894.064	3488
894.186	3268
894.308	3306
894.43	3447
894.552	3534
894.674	3530
894.796	3272
894.918	3344
895.04	3310
895.161	3431
895.283	3397
895.405	3313
895.526	3374
895.648	3409
895.769	3450
895.891	3492
896.012	3507
896.134	3462
896.255	3454
896.376	3416
896.498	3370
896.619	3443
896.74	3355
896.861	3420
896.982	3686
897.103	3846
897.224	3580
897.345	3542
897.466	3435
897.587	3515
897.708	3618
897.828	3568
897.949	3439
898.07	3355
898.19	3401
898.311	3610
898.431	3447
898.552	3526
898.672	3595
898.792	3530
898.913	3523
899.033	3420
899.153	3302
899.273	3199
899.393	3294
899.513	3287
899.633	3306
899.753	3367
899.873	3306
899.993	3397
900.113	3344
900.232	3409
900.352	3325
900.472	3336
900.591	3256
900.711	3355
900.83	3306
900.95	3450
901.069	3545
901.189	3344
901.308	3226
901.427	3119
901.546	3237
901.665	3321
901.784	3329
901.904	3237
902.023	3131
902.141	3039
902.26	3001
902.379	3127
902.498	3058
902.617	3077
902.735	3199
902.854	3249
902.973	3169
903.091	3032
903.21	3051
903.328	3131
903.446	3119
903.565	3135
903.683	3230
903.801	3135
903.919	3260
904.038	3302
904.156	3131
904.274	3317
904.392	3279
904.51	3287
904.627	3351
904.745	3428
904.863	3515
904.981	3260
905.098	3184
905.216	3245
905.334	3291
905.451	3306
905.569	3325
905.686	3450
905.803	3420
905.921	3287
906.038	3416
906.155	3367
906.272	3260
906.389	3306
906.506	3253
906.623	3260
906.74	3241
906.857	3214
906.974	3241
907.091	3447
907.208	3538
907.324	3504
907.441	3409
907.557	3237
907.674	3241
907.79	3192
907.907	3302
908.023	3370
908.139	3386
908.256	3359
908.372	3389
908.488	3370
908.604	3287
908.72	3226
908.836	3325
908.952	3294
909.068	3378
909.184	3481
909.3	3397
909.415	3469
909.531	3466
909.647	3264
909.762	3310
909.878	3264
909.993	3363
910.108	3355
910.224	3367
910.339	3405
910.454	3340
910.57	3325
910.685	3279
910.8	3599
910.915	3481
911.03	3401
911.145	3275
911.259	3283
911.374	3329
911.489	3279
911.604	3230
911.718	3138
911.833	3195
911.947	3020
912.062	2986
912.176	3173
912.291	3207
912.405	3161
912.519	3458
912.633	3466
912.748	3340
912.862	3237
912.976	3161
913.09	3070
913.204	3157
913.318	3211
913.431	3336
913.545	3378
913.659	3431
913.772	3389
913.886	3222
914	3214
914.113	3370
914.226	3439
914.34	3401
914.453	3222
914.566	3389
914.68	3317
914.793	3321
914.906	3165
915.019	3119
915.132	3089
915.245	3165
915.358	3256
915.47	3195
915.583	3222
915.696	3325
915.809	3412
915.921	3477
916.034	3272
916.146	3302
916.259	3230
916.371	3435
916.483	3355
916.595	3245
916.708	3348
916.82	3329
916.932	3393
917.044	3370
917.156	3382
917.268	3264
917.38	3317
917.491	3325
917.603	3355
917.715	3462
917.826	3447
917.938	3378
918.049	3317
918.161	3424
918.272	3572
918.384	3576
918.495	3504
918.606	3321
918.717	3302
918.828	3405
918.939	3382
919.05	3279
919.161	3382
919.272	3169
919.383	3317
919.494	3534
919.604	3682
919.715	3485
919.826	3435
919.936	3447
920.047	3606
920.157	3584
920.267	3793
920.378	3633
920.488	3564
920.598	3774
920.708	3972
920.818	3835
920.928	3808
921.038	4044
921.148	4013
921.258	3743
921.368	3641
921.477	3564
921.587	3526
921.697	3473
921.806	3641
921.916	3477
922.025	3336
922.134	3409
922.244	3306
922.353	3454
922.462	3272
922.571	3214
922.68	3093
922.789	3055
922.898	3127
923.007	3093
923.116	3184
923.224	3211
923.333	3157
923.442	3112
923.55	3058
923.659	3154
923.767	3233
923.876	3093
923.984	3218
924.092	3112
924.201	3188
924.309	3214
924.417	3260
924.525	3184
924.633	3245
924.741	4029
924.849	3058
924.956	3287
925.064	3066
925.172	3028
925.279	3112
925.387	3188
925.494	3176
925.602	3363
925.709	3321
925.816	3207
925.924	3287
926.031	3409
926.138	3298
926.245	3359
926.352	3222
926.459	3431
926.566	3485
926.673	3291
926.779	3230
926.886	3245
926.993	3165
927.099	3142
927.206	3131
927.312	3127
927.419	3264
927.525	3199
927.631	3275
927.737	3108
927.843	3123
927.95	3043
928.056	3154
928.162	3135
928.267	3298
928.373	3884
928.479	3275
928.585	3017
928.69	3207
928.796	3264
928.901	3173
929.007	3043
929.112	3222
929.218	3173
929.323	3142
929.428	3169
929.533	3359
929.638	3119
929.743	3146
929.848	3264
929.953	3218
930.058	3157
930.163	2990
930.267	3043
930.372	3195
930.477	3074
930.581	3283
930.685	3180
930.79	3039
930.894	3089
930.998	3097
931.103	3275
931.207	2971
931.311	2914
931.415	2895
931.519	2777
931.623	2815
