Data from test_V78500241_1359.txt Node
Date: Fri Mar 25 16:24:37 CST 2022
User: usil
Spectrometer: V785-0024
Trigger mode: 0
Integration Time (sec): 4.000000E-1
Scans to average: 1
Nonlinearity correction enabled: false
Boxcar width: 0
Storing dark spectrum: false
XAxis mode: Wavelengths
Number of Pixels in Spectrum: 1024
>>>>>Begin Spectral Data<<<<<
801.071	2937
801.214	2998
801.356	2849
801.499	2872
801.641	2861
801.783	2941
801.926	3009
802.068	2960
802.211	2994
802.353	3051
802.496	2944
802.638	3028
802.78	3070
802.923	3100
803.065	2967
803.208	2891
803.35	2891
803.492	2910
803.635	2918
803.777	2727
803.919	2880
804.061	3203
804.204	2933
804.346	2933
804.488	2815
804.63	2956
804.773	2849
804.915	2891
805.057	3074
805.199	2895
805.341	2933
805.483	3024
805.626	3001
805.768	2975
805.91	3066
806.052	3119
806.194	3047
806.336	3184
806.478	3028
806.62	2933
806.762	2918
806.904	3039
807.046	3108
807.188	2979
807.33	2891
807.472	2986
807.614	2906
807.756	2967
807.898	2883
808.04	2906
808.182	2933
808.324	2956
808.465	2883
808.607	2853
808.749	2788
808.891	2834
809.033	2948
809.174	2998
809.316	2914
809.458	2872
809.6	2792
809.741	2727
809.883	2758
810.025	2857
810.166	2864
810.308	2838
810.45	2811
810.591	2800
810.733	2754
810.875	2785
811.016	2777
811.158	2746
811.299	2796
811.441	2948
811.582	2864
811.724	2853
811.865	2830
812.007	2887
812.148	2880
812.29	2830
812.431	2880
812.573	2922
812.714	2990
812.855	3055
812.997	3055
813.138	3119
813.279	3024
813.421	2975
813.562	2979
813.703	2876
813.845	2880
813.986	2781
814.127	2743
814.268	2777
814.41	2838
814.551	2773
814.692	2887
814.833	2807
814.974	2864
815.115	2952
815.256	2804
815.397	2804
815.539	2849
815.68	2777
815.821	2800
815.962	2952
816.103	2910
816.244	2864
816.385	2880
816.526	3001
816.666	2918
816.807	2731
816.948	2861
817.089	2899
817.23	2853
817.371	2781
817.512	2785
817.653	2838
817.793	2826
817.934	2861
818.075	2960
818.216	2990
818.356	3020
818.497	2864
818.638	2781
818.778	2807
818.919	2800
819.06	2727
819.2	2883
819.341	2811
819.481	2766
819.622	2891
819.762	3093
819.903	3051
820.043	2906
820.184	2880
820.324	2902
820.465	2994
820.605	3005
820.746	3024
820.886	2918
821.026	3055
821.167	3146
821.307	3279
821.447	3283
821.588	3226
821.728	3192
821.868	3222
822.008	3100
822.149	3138
822.289	3195
822.429	3104
822.569	3062
822.709	3169
822.849	3013
822.99	3074
823.13	3150
823.27	3218
823.41	3100
823.55	3165
823.69	3116
823.83	3199
823.97	3066
824.11	3001
824.25	2990
824.389	3036
824.529	3112
824.669	3100
824.809	3176
824.949	3241
825.089	3245
825.228	3127
825.368	3005
825.508	2971
825.648	2963
825.787	3017
825.927	3001
826.067	2971
826.206	2902
826.346	3024
826.485	3066
826.625	3089
826.765	3264
826.904	3207
827.044	2986
827.183	2933
827.323	2853
827.462	2956
827.601	2906
827.741	2922
827.88	2910
828.02	2823
828.159	3005
828.298	3017
828.437	3100
828.577	3028
828.716	3260
828.855	3074
828.994	2906
829.134	2883
829.273	2895
829.412	2883
829.551	2838
829.69	2876
829.829	2975
829.968	3104
830.107	3005
830.246	2998
830.385	2891
830.524	2861
830.663	2811
830.802	2746
830.941	2594
831.08	2651
831.219	2750
831.357	2735
831.496	2914
831.635	2724
831.774	2629
831.913	2640
832.051	2590
832.19	2568
832.329	2686
832.467	2526
832.606	2476
832.744	2579
832.883	2571
833.022	2590
833.16	2629
833.299	2678
833.437	2674
833.576	2712
833.714	2727
833.852	2724
833.991	2773
834.129	2838
834.267	2861
834.406	2758
834.544	2895
834.682	2876
834.821	2830
834.959	3032
835.097	2883
835.235	3013
835.373	2982
835.511	2952
835.65	2948
835.788	2902
835.926	2807
836.064	2788
836.202	2830
836.34	3100
836.478	3104
836.615	3036
836.753	3131
836.891	3188
837.029	3146
837.167	3077
837.305	3077
837.443	3070
837.58	2963
837.718	3112
837.856	3089
837.993	3047
838.131	3135
838.269	3104
838.406	3085
838.544	3070
838.681	2933
838.819	2948
838.956	2804
839.094	2823
839.231	2925
839.369	3032
839.506	3367
839.643	3211
839.781	3017
839.918	2956
840.055	3036
840.193	3005
840.33	3024
840.467	3097
840.604	3157
840.742	3454
840.879	3024
841.016	3077
841.153	3100
841.29	3370
841.427	3279
841.564	3241
841.701	3264
841.838	3241
841.975	3169
842.112	3180
842.249	3062
842.385	3024
842.522	3272
842.659	3058
842.796	3020
842.933	3077
843.069	3013
843.206	3036
843.343	3154
843.479	3074
843.616	3173
843.752	2910
843.889	2861
844.025	3062
844.162	2872
844.298	3070
844.435	2922
844.571	2880
844.708	3024
844.844	3199
844.98	3249
845.117	3199
845.253	3051
845.389	2990
845.525	3089
845.661	3066
845.798	2982
845.934	3108
846.07	3043
846.206	3184
846.342	3291
846.478	3230
846.614	3089
846.75	3024
846.886	2998
847.022	3272
847.158	3135
847.294	3184
847.429	3218
847.565	3188
847.701	3469
847.837	3017
847.972	2975
848.108	3173
848.244	3165
848.379	2979
848.515	2902
848.65	2929
848.786	2956
848.921	3024
849.057	3104
849.192	3157
849.328	3039
849.463	3077
849.598	3039
849.734	3009
849.869	2990
850.004	2918
850.14	2941
850.275	2895
850.41	2830
850.545	2872
850.68	2891
850.815	2929
850.95	2948
851.085	3176
851.22	3074
851.355	3009
851.49	3009
851.625	2998
851.76	3032
851.895	2883
852.03	2906
852.165	3032
852.299	3112
852.434	3218
852.569	3116
852.703	3165
852.838	3241
852.973	3351
853.107	3298
853.242	3116
853.376	3062
853.511	2922
853.645	3032
853.78	3222
853.914	3077
854.048	3119
854.183	3077
854.317	3104
854.451	3245
854.585	3081
854.72	3093
854.854	3192
854.988	3058
855.122	3077
855.256	2979
855.39	3131
855.524	3264
855.658	3211
855.792	3188
855.926	3199
856.06	3150
856.194	3279
856.327	3157
856.461	3077
856.595	3085
856.729	3062
856.862	3249
856.996	3150
857.13	3176
857.263	3245
857.397	3241
857.53	3070
857.664	3176
857.797	3237
857.931	3245
858.064	3123
858.197	3195
858.331	3146
858.464	3097
858.597	2982
858.731	3112
858.864	3123
858.997	3093
859.13	3131
859.263	3157
859.396	3199
859.529	3085
859.662	3066
859.795	3055
859.928	3127
860.061	3283
860.194	3294
860.327	3112
860.46	3070
860.592	3203
860.725	3241
860.858	3253
860.99	3081
861.123	3066
861.256	3020
861.388	3116
861.521	3743
861.653	3032
861.786	2971
861.918	3013
862.05	3039
862.183	3077
862.315	3123
862.447	3176
862.58	3085
862.712	2948
862.844	2883
862.976	3024
863.108	3024
863.24	3287
863.372	2887
863.504	2944
863.636	2914
863.768	3024
863.9	2941
864.032	2891
864.164	2944
864.296	3005
864.428	3100
864.559	3097
864.691	3066
864.823	3047
864.954	3028
865.086	3047
865.217	3001
865.349	2956
865.48	2937
865.612	2982
865.743	3146
865.875	3009
866.006	2952
866.137	2998
866.269	2925
866.4	2925
866.531	2925
866.662	2914
866.793	2853
866.924	2880
867.055	2944
867.186	2914
867.317	2872
867.448	2830
867.579	2853
867.71	2849
867.841	2811
867.972	2891
868.103	2876
868.233	2891
868.364	2876
868.495	2872
868.625	3047
868.756	3150
868.886	2982
869.017	2982
869.147	3138
869.278	3146
869.408	3051
869.539	3020
869.669	3058
869.799	3028
869.929	3093
870.06	3093
870.19	3351
870.32	3268
870.45	3272
870.58	3351
870.71	3450
870.84	3412
870.97	3249
871.1	3226
871.23	3454
871.36	3462
871.489	3355
871.619	3393
871.749	3412
871.879	3409
872.008	3504
872.138	3370
872.267	3272
872.397	3100
872.526	3089
872.656	3032
872.785	3108
872.915	3230
873.044	3310
873.173	3230
873.303	3268
873.432	3218
873.561	3245
873.69	3142
873.819	3119
873.948	3176
874.077	3123
874.206	3001
874.335	3085
874.464	3256
874.593	3325
874.722	3260
874.851	3412
874.979	3348
875.108	3317
875.237	3218
875.365	3161
875.494	3146
875.623	3241
875.751	3062
875.88	3093
876.008	3161
876.136	3230
876.265	3325
876.393	3538
876.521	3412
876.65	3416
876.778	3325
876.906	3226
877.034	3207
877.162	3218
877.29	3169
877.418	3264
877.546	3203
877.674	3207
877.802	3268
877.93	3222
878.058	3142
878.185	3089
878.313	3195
878.441	3180
878.568	3085
878.696	3195
878.824	3245
878.951	3260
879.079	3443
879.206	3618
879.333	3412
879.461	3351
879.588	3351
879.715	3458
879.842	3572
879.97	3386
880.097	3165
880.224	3108
880.351	3192
880.478	3207
880.605	3157
880.732	3192
880.859	3500
880.986	3298
881.112	3302
881.239	3199
881.366	3043
881.493	3066
881.619	3013
881.746	3074
881.872	3131
881.999	3112
882.125	3161
882.252	3241
882.378	3298
882.505	3466
882.631	3264
882.757	3131
882.883	3165
883.01	3161
883.136	3093
883.262	3104
883.388	3131
883.514	3310
883.64	3325
883.766	3291
883.892	3142
884.018	3203
884.143	3405
884.269	3492
884.395	3207
884.52	3138
884.646	3207
884.772	3104
884.897	3100
885.023	3180
885.148	3329
885.274	3435
885.399	3363
885.524	3241
885.65	3249
885.775	3298
885.9	3268
886.025	3378
886.15	3367
886.275	3310
886.4	3218
886.525	3272
886.65	3294
886.775	3237
886.9	3515
887.025	3660
887.149	3424
887.274	3264
887.399	3222
887.523	3188
887.648	3123
887.773	3161
887.897	3370
888.021	3420
888.146	3268
888.27	3412
888.395	3519
888.519	3393
888.643	3439
888.767	3416
888.891	3302
889.015	3211
889.139	3275
889.263	3253
889.387	3401
889.511	3500
889.635	3405
889.759	3287
889.883	3272
890.006	3363
890.13	3519
890.254	3291
890.377	3317
890.501	3192
890.624	3176
890.748	3291
890.871	3154
890.995	3097
891.118	3089
891.241	3184
891.364	3203
891.488	3302
891.611	3176
891.734	3211
891.857	3241
891.98	3256
892.103	3329
892.226	3253
892.349	3233
892.471	3070
892.594	3207
892.717	3275
892.839	3272
892.962	3302
893.085	3348
893.207	3302
893.33	3180
893.452	3199
893.575	3332
893.697	3253
893.819	3473
893.941	3485
894.064	3462
894.186	3287
894.308	3291
894.43	3416
894.552	3564
894.674	3466
894.796	3222
894.918	3348
895.04	3306
895.161	3405
895.283	3348
895.405	3306
895.526	3313
895.648	3428
895.769	3405
895.891	3447
896.012	3424
896.134	3450
896.255	3424
896.376	3389
896.498	3340
896.619	3431
896.74	3317
896.861	3382
896.982	3660
897.103	3861
897.224	3557
897.345	3504
897.466	3412
897.587	3477
897.708	3618
897.828	3515
897.949	3462
898.07	3310
898.19	3382
898.311	3564
898.431	3443
898.552	3530
898.672	3576
898.792	3580
898.913	3504
899.033	3401
899.153	3268
899.273	3203
899.393	3249
899.513	3298
899.633	3344
899.753	3340
899.873	3275
899.993	3359
900.113	3348
900.232	3412
900.352	3306
900.472	3310
900.591	3173
900.711	3302
900.83	3260
900.95	3393
901.069	3485
901.189	3325
901.308	3184
901.427	3123
901.546	3169
901.665	3302
901.784	3298
901.904	3203
902.023	3108
902.141	2986
902.26	2952
902.379	3161
902.498	3089
902.617	3089
902.735	3203
902.854	3230
902.973	3207
903.091	3024
903.21	3055
903.328	3127
903.446	3112
903.565	3100
903.683	3203
903.801	3119
903.919	3199
904.038	3283
904.156	3157
904.274	3298
904.392	3260
904.51	3275
904.627	3317
904.745	3431
904.863	3477
904.981	3245
905.098	3150
905.216	3207
905.334	3283
905.451	3298
905.569	3302
905.686	3393
905.803	3466
905.921	3291
906.038	3431
906.155	3359
906.272	3264
906.389	3298
906.506	3253
906.623	3256
906.74	3332
906.857	3176
906.974	3264
907.091	3447
907.208	3580
907.324	3466
907.441	3378
907.557	3218
907.674	3211
907.79	3211
907.907	3253
908.023	3393
908.139	3397
908.256	3302
908.372	3321
908.488	3317
908.604	3241
908.72	3237
908.836	3256
908.952	3241
909.068	3332
909.184	3435
909.3	3367
909.415	3496
909.531	3492
909.647	3279
909.762	3272
909.878	3245
909.993	3329
910.108	3325
910.224	3355
910.339	3367
910.454	3321
910.57	3233
910.685	3237
910.8	3553
910.915	3515
911.03	3412
911.145	3249
911.259	3279
911.374	3283
911.489	3264
911.604	3211
911.718	3085
911.833	3112
911.947	3024
912.062	3001
912.176	3138
912.291	3173
912.405	3195
912.519	3386
912.633	3469
912.748	3332
912.862	3241
912.976	3157
913.09	3039
913.204	3142
913.318	3222
913.431	3329
913.545	3310
913.659	3409
913.772	3332
913.886	3222
914	3173
914.113	3340
914.226	3431
914.34	3374
914.453	3226
914.566	3428
914.68	3310
914.793	3310
914.906	3165
915.019	3104
915.132	3017
915.245	3150
915.358	3241
915.47	3283
915.583	3241
915.696	3317
915.809	3412
915.921	3428
916.034	3253
916.146	3268
916.259	3241
916.371	3420
916.483	3363
916.595	3310
916.708	3355
916.82	3370
916.932	3374
917.044	3378
917.156	3367
917.268	3313
917.38	3355
917.491	3336
917.603	3401
917.715	3492
917.826	3511
917.938	3462
918.049	3310
918.161	3466
918.272	3637
918.384	3641
918.495	3538
918.606	3359
918.717	3306
918.828	3428
918.939	3462
919.05	3340
919.161	3405
919.272	3233
919.383	3340
919.494	3580
919.604	3694
919.715	3549
919.826	3462
919.936	3462
920.047	3641
920.157	3591
920.267	3770
920.378	3606
920.488	3656
920.598	3793
920.708	4063
920.818	3876
920.928	3876
921.038	4055
921.148	4025
921.258	3778
921.368	3637
921.477	3622
921.587	3564
921.697	3511
921.806	3717
921.916	3538
922.025	3424
922.134	3393
922.244	3329
922.353	3481
922.462	3283
922.571	3268
922.68	3150
922.789	3108
922.898	3195
923.007	3150
923.116	3249
923.224	3214
923.333	3249
923.442	3127
923.55	3100
923.659	3188
923.767	3283
923.876	3180
923.984	3306
924.092	3119
924.201	3218
924.309	3230
924.417	3275
924.525	3222
924.633	3287
924.741	4048
924.849	3055
924.956	3294
925.064	3165
925.172	3116
925.279	3108
925.387	3256
925.494	3222
925.602	3405
925.709	3393
925.816	3237
925.924	3329
926.031	3439
926.138	3370
926.245	3416
926.352	3275
926.459	3428
926.566	3511
926.673	3370
926.779	3291
926.886	3268
926.993	3169
927.099	3176
927.206	3131
927.312	3142
927.419	3237
927.525	3230
927.631	3325
927.737	3192
927.843	3146
927.95	3074
928.056	3142
928.162	3214
928.267	3291
928.373	3880
928.479	3325
928.585	3112
928.69	3268
928.796	3294
928.901	3180
929.007	3097
929.112	3226
929.218	3199
929.323	3188
929.428	3184
929.533	3363
929.638	3142
929.743	3241
929.848	3272
929.953	3268
930.058	3188
930.163	3017
930.267	3112
930.372	3256
930.477	3066
930.581	3348
930.685	3218
930.79	3119
930.894	3173
930.998	3100
931.103	3310
931.207	3020
931.311	3032
931.415	2990
931.519	2819
931.623	2857
