Data from test_V78500241_1073.txt Node
Date: Fri Mar 25 16:22:38 CST 2022
User: usil
Spectrometer: V785-0024
Trigger mode: 0
Integration Time (sec): 4.000000E-1
Scans to average: 1
Nonlinearity correction enabled: false
Boxcar width: 0
Storing dark spectrum: false
XAxis mode: Wavelengths
Number of Pixels in Spectrum: 1024
>>>>>Begin Spectral Data<<<<<
801.071	2929
801.214	2918
801.356	2895
801.499	2906
801.641	2861
801.783	2933
801.926	3032
802.068	2982
802.211	2982
802.353	3062
802.496	2944
802.638	2998
802.78	3013
802.923	3062
803.065	2994
803.208	2857
803.35	2899
803.492	2948
803.635	2948
803.777	2750
803.919	2842
804.061	3176
804.204	2929
804.346	2872
804.488	2826
804.63	2971
804.773	2880
804.915	2906
805.057	3085
805.199	2929
805.341	2971
805.483	3036
805.626	2963
805.768	2963
805.91	3051
806.052	3093
806.194	3036
806.336	3230
806.478	2990
806.62	2914
806.762	2937
806.904	3089
807.046	3150
807.188	2998
807.33	2910
807.472	2967
807.614	2929
807.756	2990
807.898	2933
808.04	2861
808.182	2948
808.324	2941
808.465	2864
808.607	2868
808.749	2773
808.891	2872
809.033	2994
809.174	2971
809.316	2883
809.458	2891
809.6	2781
809.741	2781
809.883	2804
810.025	2834
810.166	2857
810.308	2834
810.45	2849
810.591	2754
810.733	2735
810.875	2815
811.016	2758
811.158	2720
811.299	2807
811.441	2902
811.582	2948
811.724	2823
811.865	2838
812.007	2891
812.148	2876
812.29	2857
812.431	2906
812.573	2899
812.714	2986
812.855	3032
812.997	3051
813.138	3112
813.279	3001
813.421	2937
813.562	2944
813.703	2861
813.845	2864
813.986	2750
814.127	2769
814.268	2842
814.41	2796
814.551	2804
814.692	2899
814.833	2819
814.974	2872
815.115	2979
815.256	2811
815.397	2815
815.539	2872
815.68	2773
815.821	2777
815.962	2910
816.103	2929
816.244	2868
816.385	2861
816.526	2998
816.666	2914
816.807	2724
816.948	2906
817.089	2922
817.23	2834
817.371	2792
817.512	2804
817.653	2895
817.793	2807
817.934	2876
818.075	2963
818.216	2986
818.356	3024
818.497	2891
818.638	2788
818.778	2819
818.919	2788
819.06	2769
819.2	2880
819.341	2792
819.481	2815
819.622	2948
819.762	3089
819.903	3066
820.043	2914
820.184	2887
820.324	2891
820.465	3028
820.605	3005
820.746	3020
820.886	2918
821.026	3070
821.167	3184
821.307	3241
821.447	3264
821.588	3230
821.728	3169
821.868	3180
822.008	3104
822.149	3154
822.289	3245
822.429	3070
822.569	3070
822.709	3184
822.849	3047
822.99	3085
823.13	3169
823.27	3207
823.41	3112
823.55	3100
823.69	3157
823.83	3157
823.97	3116
824.11	2986
824.25	3001
824.389	3058
824.529	3112
824.669	3074
824.809	3222
824.949	3264
825.089	3222
825.228	3165
825.368	2979
825.508	2952
825.648	2971
825.787	2986
825.927	3001
826.067	2967
826.206	2967
826.346	3024
826.485	3081
826.625	3089
826.765	3260
826.904	3230
827.044	2998
827.183	2933
827.323	2891
827.462	2956
827.601	2902
827.741	2895
827.88	2941
828.02	2872
828.159	2933
828.298	3043
828.437	3077
828.577	3066
828.716	3188
828.855	3077
828.994	2941
829.134	2880
829.273	2925
829.412	2823
829.551	2861
829.69	2918
829.829	2975
829.968	3135
830.107	3066
830.246	2998
830.385	2895
830.524	2887
830.663	2842
830.802	2716
830.941	2636
831.08	2659
831.219	2739
831.357	2758
831.496	2952
831.635	2682
831.774	2651
831.913	2667
832.051	2518
832.19	2568
832.329	2640
832.467	2545
832.606	2484
832.744	2564
832.883	2621
833.022	2575
833.16	2648
833.299	2689
833.437	2697
833.576	2682
833.714	2735
833.852	2712
833.991	2769
834.129	2815
834.267	2804
834.406	2788
834.544	2861
834.682	2857
834.821	2853
834.959	3055
835.097	2906
835.235	3066
835.373	3013
835.511	3017
835.65	2952
835.788	2967
835.926	2804
836.064	2792
836.202	2819
836.34	3058
836.478	3146
836.615	3032
836.753	3104
836.891	3169
837.029	3150
837.167	3097
837.305	3062
837.443	3039
837.58	2960
837.718	3138
837.856	3058
837.993	3055
838.131	3119
838.269	3104
838.406	3135
838.544	3055
838.681	2956
838.819	2918
838.956	2823
839.094	2830
839.231	2922
839.369	3017
839.506	3382
839.643	3176
839.781	3017
839.918	2979
840.055	3017
840.193	3055
840.33	3070
840.467	3074
840.604	3157
840.742	3370
840.879	3009
841.016	3051
841.153	3119
841.29	3348
841.427	3283
841.564	3249
841.701	3306
841.838	3211
841.975	3154
842.112	3218
842.249	3066
842.385	3039
842.522	3298
842.659	3039
842.796	3055
842.933	3127
843.069	3047
843.206	3051
843.343	3180
843.479	3131
843.616	3135
843.752	2902
843.889	2906
844.025	3081
844.162	2922
844.298	3089
844.435	2944
844.571	2880
844.708	3058
844.844	3192
844.98	3260
845.117	3184
845.253	3028
845.389	3020
845.525	3089
845.661	3081
845.798	3032
845.934	3108
846.07	3028
846.206	3195
846.342	3325
846.478	3207
846.614	3104
846.75	3070
846.886	2998
847.022	3207
847.158	3108
847.294	3226
847.429	3237
847.565	3199
847.701	3454
847.837	3009
847.972	3005
848.108	3150
848.244	3146
848.379	2982
848.515	2979
848.65	2956
848.786	2979
848.921	2982
849.057	3062
849.192	3161
849.328	3081
849.463	3070
849.598	3043
849.734	3062
849.869	2998
850.004	2918
850.14	2963
850.275	2902
850.41	2823
850.545	2880
850.68	2887
850.815	2960
850.95	2910
851.085	3169
851.22	3123
851.355	3051
851.49	2967
851.625	3005
851.76	3013
851.895	2925
852.03	2891
852.165	3043
852.299	3138
852.434	3154
852.569	3146
852.703	3131
852.838	3222
852.973	3359
853.107	3332
853.242	3165
853.376	3077
853.511	2960
853.645	3047
853.78	3173
853.914	3119
854.048	3058
854.183	3051
854.317	3127
854.451	3268
854.585	3081
854.72	3036
854.854	3176
854.988	3036
855.122	3066
855.256	2967
855.39	3100
855.524	3222
855.658	3214
855.792	3116
855.926	3161
856.06	3222
856.194	3264
856.327	3150
856.461	3066
856.595	3066
856.729	3100
856.862	3245
856.996	3150
857.13	3211
857.263	3214
857.397	3241
857.53	3127
857.664	3154
857.797	3176
857.931	3233
858.064	3184
858.197	3222
858.331	3150
858.464	3097
858.597	2986
858.731	3131
858.864	3119
858.997	3089
859.13	3142
859.263	3169
859.396	3211
859.529	3070
859.662	3093
859.795	3066
859.928	3127
860.061	3279
860.194	3275
860.327	3097
860.46	3077
860.592	3214
860.725	3237
860.858	3207
860.99	3055
861.123	3051
861.256	3047
861.388	3097
861.521	3732
861.653	3020
861.786	2971
861.918	3017
862.05	3074
862.183	3093
862.315	3112
862.447	3169
862.58	3108
862.712	2933
862.844	2842
862.976	2944
863.108	3005
863.24	3321
863.372	2857
863.504	2975
863.636	2902
863.768	3017
863.9	2967
864.032	2906
864.164	2929
864.296	3032
864.428	3104
864.559	3097
864.691	3051
864.823	3047
864.954	3020
865.086	3020
865.217	2986
865.349	2944
865.48	2967
865.612	3001
865.743	3116
865.875	2948
866.006	2910
866.137	2982
866.269	2929
866.4	2956
866.531	2922
866.662	2895
866.793	2857
866.924	2906
867.055	2975
867.186	2925
867.317	2895
867.448	2872
867.579	2819
867.71	2834
867.841	2800
867.972	2895
868.103	2887
868.233	2861
868.364	2842
868.495	2895
868.625	3062
868.756	3146
868.886	2952
869.017	3017
869.147	3142
869.278	3165
869.408	3066
869.539	3005
869.669	3074
869.799	3047
869.929	3138
870.06	3085
870.19	3329
870.32	3294
870.45	3245
870.58	3370
870.71	3431
870.84	3443
870.97	3302
871.1	3222
871.23	3469
871.36	3428
871.489	3321
871.619	3374
871.749	3370
871.879	3462
872.008	3435
872.138	3344
872.267	3291
872.397	3176
872.526	3104
872.656	3036
872.785	3081
872.915	3275
873.044	3294
873.173	3222
873.303	3275
873.432	3237
873.561	3249
873.69	3146
873.819	3192
873.948	3184
874.077	3081
874.206	3024
874.335	3104
874.464	3249
874.593	3344
874.722	3233
874.851	3378
874.979	3340
875.108	3291
875.237	3169
875.365	3161
875.494	3150
875.623	3222
875.751	3081
875.88	3138
876.008	3180
876.136	3222
876.265	3370
876.393	3538
876.521	3389
876.65	3370
876.778	3321
876.906	3241
877.034	3169
877.162	3188
877.29	3173
877.418	3256
877.546	3214
877.674	3226
877.802	3203
877.93	3188
878.058	3157
878.185	3116
878.313	3214
878.441	3233
878.568	3043
878.696	3180
878.824	3241
878.951	3317
879.079	3431
879.206	3629
879.333	3431
879.461	3275
879.588	3344
879.715	3469
879.842	3625
879.97	3397
880.097	3150
880.224	3093
880.351	3207
880.478	3260
880.605	3180
880.732	3161
880.859	3466
880.986	3321
881.112	3310
881.239	3150
881.366	3123
881.493	3024
881.619	2998
881.746	3047
881.872	3062
881.999	3047
882.125	3135
882.252	3272
882.378	3275
882.505	3412
882.631	3264
882.757	3146
882.883	3180
883.01	3192
883.136	3146
883.262	3070
883.388	3116
883.514	3321
883.64	3382
883.766	3291
883.892	3176
884.018	3264
884.143	3401
884.269	3519
884.395	3211
884.52	3142
884.646	3192
884.772	3142
884.897	3062
885.023	3188
885.148	3325
885.274	3424
885.399	3382
885.524	3279
885.65	3264
885.775	3313
885.9	3294
886.025	3409
886.15	3363
886.275	3279
886.4	3253
886.525	3294
886.65	3287
886.775	3275
886.9	3507
887.025	3641
887.149	3439
887.274	3218
887.399	3169
887.523	3184
887.648	3165
887.773	3184
887.897	3363
888.021	3431
888.146	3336
888.27	3382
888.395	3519
888.519	3401
888.643	3450
888.767	3450
888.891	3287
889.015	3222
889.139	3291
889.263	3230
889.387	3374
889.511	3568
889.635	3450
889.759	3275
889.883	3306
890.006	3336
890.13	3458
890.254	3260
890.377	3332
890.501	3192
890.624	3192
890.748	3298
890.871	3188
890.995	3108
891.118	3039
891.241	3176
891.364	3192
891.488	3317
891.611	3188
891.734	3222
891.857	3268
891.98	3214
892.103	3340
892.226	3287
892.349	3207
892.471	3131
892.594	3211
892.717	3253
892.839	3294
892.962	3241
893.085	3306
893.207	3291
893.33	3157
893.452	3184
893.575	3268
893.697	3233
893.819	3462
893.941	3507
894.064	3473
894.186	3272
894.308	3237
894.43	3447
894.552	3526
894.674	3462
894.796	3241
894.918	3298
895.04	3302
895.161	3370
895.283	3374
895.405	3317
895.526	3351
895.648	3416
895.769	3462
895.891	3443
896.012	3481
896.134	3462
896.255	3424
896.376	3382
896.498	3329
896.619	3428
896.74	3340
896.861	3389
896.982	3686
897.103	3869
897.224	3561
897.345	3530
897.466	3443
897.587	3458
897.708	3610
897.828	3606
897.949	3435
898.07	3336
898.19	3412
898.311	3606
898.431	3431
898.552	3496
898.672	3587
898.792	3595
898.913	3526
899.033	3378
899.153	3272
899.273	3226
899.393	3294
899.513	3332
899.633	3317
899.753	3363
899.873	3279
899.993	3389
900.113	3329
900.232	3374
900.352	3363
900.472	3317
900.591	3214
900.711	3294
900.83	3237
900.95	3378
901.069	3477
901.189	3321
901.308	3169
901.427	3142
901.546	3180
901.665	3294
901.784	3302
901.904	3211
902.023	3135
902.141	3009
902.26	2979
902.379	3116
902.498	3097
902.617	3047
902.735	3218
902.854	3241
902.973	3157
903.091	3051
903.21	3043
903.328	3119
903.446	3119
903.565	3123
903.683	3199
903.801	3142
903.919	3272
904.038	3279
904.156	3188
904.274	3310
904.392	3275
904.51	3317
904.627	3268
904.745	3435
904.863	3428
904.981	3230
905.098	3173
905.216	3260
905.334	3313
905.451	3325
905.569	3287
905.686	3416
905.803	3447
905.921	3275
906.038	3424
906.155	3340
906.272	3253
906.389	3344
906.506	3230
906.623	3241
906.74	3249
906.857	3195
906.974	3245
907.091	3466
907.208	3572
907.324	3435
907.441	3386
907.557	3272
907.674	3218
907.79	3218
907.907	3245
908.023	3367
908.139	3363
908.256	3291
908.372	3386
908.488	3329
908.604	3256
908.72	3211
908.836	3268
908.952	3256
909.068	3329
909.184	3500
909.3	3401
909.415	3500
909.531	3428
909.647	3249
909.762	3329
909.878	3279
909.993	3351
910.108	3340
910.224	3344
910.339	3409
910.454	3313
910.57	3317
910.685	3245
910.8	3606
910.915	3553
911.03	3443
911.145	3249
911.259	3275
911.374	3313
911.489	3245
911.604	3199
911.718	3138
911.833	3173
911.947	3028
912.062	2990
912.176	3195
912.291	3195
912.405	3195
912.519	3420
912.633	3481
912.748	3336
912.862	3287
912.976	3173
913.09	3085
913.204	3108
913.318	3214
913.431	3321
913.545	3370
913.659	3405
913.772	3336
913.886	3222
914	3249
914.113	3313
914.226	3405
914.34	3378
914.453	3214
914.566	3401
914.68	3310
914.793	3332
914.906	3135
915.019	3135
915.132	3043
915.245	3176
915.358	3226
915.47	3245
915.583	3275
915.696	3302
915.809	3378
915.921	3443
916.034	3283
916.146	3241
916.259	3188
916.371	3405
916.483	3389
916.595	3256
916.708	3359
916.82	3325
916.932	3321
917.044	3340
917.156	3291
917.268	3218
917.38	3272
917.491	3287
917.603	3329
917.715	3401
917.826	3431
917.938	3363
918.049	3272
918.161	3401
918.272	3561
918.384	3564
918.495	3504
918.606	3298
918.717	3294
918.828	3378
918.939	3386
919.05	3302
919.161	3355
919.272	3188
919.383	3253
919.494	3496
919.604	3652
919.715	3450
919.826	3401
919.936	3450
920.047	3568
920.157	3580
920.267	3747
920.378	3648
920.488	3557
920.598	3770
920.708	3956
920.818	3812
920.928	3831
921.038	4029
921.148	3979
921.258	3694
921.368	3610
921.477	3599
921.587	3549
921.697	3481
921.806	3644
921.916	3549
922.025	3340
922.134	3348
922.244	3321
922.353	3412
922.462	3272
922.571	3237
922.68	3112
922.789	3077
922.898	3123
923.007	3047
923.116	3211
923.224	3173
923.333	3184
923.442	3081
923.55	3081
923.659	3138
923.767	3237
923.876	3154
923.984	3245
924.092	3135
924.201	3230
924.309	3222
924.417	3211
924.525	3180
924.633	3241
924.741	4078
924.849	3051
924.956	3272
925.064	3074
925.172	3070
925.279	3100
925.387	3184
925.494	3180
925.602	3355
925.709	3382
925.816	3184
925.924	3306
926.031	3340
926.138	3325
926.245	3351
926.352	3260
926.459	3386
926.566	3454
926.673	3321
926.779	3249
926.886	3268
926.993	3180
927.099	3123
927.206	3108
927.312	3100
927.419	3237
927.525	3195
927.631	3294
927.737	3165
927.843	3154
927.95	3066
928.056	3131
928.162	3192
928.267	3230
928.373	3899
928.479	3291
928.585	3104
928.69	3195
928.796	3272
928.901	3176
929.007	3058
929.112	3199
929.218	3241
929.323	3142
929.428	3119
929.533	3321
929.638	3108
929.743	3119
929.848	3283
929.953	3176
930.058	3154
930.163	3020
930.267	3039
930.372	3226
930.477	3009
930.581	3302
930.685	3142
930.79	3043
930.894	3112
930.998	3077
931.103	3241
931.207	2944
931.311	2948
931.415	2910
931.519	2766
931.623	2788
