Data from test_V78500241_1668.txt Node
Date: Fri Mar 25 16:26:45 CST 2022
User: usil
Spectrometer: V785-0024
Trigger mode: 0
Integration Time (sec): 4.000000E-1
Scans to average: 1
Nonlinearity correction enabled: false
Boxcar width: 0
Storing dark spectrum: false
XAxis mode: Wavelengths
Number of Pixels in Spectrum: 1024
>>>>>Begin Spectral Data<<<<<
801.071	2922
801.214	2929
801.356	2857
801.499	2876
801.641	2872
801.783	2910
801.926	3066
802.068	3020
802.211	2960
802.353	3017
802.496	2971
802.638	2986
802.78	3032
802.923	3032
803.065	3001
803.208	2899
803.35	2887
803.492	2941
803.635	2933
803.777	2731
803.919	2887
804.061	3180
804.204	2963
804.346	2929
804.488	2834
804.63	2971
804.773	2883
804.915	2918
805.057	3089
805.199	2937
805.341	2971
805.483	3047
805.626	3005
805.768	2925
805.91	3062
806.052	3123
806.194	3043
806.336	3214
806.478	3017
806.62	2906
806.762	3005
806.904	3032
807.046	3176
807.188	2971
807.33	2906
807.472	3005
807.614	2910
807.756	2975
807.898	2925
808.04	2876
808.182	3001
808.324	2990
808.465	2891
808.607	2910
808.749	2804
808.891	2857
809.033	2986
809.174	2971
809.316	2880
809.458	2922
809.6	2785
809.741	2766
809.883	2766
810.025	2864
810.166	2838
810.308	2864
810.45	2819
810.591	2804
810.733	2762
810.875	2849
811.016	2773
811.158	2743
811.299	2834
811.441	2918
811.582	2929
811.724	2849
811.865	2804
812.007	2906
812.148	2872
812.29	2842
812.431	2910
812.573	2944
812.714	2986
812.855	3047
812.997	3005
813.138	3100
813.279	2994
813.421	3001
813.562	2960
813.703	2880
813.845	2902
813.986	2762
814.127	2735
814.268	2834
814.41	2880
814.551	2792
814.692	2891
814.833	2830
814.974	2876
815.115	2948
815.256	2838
815.397	2792
815.539	2842
815.68	2773
815.821	2788
815.962	2937
816.103	2914
816.244	2899
816.385	2857
816.526	2963
816.666	2967
816.807	2754
816.948	2868
817.089	2910
817.23	2857
817.371	2800
817.512	2777
817.653	2864
817.793	2830
817.934	2910
818.075	2967
818.216	2963
818.356	3070
818.497	2899
818.638	2781
818.778	2830
818.919	2788
819.06	2762
819.2	2872
819.341	2769
819.481	2796
819.622	2918
819.762	3081
819.903	3039
820.043	2948
820.184	2902
820.324	2876
820.465	3017
820.605	3001
820.746	3017
820.886	2944
821.026	3104
821.167	3161
821.307	3256
821.447	3233
821.588	3245
821.728	3214
821.868	3169
822.008	3051
822.149	3138
822.289	3203
822.429	3085
822.569	3112
822.709	3195
822.849	3028
822.99	3062
823.13	3165
823.27	3176
823.41	3089
823.55	3169
823.69	3180
823.83	3188
823.97	3116
824.11	3009
824.25	2967
824.389	3051
824.529	3119
824.669	3047
824.809	3150
824.949	3211
825.089	3180
825.228	3173
825.368	2979
825.508	2933
825.648	2960
825.787	2982
825.927	2952
826.067	2979
826.206	2967
826.346	3024
826.485	3077
826.625	3055
826.765	3256
826.904	3214
827.044	3009
827.183	2922
827.323	2868
827.462	3005
827.601	2941
827.741	2925
827.88	2937
828.02	2849
828.159	3009
828.298	3032
828.437	3104
828.577	3047
828.716	3249
828.855	3074
828.994	2941
829.134	2864
829.273	2906
829.412	2845
829.551	2849
829.69	2872
829.829	2956
829.968	3127
830.107	2994
830.246	2994
830.385	2906
830.524	2902
830.663	2838
830.802	2735
830.941	2636
831.08	2606
831.219	2766
831.357	2777
831.496	2944
831.635	2705
831.774	2644
831.913	2670
832.051	2537
832.19	2556
832.329	2686
832.467	2537
832.606	2499
832.744	2571
832.883	2587
833.022	2571
833.16	2636
833.299	2678
833.437	2689
833.576	2708
833.714	2743
833.852	2731
833.991	2766
834.129	2830
834.267	2838
834.406	2781
834.544	2861
834.682	2853
834.821	2838
834.959	3036
835.097	2834
835.235	3081
835.373	2986
835.511	3009
835.65	2902
835.788	2971
835.926	2830
836.064	2815
836.202	2823
836.34	3085
836.478	3116
836.615	2998
836.753	3138
836.891	3199
837.029	3142
837.167	3085
837.305	3020
837.443	2998
837.58	2952
837.718	3135
837.856	3020
837.993	3036
838.131	3093
838.269	3123
838.406	3058
838.544	3062
838.681	2902
838.819	2944
838.956	2819
839.094	2811
839.231	2906
839.369	3001
839.506	3374
839.643	3203
839.781	3024
839.918	2963
840.055	3070
840.193	3043
840.33	3047
840.467	3047
840.604	3161
840.742	3424
840.879	3039
841.016	3036
841.153	3074
841.29	3340
841.427	3302
841.564	3272
841.701	3317
841.838	3222
841.975	3173
842.112	3222
842.249	3058
842.385	3024
842.522	3249
842.659	3108
842.796	3047
842.933	3097
843.069	3017
843.206	3055
843.343	3161
843.479	3097
843.616	3089
843.752	2887
843.889	2838
844.025	3085
844.162	2864
844.298	3077
844.435	2941
844.571	2914
844.708	3123
844.844	3192
844.98	3256
845.117	3176
845.253	3043
845.389	3043
845.525	3097
845.661	3119
845.798	2986
845.934	3150
846.07	3077
846.206	3230
846.342	3279
846.478	3253
846.614	3116
846.75	3066
846.886	3024
847.022	3268
847.158	3093
847.294	3199
847.429	3245
847.565	3230
847.701	3477
847.837	3074
847.972	2967
848.108	3142
848.244	3138
848.379	2960
848.515	2941
848.65	2941
848.786	2952
848.921	2994
849.057	3112
849.192	3169
849.328	3043
849.463	3131
849.598	3066
849.734	3005
849.869	2956
850.004	2910
850.14	2933
850.275	2906
850.41	2834
850.545	2868
850.68	2906
850.815	2982
850.95	2956
851.085	3195
851.22	3074
851.355	3020
851.49	2975
851.625	2994
851.76	3028
851.895	2933
852.03	2895
852.165	3058
852.299	3127
852.434	3203
852.569	3169
852.703	3211
852.838	3226
852.973	3325
853.107	3367
853.242	3135
853.376	3138
853.511	2933
853.645	3047
853.78	3195
853.914	3108
854.048	3135
854.183	3055
854.317	3135
854.451	3279
854.585	3112
854.72	3066
854.854	3211
854.988	3039
855.122	3116
855.256	2975
855.39	3116
855.524	3241
855.658	3173
855.792	3176
855.926	3195
856.06	3199
856.194	3268
856.327	3119
856.461	3074
856.595	3062
856.729	3058
856.862	3230
856.996	3157
857.13	3184
857.263	3195
857.397	3287
857.53	3097
857.664	3195
857.797	3230
857.931	3233
858.064	3123
858.197	3176
858.331	3146
858.464	3085
858.597	3009
858.731	3097
858.864	3146
858.997	3066
859.13	3135
859.263	3146
859.396	3184
859.529	3097
859.662	3047
859.795	3058
859.928	3180
860.061	3287
860.194	3264
860.327	3127
860.46	3070
860.592	3237
860.725	3203
860.858	3237
860.99	3112
861.123	3032
861.256	3051
861.388	3131
861.521	3823
861.653	2998
861.786	2975
861.918	2982
862.05	3058
862.183	3089
862.315	3154
862.447	3192
862.58	3070
862.712	2914
862.844	2864
862.976	3036
863.108	2967
863.24	3378
863.372	2925
863.504	2956
863.636	2963
863.768	2986
863.9	2979
864.032	2880
864.164	2963
864.296	3047
864.428	3055
864.559	3077
864.691	3093
864.823	3070
864.954	2982
865.086	3070
865.217	2982
865.349	2956
865.48	2944
865.612	3043
865.743	3097
865.875	2975
866.006	2948
866.137	2982
866.269	2948
866.4	2933
866.531	2937
866.662	2868
866.793	2891
866.924	2883
867.055	2971
867.186	2895
867.317	2895
867.448	2819
867.579	2838
867.71	2845
867.841	2834
867.972	2895
868.103	2887
868.233	2883
868.364	2876
868.495	2887
868.625	3100
868.756	3169
868.886	2956
869.017	3001
869.147	3192
869.278	3157
869.408	3028
869.539	3017
869.669	3104
869.799	2998
869.929	3127
870.06	3116
870.19	3336
870.32	3260
870.45	3275
870.58	3374
870.71	3443
870.84	3450
870.97	3291
871.1	3237
871.23	3450
871.36	3435
871.489	3344
871.619	3367
871.749	3386
871.879	3420
872.008	3450
872.138	3344
872.267	3268
872.397	3146
872.526	3081
872.656	3001
872.785	3077
872.915	3237
873.044	3321
873.173	3233
873.303	3230
873.432	3245
873.561	3218
873.69	3138
873.819	3161
873.948	3222
874.077	3081
874.206	3047
874.335	3058
874.464	3207
874.593	3378
874.722	3233
874.851	3355
874.979	3382
875.108	3332
875.237	3233
875.365	3138
875.494	3199
875.623	3249
875.751	3074
875.88	3066
876.008	3180
876.136	3237
876.265	3355
876.393	3530
876.521	3431
876.65	3386
876.778	3355
876.906	3233
877.034	3222
877.162	3260
877.29	3161
877.418	3241
877.546	3245
877.674	3226
877.802	3233
877.93	3253
878.058	3138
878.185	3085
878.313	3199
878.441	3233
878.568	3077
878.696	3150
878.824	3268
878.951	3291
879.079	3466
879.206	3610
879.333	3382
879.461	3321
879.588	3382
879.715	3469
879.842	3580
879.97	3382
880.097	3184
880.224	3104
880.351	3173
880.478	3207
880.605	3188
880.732	3154
880.859	3507
880.986	3260
881.112	3317
881.239	3203
881.366	3077
881.493	3017
881.619	3043
881.746	3108
881.872	3081
881.999	3100
882.125	3119
882.252	3249
882.378	3294
882.505	3469
882.631	3294
882.757	3169
882.883	3218
883.01	3214
883.136	3142
883.262	3108
883.388	3116
883.514	3294
883.64	3351
883.766	3306
883.892	3184
884.018	3203
884.143	3409
884.269	3542
884.395	3230
884.52	3157
884.646	3176
884.772	3146
884.897	3081
885.023	3203
885.148	3336
885.274	3409
885.399	3313
885.524	3313
885.65	3249
885.775	3249
885.9	3275
886.025	3473
886.15	3405
886.275	3279
886.4	3218
886.525	3302
886.65	3237
886.775	3260
886.9	3534
887.025	3629
887.149	3378
887.274	3245
887.399	3211
887.523	3184
887.648	3169
887.773	3211
887.897	3363
888.021	3386
888.146	3287
888.27	3424
888.395	3603
888.519	3424
888.643	3450
888.767	3492
888.891	3329
889.015	3214
889.139	3306
889.263	3218
889.387	3378
889.511	3500
889.635	3454
889.759	3302
889.883	3294
890.006	3382
890.13	3485
890.254	3264
890.377	3340
890.501	3192
890.624	3157
890.748	3272
890.871	3157
890.995	3108
891.118	3051
891.241	3203
891.364	3256
891.488	3310
891.611	3195
891.734	3222
891.857	3283
891.98	3260
892.103	3325
892.226	3214
892.349	3207
892.471	3135
892.594	3222
892.717	3287
892.839	3291
892.962	3313
893.085	3359
893.207	3294
893.33	3150
893.452	3203
893.575	3321
893.697	3237
893.819	3447
893.941	3488
894.064	3420
894.186	3291
894.308	3310
894.43	3420
894.552	3507
894.674	3447
894.796	3249
894.918	3325
895.04	3264
895.161	3405
895.283	3367
895.405	3313
895.526	3370
895.648	3420
895.769	3412
895.891	3439
896.012	3458
896.134	3477
896.255	3386
896.376	3359
896.498	3355
896.619	3401
896.74	3306
896.861	3405
896.982	3690
897.103	3873
897.224	3549
897.345	3519
897.466	3393
897.587	3477
897.708	3606
897.828	3545
897.949	3435
898.07	3336
898.19	3401
898.311	3572
898.431	3500
898.552	3466
898.672	3564
898.792	3580
898.913	3511
899.033	3389
899.153	3291
899.273	3233
899.393	3272
899.513	3298
899.633	3317
899.753	3363
899.873	3302
899.993	3382
900.113	3310
900.232	3374
900.352	3367
900.472	3310
900.591	3176
900.711	3306
900.83	3226
900.95	3389
901.069	3492
901.189	3344
901.308	3165
901.427	3097
901.546	3199
901.665	3291
901.784	3359
901.904	3180
902.023	3131
902.141	3036
902.26	2967
902.379	3138
902.498	3108
902.617	3047
902.735	3260
902.854	3214
902.973	3146
903.091	3062
903.21	3081
903.328	3142
903.446	3097
903.565	3077
903.683	3195
903.801	3138
903.919	3260
904.038	3268
904.156	3157
904.274	3275
904.392	3226
904.51	3287
904.627	3275
904.745	3412
904.863	3515
904.981	3272
905.098	3142
905.216	3195
905.334	3268
905.451	3317
905.569	3340
905.686	3393
905.803	3424
905.921	3291
906.038	3431
906.155	3325
906.272	3287
906.389	3355
906.506	3173
906.623	3237
906.74	3268
906.857	3203
906.974	3291
907.091	3458
907.208	3549
907.324	3469
907.441	3431
907.557	3237
907.674	3233
907.79	3211
907.907	3291
908.023	3351
908.139	3348
908.256	3298
908.372	3359
908.488	3355
908.604	3237
908.72	3218
908.836	3237
908.952	3287
909.068	3329
909.184	3477
909.3	3393
909.415	3515
909.531	3473
909.647	3268
909.762	3256
909.878	3226
909.993	3325
910.108	3355
910.224	3344
910.339	3363
910.454	3313
910.57	3287
910.685	3203
910.8	3557
910.915	3519
911.03	3447
911.145	3237
911.259	3218
911.374	3298
911.489	3203
911.604	3195
911.718	3097
911.833	3154
911.947	3013
912.062	3009
912.176	3176
912.291	3199
912.405	3207
912.519	3405
912.633	3439
912.748	3363
912.862	3272
912.976	3135
913.09	3058
913.204	3127
913.318	3184
913.431	3313
913.545	3374
913.659	3401
913.772	3313
913.886	3222
914	3230
914.113	3363
914.226	3424
914.34	3363
914.453	3203
914.566	3424
914.68	3264
914.793	3321
914.906	3157
915.019	3146
915.132	3074
915.245	3173
915.358	3195
915.47	3245
915.583	3237
915.696	3279
915.809	3389
915.921	3458
916.034	3260
916.146	3253
916.259	3253
916.371	3378
916.483	3363
916.595	3287
916.708	3359
916.82	3317
916.932	3348
917.044	3332
917.156	3344
917.268	3222
917.38	3325
917.491	3287
917.603	3370
917.715	3435
917.826	3458
917.938	3378
918.049	3313
918.161	3405
918.272	3557
918.384	3561
918.495	3488
918.606	3332
918.717	3313
918.828	3420
918.939	3389
919.05	3329
919.161	3329
919.272	3146
919.383	3275
919.494	3507
919.604	3675
919.715	3507
919.826	3424
919.936	3412
920.047	3633
920.157	3595
920.267	3759
920.378	3603
920.488	3584
920.598	3762
920.708	3949
920.818	3816
920.928	3854
921.038	4036
921.148	4010
921.258	3724
921.368	3629
921.477	3534
921.587	3542
921.697	3469
921.806	3625
921.916	3534
922.025	3332
922.134	3374
922.244	3302
922.353	3409
922.462	3268
922.571	3207
922.68	3157
922.789	3074
922.898	3131
923.007	3108
923.116	3192
923.224	3184
923.333	3203
923.442	3081
923.55	3131
923.659	3142
923.767	3241
923.876	3119
923.984	3218
924.092	3077
924.201	3176
924.309	3188
924.417	3233
924.525	3180
924.633	3214
924.741	4181
924.849	3005
924.956	3230
925.064	3089
925.172	3066
925.279	3085
925.387	3207
925.494	3214
925.602	3367
925.709	3340
925.816	3230
925.924	3283
926.031	3378
926.138	3306
926.245	3344
926.352	3230
926.459	3393
926.566	3428
926.673	3351
926.779	3226
926.886	3272
926.993	3157
927.099	3127
927.206	3119
927.312	3089
927.419	3230
927.525	3180
927.631	3310
927.737	3154
927.843	3135
927.95	3032
928.056	3127
928.162	3150
928.267	3230
928.373	3884
928.479	3317
928.585	3051
928.69	3241
928.796	3260
928.901	3142
929.007	3036
929.112	3165
929.218	3180
929.323	3165
929.428	3157
929.533	3306
929.638	3093
929.743	3169
929.848	3272
929.953	3203
930.058	3169
930.163	3017
930.267	3055
930.372	3188
930.477	3055
930.581	3340
930.685	3184
930.79	3051
930.894	3112
930.998	3085
931.103	3253
931.207	2963
931.311	2971
931.415	2895
931.519	2762
931.623	2826
