Data from test_V78500241_1395.txt Node
Date: Fri Mar 25 16:24:52 CST 2022
User: usil
Spectrometer: V785-0024
Trigger mode: 0
Integration Time (sec): 4.000000E-1
Scans to average: 1
Nonlinearity correction enabled: false
Boxcar width: 0
Storing dark spectrum: false
XAxis mode: Wavelengths
Number of Pixels in Spectrum: 1024
>>>>>Begin Spectral Data<<<<<
801.071	2887
801.214	2914
801.356	2887
801.499	2876
801.641	2876
801.783	2910
801.926	3097
802.068	2982
802.211	2994
802.353	3024
802.496	2960
802.638	2998
802.78	3036
802.923	3085
803.065	2990
803.208	2910
803.35	2891
803.492	2918
803.635	2910
803.777	2724
803.919	2872
804.061	3184
804.204	2941
804.346	2929
804.488	2883
804.63	2979
804.773	2864
804.915	2906
805.057	3108
805.199	2906
805.341	2960
805.483	3039
805.626	2990
805.768	2956
805.91	3066
806.052	3154
806.194	3039
806.336	3260
806.478	3028
806.62	2963
806.762	2960
806.904	3062
807.046	3138
807.188	2998
807.33	2922
807.472	2990
807.614	2887
807.756	2979
807.898	2906
808.04	2872
808.182	2952
808.324	2956
808.465	2872
808.607	2857
808.749	2811
808.891	2853
809.033	2952
809.174	2952
809.316	2861
809.458	2906
809.6	2777
809.741	2788
809.883	2804
810.025	2807
810.166	2872
810.308	2842
810.45	2887
810.591	2746
810.733	2762
810.875	2868
811.016	2792
811.158	2762
811.299	2823
811.441	2933
811.582	2899
811.724	2834
811.865	2849
812.007	2922
812.148	2887
812.29	2849
812.431	2868
812.573	2906
812.714	2948
812.855	3039
812.997	3051
813.138	3119
813.279	2982
813.421	2967
813.562	2937
813.703	2910
813.845	2872
813.986	2804
814.127	2743
814.268	2838
814.41	2853
814.551	2800
814.692	2880
814.833	2815
814.974	2834
815.115	2956
815.256	2849
815.397	2804
815.539	2925
815.68	2792
815.821	2796
815.962	2918
816.103	2895
816.244	2838
816.385	2895
816.526	2971
816.666	2914
816.807	2777
816.948	2861
817.089	2902
817.23	2830
817.371	2792
817.512	2815
817.653	2834
817.793	2785
817.934	2906
818.075	2956
818.216	2979
818.356	2994
818.497	2880
818.638	2796
818.778	2815
818.919	2785
819.06	2746
819.2	2849
819.341	2788
819.481	2796
819.622	2956
819.762	3081
819.903	3032
820.043	2902
820.184	2880
820.324	2891
820.465	2994
820.605	3017
820.746	3028
820.886	2929
821.026	3089
821.167	3169
821.307	3268
821.447	3272
821.588	3222
821.728	3237
821.868	3256
822.008	3039
822.149	3169
822.289	3211
822.429	3093
822.569	3089
822.709	3184
822.849	3017
822.99	3070
823.13	3169
823.27	3207
823.41	3131
823.55	3157
823.69	3169
823.83	3146
823.97	3097
824.11	3001
824.25	2948
824.389	3058
824.529	3104
824.669	3028
824.809	3157
824.949	3211
825.089	3184
825.228	3188
825.368	3001
825.508	2925
825.648	2975
825.787	3001
825.927	3005
826.067	2933
826.206	2967
826.346	3032
826.485	3058
826.625	3100
826.765	3260
826.904	3230
827.044	3024
827.183	2937
827.323	2914
827.462	2975
827.601	2891
827.741	2918
827.88	2956
828.02	2864
828.159	2967
828.298	2998
828.437	3123
828.577	3005
828.716	3268
828.855	3077
828.994	2902
829.134	2868
829.273	2933
829.412	2868
829.551	2872
829.69	2895
829.829	2998
829.968	3104
830.107	2990
830.246	3043
830.385	2876
830.524	2876
830.663	2807
830.802	2735
830.941	2636
831.08	2636
831.219	2746
831.357	2746
831.496	2967
831.635	2727
831.774	2689
831.913	2670
832.051	2556
832.19	2533
832.329	2693
832.467	2492
832.606	2488
832.744	2590
832.883	2568
833.022	2571
833.16	2636
833.299	2674
833.437	2682
833.576	2693
833.714	2708
833.852	2701
833.991	2750
834.129	2842
834.267	2815
834.406	2754
834.544	2845
834.682	2880
834.821	2902
834.959	3081
835.097	2887
835.235	3085
835.373	2994
835.511	3032
835.65	2975
835.788	2937
835.926	2838
836.064	2811
836.202	2811
836.34	3055
836.478	3176
836.615	3058
836.753	3138
836.891	3211
837.029	3142
837.167	3093
837.305	3051
837.443	3066
837.58	2986
837.718	3104
837.856	3055
837.993	3024
838.131	3119
838.269	3112
838.406	3074
838.544	3074
838.681	2922
838.819	2880
838.956	2807
839.094	2834
839.231	2880
839.369	3028
839.506	3340
839.643	3211
839.781	3009
839.918	2933
840.055	3043
840.193	3039
840.33	3020
840.467	3047
840.604	3142
840.742	3351
840.879	3043
841.016	3058
841.153	3131
841.29	3313
841.427	3306
841.564	3291
841.701	3306
841.838	3192
841.975	3157
842.112	3241
842.249	3108
842.385	3032
842.522	3294
842.659	3089
842.796	3024
842.933	3100
843.069	3055
843.206	3032
843.343	3150
843.479	3104
843.616	3146
843.752	2887
843.889	2864
844.025	3097
844.162	2853
844.298	3070
844.435	2933
844.571	2868
844.708	3039
844.844	3203
844.98	3237
845.117	3161
845.253	3039
845.389	2971
845.525	3077
845.661	3108
845.798	2994
845.934	3131
846.07	3020
846.206	3195
846.342	3302
846.478	3211
846.614	3085
846.75	3036
846.886	2998
847.022	3233
847.158	3135
847.294	3150
847.429	3272
847.565	3218
847.701	3477
847.837	3024
847.972	3009
848.108	3135
848.244	3112
848.379	2963
848.515	2933
848.65	2906
848.786	2963
848.921	3013
849.057	3108
849.192	3150
849.328	3070
849.463	3112
849.598	3043
849.734	3032
849.869	2971
850.004	2937
850.14	2922
850.275	2914
850.41	2861
850.545	2899
850.68	2895
850.815	2963
850.95	2941
851.085	3161
851.22	3085
851.355	3028
851.49	2990
851.625	2998
851.76	3032
851.895	2922
852.03	2914
852.165	3020
852.299	3093
852.434	3192
852.569	3135
852.703	3176
852.838	3199
852.973	3340
853.107	3313
853.242	3138
853.376	3074
853.511	2971
853.645	3020
853.78	3214
853.914	3112
854.048	3097
854.183	3062
854.317	3131
854.451	3298
854.585	3150
854.72	3070
854.854	3180
854.988	3047
855.122	3085
855.256	2941
855.39	3093
855.524	3249
855.658	3154
855.792	3142
855.926	3176
856.06	3214
856.194	3253
856.327	3127
856.461	3081
856.595	3043
856.729	3070
856.862	3192
856.996	3173
857.13	3176
857.263	3233
857.397	3218
857.53	3093
857.664	3165
857.797	3237
857.931	3249
858.064	3157
858.197	3218
858.331	3093
858.464	3074
858.597	3001
858.731	3135
858.864	3093
858.997	3112
859.13	3188
859.263	3180
859.396	3192
859.529	3074
859.662	3077
859.795	3039
859.928	3146
860.061	3279
860.194	3268
860.327	3123
860.46	3097
860.592	3199
860.725	3253
860.858	3245
860.99	3089
861.123	3077
861.256	3005
861.388	3161
861.521	3854
861.653	2998
861.786	2971
861.918	3017
862.05	3055
862.183	3097
862.315	3127
862.447	3176
862.58	3074
862.712	2952
862.844	2895
862.976	3017
863.108	2986
863.24	3291
863.372	2864
863.504	2933
863.636	2918
863.768	3047
863.9	2952
864.032	2883
864.164	2922
864.296	2990
864.428	3074
864.559	3047
864.691	3062
864.823	3047
864.954	3039
865.086	3047
865.217	2990
865.349	2963
865.48	2956
865.612	2975
865.743	3142
865.875	3017
866.006	2922
866.137	2952
866.269	2922
866.4	2952
866.531	2887
866.662	2849
866.793	2883
866.924	2891
867.055	2956
867.186	2918
867.317	2899
867.448	2807
867.579	2815
867.71	2826
867.841	2785
867.972	2899
868.103	2887
868.233	2876
868.364	2845
868.495	2895
868.625	3039
868.756	3157
868.886	2971
869.017	3024
869.147	3150
869.278	3142
869.408	3043
869.539	3001
869.669	3066
869.799	2998
869.929	3112
870.06	3119
870.19	3325
870.32	3245
870.45	3298
870.58	3397
870.71	3439
870.84	3420
870.97	3279
871.1	3207
871.23	3523
871.36	3450
871.489	3359
871.619	3393
871.749	3405
871.879	3412
872.008	3466
872.138	3336
872.267	3256
872.397	3112
872.526	3104
872.656	3013
872.785	3097
872.915	3230
873.044	3321
873.173	3207
873.303	3253
873.432	3249
873.561	3260
873.69	3161
873.819	3135
873.948	3184
874.077	3085
874.206	3055
874.335	3047
874.464	3199
874.593	3336
874.722	3222
874.851	3393
874.979	3367
875.108	3279
875.237	3157
875.365	3135
875.494	3165
875.623	3253
875.751	3100
875.88	3104
876.008	3195
876.136	3233
876.265	3378
876.393	3523
876.521	3424
876.65	3397
876.778	3332
876.906	3237
877.034	3207
877.162	3241
877.29	3154
877.418	3226
877.546	3237
877.674	3245
877.802	3207
877.93	3203
878.058	3123
878.185	3077
878.313	3222
878.441	3180
878.568	3062
878.696	3135
878.824	3245
878.951	3298
879.079	3439
879.206	3652
879.333	3450
879.461	3355
879.588	3359
879.715	3469
879.842	3564
879.97	3351
880.097	3112
880.224	3093
880.351	3184
880.478	3199
880.605	3154
880.732	3150
880.859	3488
880.986	3287
881.112	3306
881.239	3188
881.366	3089
881.493	3039
881.619	3020
881.746	3077
881.872	3081
881.999	3123
882.125	3127
882.252	3237
882.378	3317
882.505	3397
882.631	3291
882.757	3108
882.883	3214
883.01	3233
883.136	3180
883.262	3055
883.388	3127
883.514	3313
883.64	3443
883.766	3306
883.892	3199
884.018	3230
884.143	3424
884.269	3580
884.395	3199
884.52	3157
884.646	3173
884.772	3138
884.897	3104
885.023	3211
885.148	3321
885.274	3447
885.399	3378
885.524	3325
885.65	3294
885.775	3329
885.9	3260
886.025	3435
886.15	3340
886.275	3294
886.4	3184
886.525	3329
886.65	3283
886.775	3268
886.9	3504
887.025	3652
887.149	3382
887.274	3222
887.399	3203
887.523	3180
887.648	3207
887.773	3138
887.897	3397
888.021	3386
888.146	3298
888.27	3447
888.395	3507
888.519	3389
888.643	3420
888.767	3454
888.891	3264
889.015	3268
889.139	3306
889.263	3233
889.387	3428
889.511	3466
889.635	3439
889.759	3256
889.883	3298
890.006	3386
890.13	3504
890.254	3268
890.377	3317
890.501	3184
890.624	3214
890.748	3283
890.871	3161
890.995	3116
891.118	3055
891.241	3188
891.364	3233
891.488	3291
891.611	3165
891.734	3214
891.857	3268
891.98	3222
892.103	3332
892.226	3306
892.349	3233
892.471	3119
892.594	3233
892.717	3241
892.839	3256
892.962	3294
893.085	3378
893.207	3294
893.33	3142
893.452	3211
893.575	3363
893.697	3256
893.819	3435
893.941	3458
894.064	3462
894.186	3237
894.308	3313
894.43	3443
894.552	3526
894.674	3462
894.796	3291
894.918	3272
895.04	3287
895.161	3389
895.283	3370
895.405	3310
895.526	3412
895.648	3416
895.769	3412
895.891	3477
896.012	3424
896.134	3485
896.255	3420
896.376	3340
896.498	3359
896.619	3405
896.74	3351
896.861	3370
896.982	3690
897.103	3827
897.224	3599
897.345	3515
897.466	3435
897.587	3477
897.708	3599
897.828	3523
897.949	3397
898.07	3336
898.19	3424
898.311	3618
898.431	3466
898.552	3504
898.672	3530
898.792	3553
898.913	3515
899.033	3409
899.153	3294
899.273	3230
899.393	3302
899.513	3310
899.633	3283
899.753	3306
899.873	3306
899.993	3382
900.113	3321
900.232	3378
900.352	3355
900.472	3298
900.591	3199
900.711	3310
900.83	3226
900.95	3431
901.069	3530
901.189	3344
901.308	3199
901.427	3146
901.546	3207
901.665	3241
901.784	3321
901.904	3218
902.023	3104
902.141	3017
902.26	2967
902.379	3154
902.498	3093
902.617	3108
902.735	3192
902.854	3226
902.973	3195
903.091	3062
903.21	3062
903.328	3108
903.446	3104
903.565	3089
903.683	3195
903.801	3112
903.919	3233
904.038	3245
904.156	3192
904.274	3279
904.392	3253
904.51	3291
904.627	3344
904.745	3431
904.863	3443
904.981	3253
905.098	3135
905.216	3218
905.334	3287
905.451	3321
905.569	3268
905.686	3416
905.803	3397
905.921	3302
906.038	3401
906.155	3351
906.272	3275
906.389	3302
906.506	3214
906.623	3291
906.74	3298
906.857	3180
906.974	3260
907.091	3458
907.208	3557
907.324	3405
907.441	3382
907.557	3211
907.674	3237
907.79	3203
907.907	3279
908.023	3355
908.139	3332
908.256	3321
908.372	3370
908.488	3321
908.604	3283
908.72	3230
908.836	3306
908.952	3264
909.068	3363
909.184	3492
909.3	3386
909.415	3485
909.531	3507
909.647	3253
909.762	3306
909.878	3272
909.993	3359
910.108	3310
910.224	3336
910.339	3393
910.454	3359
910.57	3241
910.685	3222
910.8	3542
910.915	3538
911.03	3363
911.145	3253
911.259	3256
911.374	3313
911.489	3268
911.604	3226
911.718	3097
911.833	3154
911.947	3055
912.062	2994
912.176	3161
912.291	3195
912.405	3222
912.519	3428
912.633	3466
912.748	3317
912.862	3249
912.976	3138
913.09	3039
913.204	3123
913.318	3180
913.431	3340
913.545	3306
913.659	3409
913.772	3344
913.886	3218
914	3195
914.113	3306
914.226	3389
914.34	3374
914.453	3211
914.566	3393
914.68	3275
914.793	3363
914.906	3138
915.019	3131
915.132	3074
915.245	3180
915.358	3195
915.47	3218
915.583	3264
915.696	3287
915.809	3405
915.921	3420
916.034	3283
916.146	3264
916.259	3214
916.371	3409
916.483	3363
916.595	3233
916.708	3348
916.82	3321
916.932	3351
917.044	3329
917.156	3336
917.268	3264
917.38	3287
917.491	3275
917.603	3348
917.715	3431
917.826	3473
917.938	3401
918.049	3207
918.161	3405
918.272	3591
918.384	3561
918.495	3458
918.606	3329
918.717	3268
918.828	3370
918.939	3462
919.05	3310
919.161	3336
919.272	3188
919.383	3279
919.494	3469
919.604	3671
919.715	3454
919.826	3428
919.936	3450
920.047	3557
920.157	3561
920.267	3781
920.378	3610
920.488	3618
920.598	3789
920.708	3953
920.818	3819
920.928	3816
921.038	4002
921.148	4021
921.258	3698
921.368	3603
921.477	3580
921.587	3553
921.697	3416
921.806	3656
921.916	3538
922.025	3325
922.134	3378
922.244	3317
922.353	3424
922.462	3279
922.571	3233
922.68	3116
922.789	3036
922.898	3123
923.007	3108
923.116	3214
923.224	3195
923.333	3180
923.442	3138
923.55	3089
923.659	3108
923.767	3237
923.876	3131
923.984	3203
924.092	3104
924.201	3173
924.309	3211
924.417	3256
924.525	3195
924.633	3230
924.741	4029
924.849	3043
924.956	3253
925.064	3093
925.172	3055
925.279	3085
925.387	3195
925.494	3180
925.602	3367
925.709	3332
925.816	3176
925.924	3279
926.031	3374
926.138	3329
926.245	3348
926.352	3249
926.459	3443
926.566	3469
926.673	3264
926.779	3214
926.886	3241
926.993	3127
927.099	3131
927.206	3089
927.312	3104
927.419	3218
927.525	3211
927.631	3287
927.737	3138
927.843	3066
927.95	3062
928.056	3119
928.162	3127
928.267	3226
928.373	3846
928.479	3294
928.585	3020
928.69	3233
928.796	3291
928.901	3176
929.007	3032
929.112	3203
929.218	3138
929.323	3135
929.428	3157
929.533	3253
929.638	3116
929.743	3192
929.848	3256
929.953	3180
930.058	3135
930.163	3005
930.267	3005
930.372	3207
930.477	3039
930.581	3287
930.685	3154
930.79	3009
930.894	3123
930.998	3100
931.103	3268
931.207	2956
931.311	2937
931.415	2941
931.519	2758
931.623	2769
