Data from test_V78500241_327.txt Node
Date: Fri Mar 25 16:17:28 CST 2022
User: usil
Spectrometer: V785-0024
Trigger mode: 0
Integration Time (sec): 4.000000E-1
Scans to average: 1
Nonlinearity correction enabled: false
Boxcar width: 0
Storing dark spectrum: false
XAxis mode: Wavelengths
Number of Pixels in Spectrum: 1024
>>>>>Begin Spectral Data<<<<<
801.071	2929
801.214	2933
801.356	2914
801.499	2937
801.641	2937
801.783	2967
801.926	3112
802.068	3028
802.211	2990
802.353	3051
802.496	2967
802.638	3036
802.78	3043
802.923	3077
803.065	3013
803.208	2891
803.35	2967
803.492	2960
803.635	2925
803.777	2792
803.919	2876
804.061	3249
804.204	2948
804.346	2929
804.488	2876
804.63	2990
804.773	2883
804.915	2933
805.057	3116
805.199	2922
805.341	2979
805.483	3100
805.626	3017
805.768	2967
805.91	3119
806.052	3131
806.194	3024
806.336	3249
806.478	3036
806.62	2986
806.762	2982
806.904	3047
807.046	3127
807.188	2971
807.33	2922
807.472	2990
807.614	2918
807.756	3001
807.898	2944
808.04	2887
808.182	2982
808.324	2971
808.465	2887
808.607	2868
808.749	2807
808.891	2861
809.033	2979
809.174	2990
809.316	2922
809.458	2895
809.6	2788
809.741	2830
809.883	2769
810.025	2864
810.166	2883
810.308	2853
810.45	2857
810.591	2785
810.733	2785
810.875	2849
811.016	2830
811.158	2754
811.299	2826
811.441	2944
811.582	2902
811.724	2804
811.865	2842
812.007	2906
812.148	2899
812.29	2861
812.431	2880
812.573	2994
812.714	2998
812.855	3051
812.997	3062
813.138	3131
813.279	3051
813.421	2948
813.562	2975
813.703	2887
813.845	2891
813.986	2769
814.127	2731
814.268	2842
814.41	2857
814.551	2815
814.692	2883
814.833	2838
814.974	2906
815.115	2979
815.256	2834
815.397	2819
815.539	2842
815.68	2773
815.821	2792
815.962	2963
816.103	2994
816.244	2864
816.385	2895
816.526	2956
816.666	2914
816.807	2754
816.948	2883
817.089	2922
817.23	2883
817.371	2815
817.512	2804
817.653	2853
817.793	2811
817.934	2876
818.075	2982
818.216	2990
818.356	2982
818.497	2929
818.638	2845
818.778	2830
818.919	2830
819.06	2804
819.2	2925
819.341	2849
819.481	2792
819.622	2944
819.762	3097
819.903	3062
820.043	2929
820.184	2891
820.324	2910
820.465	3024
820.605	3032
820.746	3047
820.886	2975
821.026	3104
821.167	3176
821.307	3237
821.447	3283
821.588	3249
821.728	3207
821.868	3180
822.008	3070
822.149	3214
822.289	3195
822.429	3062
822.569	3081
822.709	3203
822.849	3074
822.99	3066
823.13	3165
823.27	3199
823.41	3146
823.55	3176
823.69	3127
823.83	3226
823.97	3108
824.11	3017
824.25	2975
824.389	3081
824.529	3070
824.669	3077
824.809	3161
824.949	3249
825.089	3214
825.228	3165
825.368	3032
825.508	2944
825.648	2933
825.787	3020
825.927	3066
826.067	2922
826.206	2998
826.346	3062
826.485	3112
826.625	3131
826.765	3275
826.904	3211
827.044	3001
827.183	2990
827.323	2876
827.462	3009
827.601	2906
827.741	2937
827.88	2967
828.02	2880
828.159	2952
828.298	2986
828.437	3138
828.577	3058
828.716	3230
828.855	3047
828.994	2906
829.134	2895
829.273	2918
829.412	2872
829.551	2895
829.69	2861
829.829	2990
829.968	3123
830.107	3009
830.246	3039
830.385	2922
830.524	2876
830.663	2845
830.802	2746
830.941	2632
831.08	2667
831.219	2785
831.357	2750
831.496	2986
831.635	2762
831.774	2659
831.913	2682
832.051	2587
832.19	2579
832.329	2708
832.467	2537
832.606	2446
832.744	2583
832.883	2594
833.022	2579
833.16	2644
833.299	2701
833.437	2735
833.576	2693
833.714	2689
833.852	2743
833.991	2758
834.129	2792
834.267	2849
834.406	2792
834.544	2891
834.682	2887
834.821	2876
834.959	3066
835.097	2895
835.235	3051
835.373	2975
835.511	2998
835.65	2971
835.788	2944
835.926	2819
836.064	2826
836.202	2883
836.34	3085
836.478	3142
836.615	3085
836.753	3127
836.891	3222
837.029	3176
837.167	3070
837.305	3104
837.443	3062
837.58	2975
837.718	3131
837.856	3074
837.993	3036
838.131	3108
838.269	3093
838.406	3100
838.544	3089
838.681	2941
838.819	2929
838.956	2834
839.094	2826
839.231	2899
839.369	3001
839.506	3393
839.643	3226
839.781	3013
839.918	3009
840.055	3043
840.193	3066
840.33	3055
840.467	3104
840.604	3165
840.742	3412
840.879	3058
841.016	3058
841.153	3173
841.29	3321
841.427	3355
841.564	3268
841.701	3332
841.838	3264
841.975	3230
842.112	3275
842.249	3127
842.385	3081
842.522	3302
842.659	3131
842.796	3123
842.933	3127
843.069	3093
843.206	3081
843.343	3214
843.479	3135
843.616	3199
843.752	2910
843.889	2906
844.025	3127
844.162	2941
844.298	3112
844.435	2990
844.571	2937
844.708	3119
844.844	3218
844.98	3268
845.117	3226
845.253	3131
845.389	3009
845.525	3146
845.661	3135
845.798	3093
845.934	3233
846.07	3100
846.206	3260
846.342	3359
846.478	3245
846.614	3176
846.75	3104
846.886	3074
847.022	3302
847.158	3161
847.294	3245
847.429	3279
847.565	3264
847.701	3515
847.837	3070
847.972	3066
848.108	3203
848.244	3169
848.379	3032
848.515	2960
848.65	2960
848.786	3009
848.921	3062
849.057	3169
849.192	3218
849.328	3112
849.463	3150
849.598	3131
849.734	3097
849.869	3036
850.004	3013
850.14	2990
850.275	2933
850.41	2902
850.545	2922
850.68	2956
850.815	2963
850.95	2994
851.085	3192
851.22	3131
851.355	3077
851.49	3036
851.625	3051
851.76	3058
851.895	2960
852.03	2971
852.165	3043
852.299	3154
852.434	3203
852.569	3207
852.703	3226
852.838	3317
852.973	3363
853.107	3363
853.242	3203
853.376	3150
853.511	3024
853.645	3074
853.78	3302
853.914	3150
854.048	3192
854.183	3119
854.317	3154
854.451	3317
854.585	3199
854.72	3116
854.854	3260
854.988	3104
855.122	3112
855.256	3043
855.39	3131
855.524	3249
855.658	3230
855.792	3199
855.926	3230
856.06	3306
856.194	3298
856.327	3230
856.461	3097
856.595	3097
856.729	3123
856.862	3249
856.996	3211
857.13	3211
857.263	3233
857.397	3283
857.53	3119
857.664	3230
857.797	3256
857.931	3302
858.064	3150
858.197	3237
858.331	3157
858.464	3108
858.597	3051
858.731	3154
858.864	3131
858.997	3093
859.13	3165
859.263	3192
859.396	3260
859.529	3112
859.662	3146
859.795	3100
859.928	3154
860.061	3291
860.194	3321
860.327	3173
860.46	3150
860.592	3260
860.725	3317
860.858	3283
860.99	3138
861.123	3089
861.256	3081
861.388	3180
861.521	3876
861.653	3058
861.786	3043
861.918	3043
862.05	3097
862.183	3123
862.315	3165
862.447	3249
862.58	3154
862.712	2956
862.844	2910
862.976	3032
863.108	3036
863.24	3332
863.372	2948
863.504	2982
863.636	2982
863.768	3077
863.9	2998
864.032	2929
864.164	3005
864.296	3051
864.428	3146
864.559	3116
864.691	3116
864.823	3100
864.954	3066
865.086	3104
865.217	3081
865.349	3001
865.48	3051
865.612	3077
865.743	3180
865.875	3051
866.006	2994
866.137	3017
866.269	2998
866.4	2960
866.531	2952
866.662	2944
866.793	2906
866.924	2937
867.055	2982
867.186	2937
867.317	2918
867.448	2880
867.579	2876
867.71	2872
867.841	2842
867.972	2914
868.103	2925
868.233	2941
868.364	2880
868.495	2960
868.625	3089
868.756	3184
868.886	2956
869.017	3036
869.147	3218
869.278	3195
869.408	3032
869.539	3070
869.669	3116
869.799	3028
869.929	3184
870.06	3119
870.19	3348
870.32	3313
870.45	3321
870.58	3405
870.71	3477
870.84	3488
870.97	3313
871.1	3291
871.23	3458
871.36	3450
871.489	3389
871.619	3492
871.749	3428
871.879	3492
872.008	3496
872.138	3351
872.267	3302
872.397	3192
872.526	3108
872.656	3047
872.785	3138
872.915	3253
873.044	3355
873.173	3245
873.303	3279
873.432	3294
873.561	3275
873.69	3237
873.819	3138
873.948	3230
874.077	3131
874.206	3077
874.335	3100
874.464	3222
874.593	3370
874.722	3272
874.851	3382
874.979	3374
875.108	3325
875.237	3203
875.365	3199
875.494	3207
875.623	3249
875.751	3127
875.88	3135
876.008	3226
876.136	3241
876.265	3405
876.393	3523
876.521	3443
876.65	3412
876.778	3348
876.906	3291
877.034	3207
877.162	3249
877.29	3184
877.418	3272
877.546	3253
877.674	3302
877.802	3260
877.93	3249
878.058	3180
878.185	3138
878.313	3211
878.441	3249
878.568	3119
878.696	3211
878.824	3291
878.951	3374
879.079	3466
879.206	3641
879.333	3428
879.461	3329
879.588	3378
879.715	3538
879.842	3625
879.97	3378
880.097	3184
880.224	3169
880.351	3188
880.478	3253
880.605	3218
880.732	3233
880.859	3549
880.986	3313
881.112	3405
881.239	3237
881.366	3093
881.493	3055
881.619	3055
881.746	3100
881.872	3138
881.999	3085
882.125	3135
882.252	3313
882.378	3294
882.505	3431
882.631	3310
882.757	3169
882.883	3256
883.01	3272
883.136	3157
883.262	3127
883.388	3146
883.514	3340
883.64	3370
883.766	3340
883.892	3180
884.018	3272
884.143	3450
884.269	3557
884.395	3203
884.52	3180
884.646	3211
884.772	3116
884.897	3131
885.023	3253
885.148	3370
885.274	3458
885.399	3378
885.524	3329
885.65	3283
885.775	3359
885.9	3321
886.025	3447
886.15	3420
886.275	3359
886.4	3233
886.525	3340
886.65	3306
886.775	3306
886.9	3534
887.025	3641
887.149	3447
887.274	3298
887.399	3207
887.523	3214
887.648	3207
887.773	3192
887.897	3378
888.021	3458
888.146	3302
888.27	3447
888.395	3545
888.519	3500
888.643	3450
888.767	3447
888.891	3355
889.015	3264
889.139	3302
889.263	3256
889.387	3477
889.511	3542
889.635	3454
889.759	3275
889.883	3336
890.006	3401
890.13	3549
890.254	3306
890.377	3370
890.501	3226
890.624	3195
890.748	3340
890.871	3253
890.995	3135
891.118	3093
891.241	3233
891.364	3237
891.488	3332
891.611	3161
891.734	3195
891.857	3298
891.98	3260
892.103	3397
892.226	3298
892.349	3253
892.471	3161
892.594	3279
892.717	3298
892.839	3268
892.962	3325
893.085	3416
893.207	3321
893.33	3184
893.452	3226
893.575	3344
893.697	3256
893.819	3458
893.941	3523
894.064	3450
894.186	3329
894.308	3306
894.43	3504
894.552	3507
894.674	3519
894.796	3336
894.918	3336
895.04	3310
895.161	3431
895.283	3363
895.405	3332
895.526	3386
895.648	3443
895.769	3439
895.891	3477
896.012	3469
896.134	3485
896.255	3416
896.376	3416
896.498	3351
896.619	3450
896.74	3378
896.861	3405
896.982	3720
897.103	3873
897.224	3629
897.345	3519
897.466	3454
897.587	3481
897.708	3663
897.828	3561
897.949	3443
898.07	3367
898.19	3409
898.311	3644
898.431	3500
898.552	3511
898.672	3587
898.792	3561
898.913	3511
899.033	3428
899.153	3321
899.273	3218
899.393	3310
899.513	3332
899.633	3348
899.753	3363
899.873	3321
899.993	3367
900.113	3325
900.232	3382
900.352	3367
900.472	3294
900.591	3203
900.711	3310
900.83	3237
900.95	3420
901.069	3511
901.189	3348
901.308	3214
901.427	3119
901.546	3188
901.665	3302
901.784	3321
901.904	3233
902.023	3146
902.141	3028
902.26	3047
902.379	3123
902.498	3104
902.617	3043
902.735	3241
902.854	3272
902.973	3237
903.091	3066
903.21	3077
903.328	3138
903.446	3127
903.565	3108
903.683	3222
903.801	3123
903.919	3287
904.038	3287
904.156	3203
904.274	3298
904.392	3272
904.51	3329
904.627	3313
904.745	3469
904.863	3488
904.981	3241
905.098	3169
905.216	3283
905.334	3298
905.451	3336
905.569	3310
905.686	3439
905.803	3458
905.921	3317
906.038	3424
906.155	3348
906.272	3310
906.389	3329
906.506	3230
906.623	3287
906.74	3272
906.857	3180
906.974	3272
907.091	3492
907.208	3603
907.324	3481
907.441	3382
907.557	3214
907.674	3237
907.79	3249
907.907	3291
908.023	3389
908.139	3409
908.256	3336
908.372	3424
908.488	3340
908.604	3283
908.72	3241
908.836	3313
908.952	3275
909.068	3344
909.184	3519
909.3	3416
909.415	3515
909.531	3515
909.647	3283
909.762	3317
909.878	3313
909.993	3393
910.108	3351
910.224	3321
910.339	3412
910.454	3336
910.57	3313
910.685	3222
910.8	3587
910.915	3580
911.03	3450
911.145	3275
911.259	3275
911.374	3325
911.489	3264
911.604	3180
911.718	3157
911.833	3150
911.947	3024
912.062	3013
912.176	3161
912.291	3180
912.405	3203
912.519	3450
912.633	3477
912.748	3329
912.862	3313
912.976	3192
913.09	3066
913.204	3142
913.318	3230
913.431	3329
913.545	3344
913.659	3435
913.772	3370
913.886	3218
914	3214
914.113	3363
914.226	3424
914.34	3382
914.453	3211
914.566	3412
914.68	3363
914.793	3325
914.906	3146
915.019	3135
915.132	3119
915.245	3161
915.358	3184
915.47	3230
915.583	3264
915.696	3313
915.809	3416
915.921	3431
916.034	3245
916.146	3233
916.259	3268
916.371	3382
916.483	3351
916.595	3336
916.708	3329
916.82	3332
916.932	3344
917.044	3344
917.156	3332
917.268	3275
917.38	3302
917.491	3272
917.603	3382
917.715	3469
917.826	3469
917.938	3382
918.049	3287
918.161	3435
918.272	3549
918.384	3637
918.495	3473
918.606	3317
918.717	3279
918.828	3393
918.939	3382
919.05	3256
919.161	3389
919.272	3161
919.383	3310
919.494	3530
919.604	3690
919.715	3488
919.826	3397
919.936	3488
920.047	3637
920.157	3591
920.267	3766
920.378	3614
920.488	3584
920.598	3804
920.708	3975
920.818	3827
920.928	3823
921.038	4090
921.148	4010
921.258	3713
921.368	3656
921.477	3587
921.587	3534
921.697	3466
921.806	3641
921.916	3572
922.025	3359
922.134	3363
922.244	3344
922.353	3435
922.462	3298
922.571	3241
922.68	3116
922.789	3100
922.898	3104
923.007	3085
923.116	3184
923.224	3195
923.333	3192
923.442	3089
923.55	3116
923.659	3097
923.767	3256
923.876	3097
923.984	3241
924.092	3116
924.201	3180
924.309	3237
924.417	3264
924.525	3165
924.633	3233
924.741	4177
924.849	3062
924.956	3287
925.064	3108
925.172	3051
925.279	3116
925.387	3214
925.494	3207
925.602	3355
925.709	3313
925.816	3176
925.924	3310
926.031	3359
926.138	3306
926.245	3359
926.352	3237
926.459	3405
926.566	3454
926.673	3306
926.779	3233
926.886	3253
926.993	3188
927.099	3131
927.206	3127
927.312	3135
927.419	3241
927.525	3237
927.631	3279
927.737	3138
927.843	3123
927.95	3043
928.056	3146
928.162	3195
928.267	3260
928.373	3907
928.479	3336
928.585	3055
928.69	3249
928.796	3272
928.901	3192
929.007	3036
929.112	3230
929.218	3226
929.323	3165
929.428	3157
929.533	3313
929.638	3138
929.743	3142
929.848	3222
929.953	3184
930.058	3131
930.163	3013
930.267	3047
930.372	3169
930.477	3058
930.581	3313
930.685	3169
930.79	3081
930.894	3108
930.998	3093
931.103	3264
931.207	2982
931.311	2956
931.415	2929
931.519	2762
931.623	2804
