Data from test_V78500241_1595.txt Node
Date: Fri Mar 25 16:26:15 CST 2022
User: usil
Spectrometer: V785-0024
Trigger mode: 0
Integration Time (sec): 4.000000E-1
Scans to average: 1
Nonlinearity correction enabled: false
Boxcar width: 0
Storing dark spectrum: false
XAxis mode: Wavelengths
Number of Pixels in Spectrum: 1024
>>>>>Begin Spectral Data<<<<<
801.071	2933
801.214	2963
801.356	2891
801.499	2906
801.641	2899
801.783	2952
801.926	3100
802.068	2967
802.211	3020
802.353	3055
802.496	2937
802.638	3013
802.78	3036
802.923	3116
803.065	3032
803.208	2910
803.35	2937
803.492	2933
803.635	2956
803.777	2769
803.919	2849
804.061	3237
804.204	2948
804.346	2899
804.488	2849
804.63	2986
804.773	2876
804.915	2887
805.057	3077
805.199	2944
805.341	2979
805.483	3001
805.626	3032
805.768	2975
805.91	3104
806.052	3142
806.194	3036
806.336	3245
806.478	3020
806.62	2979
806.762	2971
806.904	3047
807.046	3203
807.188	3001
807.33	2902
807.472	3039
807.614	2914
807.756	2963
807.898	2937
808.04	2902
808.182	2979
808.324	2933
808.465	2876
808.607	2895
808.749	2796
808.891	2887
809.033	2982
809.174	2971
809.316	2914
809.458	2922
809.6	2792
809.741	2823
809.883	2792
810.025	2826
810.166	2857
810.308	2861
810.45	2864
810.591	2743
810.733	2773
810.875	2826
811.016	2800
811.158	2766
811.299	2823
811.441	2952
811.582	2891
811.724	2823
811.865	2853
812.007	2899
812.148	2906
812.29	2864
812.431	2883
812.573	2944
812.714	2956
812.855	3047
812.997	3051
813.138	3119
813.279	3024
813.421	2998
813.562	2941
813.703	2861
813.845	2899
813.986	2777
814.127	2724
814.268	2842
814.41	2849
814.551	2807
814.692	2876
814.833	2815
814.974	2906
815.115	2941
815.256	2834
815.397	2830
815.539	2857
815.68	2792
815.821	2785
815.962	2971
816.103	2918
816.244	2861
816.385	2853
816.526	2986
816.666	2941
816.807	2777
816.948	2887
817.089	2891
817.23	2845
817.371	2781
817.512	2819
817.653	2857
817.793	2823
817.934	2899
818.075	2990
818.216	3017
818.356	3047
818.497	2876
818.638	2830
818.778	2815
818.919	2788
819.06	2769
819.2	2910
819.341	2819
819.481	2800
819.622	2933
819.762	3104
819.903	3039
820.043	2925
820.184	2925
820.324	2872
820.465	3001
820.605	3009
820.746	3024
820.886	2925
821.026	3100
821.167	3161
821.307	3272
821.447	3279
821.588	3226
821.728	3226
821.868	3199
822.008	3058
822.149	3199
822.289	3214
822.429	3093
822.569	3085
822.709	3165
822.849	3039
822.99	3081
823.13	3176
823.27	3218
823.41	3108
823.55	3123
823.69	3157
823.83	3165
823.97	3074
824.11	3017
824.25	2979
824.389	3043
824.529	3112
824.669	3058
824.809	3199
824.949	3253
825.089	3260
825.228	3184
825.368	3032
825.508	2967
825.648	2971
825.787	3032
825.927	3032
826.067	3020
826.206	2963
826.346	3017
826.485	3066
826.625	3112
826.765	3249
826.904	3207
827.044	2941
827.183	2979
827.323	2861
827.462	2975
827.601	2925
827.741	2899
827.88	2944
828.02	2864
828.159	2967
828.298	3055
828.437	3119
828.577	3017
828.716	3226
828.855	3077
828.994	2933
829.134	2864
829.273	2956
829.412	2864
829.551	2902
829.69	2864
829.829	2994
829.968	3131
830.107	2975
830.246	3036
830.385	2925
830.524	2876
830.663	2792
830.802	2762
830.941	2636
831.08	2674
831.219	2777
831.357	2758
831.496	2925
831.635	2750
831.774	2682
831.913	2648
832.051	2537
832.19	2587
832.329	2689
832.467	2518
832.606	2480
832.744	2549
832.883	2590
833.022	2583
833.16	2655
833.299	2663
833.437	2705
833.576	2678
833.714	2720
833.852	2762
833.991	2758
834.129	2826
834.267	2823
834.406	2788
834.544	2853
834.682	2880
834.821	2861
834.959	3055
835.097	2895
835.235	3077
835.373	2979
835.511	3028
835.65	2975
835.788	2952
835.926	2815
836.064	2853
836.202	2861
836.34	3089
836.478	3154
836.615	3017
836.753	3154
836.891	3214
837.029	3146
837.167	3135
837.305	3043
837.443	3077
837.58	2952
837.718	3123
837.856	3024
837.993	3043
838.131	3131
838.269	3062
838.406	3100
838.544	3093
838.681	2956
838.819	2922
838.956	2811
839.094	2838
839.231	2960
839.369	3066
839.506	3363
839.643	3199
839.781	3032
839.918	2967
840.055	3032
840.193	3055
840.33	3074
840.467	3108
840.604	3157
840.742	3416
840.879	3024
841.016	3051
841.153	3112
841.29	3336
841.427	3294
841.564	3253
841.701	3294
841.838	3226
841.975	3222
842.112	3222
842.249	3070
842.385	3024
842.522	3237
842.659	3074
842.796	3058
842.933	3070
843.069	3017
843.206	3043
843.343	3199
843.479	3123
843.616	3135
843.752	2937
843.889	2880
844.025	3070
844.162	2876
844.298	3058
844.435	2918
844.571	2899
844.708	3055
844.844	3207
844.98	3199
845.117	3203
845.253	3047
845.389	3009
845.525	3093
845.661	3135
845.798	3020
845.934	3112
846.07	3047
846.206	3169
846.342	3294
846.478	3222
846.614	3108
846.75	3020
846.886	3013
847.022	3230
847.158	3154
847.294	3214
847.429	3222
847.565	3226
847.701	3469
847.837	2994
847.972	3009
848.108	3150
848.244	3150
848.379	2910
848.515	2948
848.65	2937
848.786	2971
848.921	3013
849.057	3108
849.192	3157
849.328	3055
849.463	3081
849.598	3009
849.734	3036
849.869	2998
850.004	2910
850.14	2986
850.275	2944
850.41	2861
850.545	2864
850.68	2952
850.815	2971
850.95	2963
851.085	3195
851.22	3097
851.355	3043
851.49	2990
851.625	2956
851.76	3013
851.895	2933
852.03	2861
852.165	3017
852.299	3089
852.434	3207
852.569	3093
852.703	3176
852.838	3256
852.973	3378
853.107	3313
853.242	3169
853.376	3119
853.511	2963
853.645	3024
853.78	3226
853.914	3104
854.048	3093
854.183	3100
854.317	3176
854.451	3279
854.585	3131
854.72	3074
854.854	3211
854.988	3070
855.122	3085
855.256	2975
855.39	3157
855.524	3203
855.658	3192
855.792	3188
855.926	3203
856.06	3207
856.194	3279
856.327	3119
856.461	3058
856.595	3066
856.729	3089
856.862	3165
856.996	3169
857.13	3195
857.263	3230
857.397	3275
857.53	3176
857.664	3169
857.797	3195
857.931	3260
858.064	3180
858.197	3218
858.331	3161
858.464	3062
858.597	2994
858.731	3116
858.864	3135
858.997	3093
859.13	3146
859.263	3169
859.396	3230
859.529	3043
859.662	3081
859.795	3032
859.928	3123
860.061	3233
860.194	3306
860.327	3135
860.46	3081
860.592	3218
860.725	3256
860.858	3268
860.99	3066
861.123	3058
861.256	3051
861.388	3157
861.521	3857
861.653	3009
861.786	2971
861.918	2994
862.05	3081
862.183	3074
862.315	3192
862.447	3173
862.58	3127
862.712	2960
862.844	2876
862.976	2990
863.108	2982
863.24	3321
863.372	2861
863.504	2975
863.636	2941
863.768	2982
863.9	3005
864.032	2895
864.164	2956
864.296	3017
864.428	3066
864.559	3127
864.691	3051
864.823	3047
864.954	3077
865.086	3036
865.217	2948
865.349	2963
865.48	2982
865.612	3017
865.743	3131
865.875	2990
866.006	2948
866.137	2952
866.269	2963
866.4	2925
866.531	2937
866.662	2887
866.793	2887
866.924	2864
867.055	2960
867.186	2891
867.317	2861
867.448	2845
867.579	2826
867.71	2834
867.841	2838
867.972	2933
868.103	2880
868.233	2853
868.364	2849
868.495	2922
868.625	3062
868.756	3161
868.886	2975
869.017	3005
869.147	3154
869.278	3146
869.408	3039
869.539	3001
869.669	3062
869.799	3020
869.929	3116
870.06	3112
870.19	3332
870.32	3272
870.45	3302
870.58	3336
870.71	3435
870.84	3462
870.97	3275
871.1	3237
871.23	3504
871.36	3481
871.489	3332
871.619	3401
871.749	3382
871.879	3439
872.008	3454
872.138	3344
872.267	3272
872.397	3104
872.526	3089
872.656	2982
872.785	3074
872.915	3245
873.044	3287
873.173	3245
873.303	3256
873.432	3241
873.561	3226
873.69	3169
873.819	3154
873.948	3184
874.077	3100
874.206	3013
874.335	3077
874.464	3176
874.593	3317
874.722	3222
874.851	3355
874.979	3351
875.108	3329
875.237	3195
875.365	3135
875.494	3123
875.623	3214
875.751	3089
875.88	3131
876.008	3135
876.136	3203
876.265	3321
876.393	3542
876.521	3412
876.65	3370
876.778	3329
876.906	3230
877.034	3173
877.162	3241
877.29	3127
877.418	3233
877.546	3199
877.674	3249
877.802	3226
877.93	3249
878.058	3150
878.185	3062
878.313	3211
878.441	3211
878.568	3058
878.696	3157
878.824	3241
878.951	3283
879.079	3416
879.206	3587
879.333	3424
879.461	3332
879.588	3344
879.715	3454
879.842	3591
879.97	3363
880.097	3161
880.224	3047
880.351	3184
880.478	3230
880.605	3161
880.732	3157
880.859	3496
880.986	3268
881.112	3317
881.239	3199
881.366	3085
881.493	3017
881.619	3020
881.746	3074
881.872	3089
881.999	3112
882.125	3142
882.252	3222
882.378	3298
882.505	3424
882.631	3306
882.757	3161
882.883	3192
883.01	3218
883.136	3176
883.262	3077
883.388	3131
883.514	3321
883.64	3355
883.766	3313
883.892	3176
884.018	3237
884.143	3359
884.269	3553
884.395	3233
884.52	3154
884.646	3138
884.772	3089
884.897	3074
885.023	3207
885.148	3340
885.274	3416
885.399	3363
885.524	3279
885.65	3287
885.775	3306
885.9	3287
886.025	3409
886.15	3386
886.275	3275
886.4	3275
886.525	3302
886.65	3230
886.775	3249
886.9	3511
887.025	3633
887.149	3367
887.274	3275
887.399	3192
887.523	3214
887.648	3165
887.773	3188
887.897	3363
888.021	3416
888.146	3283
888.27	3409
888.395	3511
888.519	3412
888.643	3409
888.767	3447
888.891	3310
889.015	3237
889.139	3279
889.263	3233
889.387	3389
889.511	3507
889.635	3454
889.759	3283
889.883	3306
890.006	3378
890.13	3477
890.254	3264
890.377	3325
890.501	3154
890.624	3199
890.748	3279
890.871	3176
890.995	3135
891.118	3062
891.241	3180
891.364	3207
891.488	3317
891.611	3180
891.734	3214
891.857	3279
891.98	3222
892.103	3302
892.226	3287
892.349	3203
892.471	3089
892.594	3241
892.717	3268
892.839	3249
892.962	3283
893.085	3332
893.207	3321
893.33	3116
893.452	3184
893.575	3340
893.697	3237
893.819	3481
893.941	3496
894.064	3431
894.186	3279
894.308	3275
894.43	3424
894.552	3492
894.674	3469
894.796	3298
894.918	3340
895.04	3268
895.161	3450
895.283	3409
895.405	3310
895.526	3370
895.648	3454
895.769	3416
895.891	3466
896.012	3447
896.134	3424
896.255	3386
896.376	3374
896.498	3355
896.619	3363
896.74	3367
896.861	3386
896.982	3701
897.103	3850
897.224	3610
897.345	3500
897.466	3389
897.587	3492
897.708	3572
897.828	3568
897.949	3424
898.07	3355
898.19	3374
898.311	3595
898.431	3458
898.552	3530
898.672	3580
898.792	3549
898.913	3500
899.033	3439
899.153	3298
899.273	3195
899.393	3275
899.513	3264
899.633	3317
899.753	3355
899.873	3264
899.993	3382
900.113	3351
900.232	3393
900.352	3336
900.472	3302
900.591	3199
900.711	3283
900.83	3268
900.95	3439
901.069	3443
901.189	3325
901.308	3142
901.427	3119
901.546	3188
901.665	3298
901.784	3317
901.904	3214
902.023	3154
902.141	3036
902.26	2979
902.379	3131
902.498	3093
902.617	3028
902.735	3195
902.854	3222
902.973	3146
903.091	3055
903.21	3074
903.328	3161
903.446	3112
903.565	3104
903.683	3188
903.801	3138
903.919	3249
904.038	3233
904.156	3142
904.274	3264
904.392	3249
904.51	3298
904.627	3351
904.745	3420
904.863	3469
904.981	3249
905.098	3184
905.216	3233
905.334	3291
905.451	3279
905.569	3325
905.686	3405
905.803	3424
905.921	3249
906.038	3431
906.155	3359
906.272	3214
906.389	3340
906.506	3195
906.623	3283
906.74	3226
906.857	3176
906.974	3264
907.091	3450
907.208	3572
907.324	3500
907.441	3363
907.557	3211
907.674	3188
907.79	3226
907.907	3275
908.023	3382
908.139	3374
908.256	3344
908.372	3351
908.488	3359
908.604	3253
908.72	3203
908.836	3256
908.952	3241
909.068	3329
909.184	3492
909.3	3382
909.415	3507
909.531	3462
909.647	3272
909.762	3279
909.878	3256
909.993	3363
910.108	3321
910.224	3291
910.339	3401
910.454	3306
910.57	3306
910.685	3233
910.8	3561
910.915	3488
911.03	3389
911.145	3226
911.259	3287
911.374	3279
911.489	3256
911.604	3214
911.718	3104
911.833	3104
911.947	3032
912.062	2937
912.176	3157
912.291	3176
912.405	3211
912.519	3412
912.633	3439
912.748	3279
912.862	3222
912.976	3150
913.09	3077
913.204	3127
913.318	3176
913.431	3336
913.545	3283
913.659	3416
913.772	3363
913.886	3218
914	3192
914.113	3344
914.226	3405
914.34	3355
914.453	3245
914.566	3409
914.68	3283
914.793	3287
914.906	3165
915.019	3123
915.132	3077
915.245	3207
915.358	3195
915.47	3256
915.583	3279
915.696	3291
915.809	3416
915.921	3458
916.034	3283
916.146	3283
916.259	3237
916.371	3393
916.483	3412
916.595	3287
916.708	3332
916.82	3340
916.932	3355
917.044	3382
917.156	3363
917.268	3302
917.38	3321
917.491	3313
917.603	3386
917.715	3485
917.826	3500
917.938	3435
918.049	3317
918.161	3439
918.272	3580
918.384	3591
918.495	3507
918.606	3374
918.717	3329
918.828	3409
918.939	3492
919.05	3332
919.161	3405
919.272	3207
919.383	3321
919.494	3549
919.604	3713
919.715	3492
919.826	3447
919.936	3523
920.047	3610
920.157	3584
920.267	3804
920.378	3660
920.488	3584
920.598	3808
920.708	4025
920.818	3850
920.928	3842
921.038	4090
921.148	4063
921.258	3728
921.368	3705
921.477	3644
921.587	3561
921.697	3454
921.806	3694
921.916	3568
922.025	3382
922.134	3420
922.244	3340
922.353	3500
922.462	3310
922.571	3268
922.68	3146
922.789	3123
922.898	3188
923.007	3150
923.116	3207
923.224	3264
923.333	3226
923.442	3119
923.55	3131
923.659	3188
923.767	3291
923.876	3173
923.984	3275
924.092	3161
924.201	3214
924.309	3264
924.417	3306
924.525	3237
924.633	3264
924.741	4215
924.849	3097
924.956	3283
925.064	3146
925.172	3062
925.279	3089
925.387	3226
925.494	3233
925.602	3412
925.709	3344
925.816	3226
925.924	3325
926.031	3393
926.138	3340
926.245	3397
926.352	3279
926.459	3454
926.566	3466
926.673	3344
926.779	3306
926.886	3306
926.993	3169
927.099	3127
927.206	3150
927.312	3150
927.419	3279
927.525	3218
927.631	3294
927.737	3157
927.843	3142
927.95	3066
928.056	3157
928.162	3211
928.267	3287
928.373	3880
928.479	3344
928.585	3097
928.69	3272
928.796	3321
928.901	3218
929.007	3097
929.112	3230
929.218	3226
929.323	3173
929.428	3184
929.533	3359
929.638	3184
929.743	3173
929.848	3329
929.953	3195
930.058	3184
930.163	3020
930.267	3097
930.372	3268
930.477	3051
930.581	3332
930.685	3218
930.79	3093
930.894	3142
930.998	3135
931.103	3321
931.207	2967
931.311	3005
931.415	2952
931.519	2800
931.623	2811
