Data from test_V78500241_1848.txt Node
Date: Fri Mar 25 16:28:00 CST 2022
User: usil
Spectrometer: V785-0024
Trigger mode: 0
Integration Time (sec): 4.000000E-1
Scans to average: 1
Nonlinearity correction enabled: false
Boxcar width: 0
Storing dark spectrum: false
XAxis mode: Wavelengths
Number of Pixels in Spectrum: 1024
>>>>>Begin Spectral Data<<<<<
801.071	2952
801.214	2906
801.356	2876
801.499	2891
801.641	2853
801.783	2922
801.926	3062
802.068	2944
802.211	2990
802.353	3020
802.496	2937
802.638	2994
802.78	3074
802.923	3085
803.065	2960
803.208	2891
803.35	2933
803.492	2925
803.635	2929
803.777	2773
803.919	2834
804.061	3199
804.204	2963
804.346	2918
804.488	2842
804.63	2952
804.773	2868
804.915	2864
805.057	3081
805.199	2925
805.341	2956
805.483	3032
805.626	2967
805.768	2925
805.91	3062
806.052	3116
806.194	3039
806.336	3233
806.478	3043
806.62	2914
806.762	2948
806.904	3077
807.046	3119
807.188	2956
807.33	2906
807.472	3001
807.614	2895
807.756	2967
807.898	2925
808.04	2914
808.182	2960
808.324	2887
808.465	2864
808.607	2872
808.749	2754
808.891	2838
809.033	2982
809.174	2960
809.316	2910
809.458	2868
809.6	2762
809.741	2781
809.883	2735
810.025	2845
810.166	2823
810.308	2811
810.45	2853
810.591	2781
810.733	2785
810.875	2819
811.016	2750
811.158	2785
811.299	2792
811.441	2914
811.582	2864
811.724	2830
811.865	2834
812.007	2906
812.148	2887
812.29	2845
812.431	2880
812.573	2944
812.714	2948
812.855	3020
812.997	3058
813.138	3112
813.279	3032
813.421	2990
813.562	2948
813.703	2853
813.845	2910
813.986	2773
814.127	2750
814.268	2800
814.41	2838
814.551	2773
814.692	2864
814.833	2804
814.974	2853
815.115	2922
815.256	2868
815.397	2811
815.539	2868
815.68	2750
815.821	2811
815.962	2925
816.103	2925
816.244	2887
816.385	2891
816.526	2956
816.666	2861
816.807	2758
816.948	2872
817.089	2891
817.23	2853
817.371	2788
817.512	2792
817.653	2834
817.793	2796
817.934	2910
818.075	2960
818.216	2979
818.356	3005
818.497	2842
818.638	2800
818.778	2811
818.919	2819
819.06	2731
819.2	2887
819.341	2804
819.481	2811
819.622	2922
819.762	3074
819.903	3009
820.043	2918
820.184	2902
820.324	2899
820.465	2990
820.605	3043
820.746	3028
820.886	2914
821.026	3108
821.167	3188
821.307	3260
821.447	3310
821.588	3203
821.728	3165
821.868	3241
822.008	3036
822.149	3173
822.289	3245
822.429	3100
822.569	3093
822.709	3142
822.849	3009
822.99	3058
823.13	3146
823.27	3195
823.41	3138
823.55	3154
823.69	3157
823.83	3157
823.97	3104
824.11	2960
824.25	2963
824.389	3051
824.529	3100
824.669	3028
824.809	3192
824.949	3245
825.089	3211
825.228	3150
825.368	3013
825.508	2956
825.648	2948
825.787	3020
825.927	3024
826.067	2902
826.206	2914
826.346	3036
826.485	3009
826.625	3100
826.765	3260
826.904	3142
827.044	2994
827.183	2925
827.323	2845
827.462	2956
827.601	2910
827.741	2906
827.88	2952
828.02	2838
828.159	2948
828.298	3077
828.437	3100
828.577	3036
828.716	3222
828.855	3070
828.994	2883
829.134	2914
829.273	2922
829.412	2849
829.551	2861
829.69	2906
829.829	2998
829.968	3112
830.107	3001
830.246	3009
830.385	2925
830.524	2895
830.663	2796
830.802	2708
830.941	2648
831.08	2648
831.219	2781
831.357	2743
831.496	2963
831.635	2693
831.774	2629
831.913	2655
832.051	2564
832.19	2564
832.329	2651
832.467	2530
832.606	2457
832.744	2541
832.883	2579
833.022	2602
833.16	2629
833.299	2678
833.437	2667
833.576	2720
833.714	2693
833.852	2712
833.991	2750
834.129	2868
834.267	2819
834.406	2773
834.544	2864
834.682	2853
834.821	2861
834.959	3051
835.097	2861
835.235	3020
835.373	2982
835.511	3009
835.65	2967
835.788	2963
835.926	2807
836.064	2804
836.202	2845
836.34	3093
836.478	3138
836.615	3039
836.753	3123
836.891	3222
837.029	3123
837.167	3077
837.305	3043
837.443	3047
837.58	2960
837.718	3089
837.856	3066
837.993	3028
838.131	3116
838.269	3097
838.406	3112
838.544	3077
838.681	2933
838.819	2872
838.956	2788
839.094	2811
839.231	2895
839.369	2986
839.506	3367
839.643	3165
839.781	3036
839.918	2971
840.055	3036
840.193	3028
840.33	3036
840.467	3066
840.604	3157
840.742	3412
840.879	3032
841.016	3017
841.153	3104
841.29	3313
841.427	3302
841.564	3260
841.701	3256
841.838	3199
841.975	3157
842.112	3207
842.249	3123
842.385	3024
842.522	3256
842.659	3070
842.796	3024
842.933	3104
843.069	3055
843.206	3062
843.343	3218
843.479	3112
843.616	3104
843.752	2880
843.889	2876
844.025	3047
844.162	2891
844.298	3058
844.435	2933
844.571	2887
844.708	3051
844.844	3169
844.98	3260
845.117	3169
845.253	3089
845.389	2967
845.525	3066
845.661	3123
845.798	3020
845.934	3108
846.07	3032
846.206	3253
846.342	3291
846.478	3237
846.614	3058
846.75	3058
846.886	3005
847.022	3230
847.158	3161
847.294	3199
847.429	3230
847.565	3184
847.701	3462
847.837	3074
847.972	2986
848.108	3169
848.244	3131
848.379	2960
848.515	2925
848.65	2922
848.786	2956
848.921	2998
849.057	3100
849.192	3127
849.328	3066
849.463	3077
849.598	3043
849.734	3017
849.869	2971
850.004	2899
850.14	2922
850.275	2883
850.41	2845
850.545	2857
850.68	2929
850.815	2952
850.95	2963
851.085	3176
851.22	3081
851.355	3032
851.49	2994
851.625	2990
851.76	3001
851.895	2929
852.03	2902
852.165	3028
852.299	3116
852.434	3161
852.569	3112
852.703	3180
852.838	3222
852.973	3298
853.107	3291
853.242	3150
853.376	3066
853.511	2952
853.645	3001
853.78	3237
853.914	3108
854.048	3100
854.183	3074
854.317	3165
854.451	3264
854.585	3127
854.72	3066
854.854	3169
854.988	3047
855.122	3100
855.256	2982
855.39	3081
855.524	3233
855.658	3192
855.792	3138
855.926	3154
856.06	3214
856.194	3218
856.327	3123
856.461	3066
856.595	3074
856.729	3089
856.862	3207
856.996	3142
857.13	3184
857.263	3245
857.397	3260
857.53	3097
857.664	3184
857.797	3226
857.931	3241
858.064	3123
858.197	3203
858.331	3165
858.464	3097
858.597	2998
858.731	3104
858.864	3119
858.997	3081
859.13	3135
859.263	3161
859.396	3211
859.529	3058
859.662	3066
859.795	3036
859.928	3157
860.061	3260
860.194	3279
860.327	3165
860.46	3070
860.592	3264
860.725	3237
860.858	3233
860.99	3116
861.123	3058
861.256	3013
861.388	3112
861.521	3816
861.653	3020
861.786	2963
861.918	3017
862.05	3077
862.183	3089
862.315	3176
862.447	3214
862.58	3062
862.712	2952
862.844	2864
862.976	3020
863.108	2994
863.24	3447
863.372	2891
863.504	2979
863.636	2941
863.768	3043
863.9	2994
864.032	2918
864.164	2963
864.296	2971
864.428	3093
864.559	3104
864.691	3013
864.823	3036
864.954	3009
865.086	3039
865.217	2971
865.349	2986
865.48	2998
865.612	2994
865.743	3146
865.875	2963
866.006	2941
866.137	2925
866.269	2956
866.4	2925
866.531	2883
866.662	2922
866.793	2899
866.924	2941
867.055	2937
867.186	2963
867.317	2899
867.448	2785
867.579	2819
867.71	2849
867.841	2834
867.972	2876
868.103	2887
868.233	2853
868.364	2861
868.495	2922
868.625	3074
868.756	3150
868.886	2967
869.017	3009
869.147	3173
869.278	3180
869.408	3039
869.539	3028
869.669	3077
869.799	3024
869.929	3104
870.06	3093
870.19	3298
870.32	3237
870.45	3294
870.58	3382
870.71	3435
870.84	3431
870.97	3268
871.1	3245
871.23	3469
871.36	3401
871.489	3294
871.619	3416
871.749	3439
871.879	3420
872.008	3488
872.138	3325
872.267	3272
872.397	3154
872.526	3097
872.656	3020
872.785	3047
872.915	3237
873.044	3313
873.173	3199
873.303	3245
873.432	3230
873.561	3211
873.69	3173
873.819	3165
873.948	3176
874.077	3135
874.206	3032
874.335	3070
874.464	3188
874.593	3367
874.722	3218
874.851	3363
874.979	3351
875.108	3325
875.237	3184
875.365	3176
875.494	3173
875.623	3184
875.751	3058
875.88	3081
876.008	3188
876.136	3207
876.265	3374
876.393	3504
876.521	3424
876.65	3393
876.778	3370
876.906	3272
877.034	3218
877.162	3203
877.29	3180
877.418	3241
877.546	3241
877.674	3192
877.802	3211
877.93	3218
878.058	3127
878.185	3097
878.313	3154
878.441	3188
878.568	3039
878.696	3123
878.824	3230
878.951	3275
879.079	3431
879.206	3572
879.333	3397
879.461	3294
879.588	3336
879.715	3469
879.842	3584
879.97	3363
880.097	3161
880.224	3112
880.351	3154
880.478	3184
880.605	3199
880.732	3135
880.859	3504
880.986	3325
881.112	3348
881.239	3207
881.366	3081
881.493	3020
881.619	3009
881.746	3077
881.872	3104
881.999	3123
882.125	3119
882.252	3207
882.378	3317
882.505	3420
882.631	3283
882.757	3127
882.883	3173
883.01	3184
883.136	3150
883.262	3043
883.388	3093
883.514	3279
883.64	3313
883.766	3306
883.892	3203
884.018	3218
884.143	3401
884.269	3507
884.395	3211
884.52	3173
884.646	3161
884.772	3131
884.897	3081
885.023	3218
885.148	3321
885.274	3397
885.399	3374
885.524	3298
885.65	3260
885.775	3310
885.9	3283
886.025	3439
886.15	3378
886.275	3272
886.4	3237
886.525	3317
886.65	3249
886.775	3272
886.9	3481
887.025	3584
887.149	3405
887.274	3253
887.399	3184
887.523	3192
887.648	3188
887.773	3165
887.897	3382
888.021	3389
888.146	3283
888.27	3409
888.395	3485
888.519	3420
888.643	3416
888.767	3431
888.891	3363
889.015	3245
889.139	3306
889.263	3245
889.387	3428
889.511	3523
889.635	3447
889.759	3287
889.883	3287
890.006	3389
890.13	3424
890.254	3249
890.377	3321
890.501	3226
890.624	3173
890.748	3279
890.871	3154
890.995	3119
891.118	2994
891.241	3195
891.364	3214
891.488	3313
891.611	3157
891.734	3184
891.857	3298
891.98	3226
892.103	3313
892.226	3275
892.349	3233
892.471	3123
892.594	3256
892.717	3306
892.839	3260
892.962	3253
893.085	3344
893.207	3241
893.33	3127
893.452	3203
893.575	3367
893.697	3245
893.819	3428
893.941	3454
894.064	3443
894.186	3253
894.308	3245
894.43	3450
894.552	3534
894.674	3462
894.796	3264
894.918	3268
895.04	3256
895.161	3447
895.283	3382
895.405	3298
895.526	3351
895.648	3424
895.769	3435
895.891	3435
896.012	3469
896.134	3409
896.255	3428
896.376	3382
896.498	3332
896.619	3424
896.74	3332
896.861	3401
896.982	3667
897.103	3835
897.224	3576
897.345	3500
897.466	3428
897.587	3504
897.708	3599
897.828	3587
897.949	3416
898.07	3325
898.19	3401
898.311	3549
898.431	3435
898.552	3481
898.672	3584
898.792	3568
898.913	3511
899.033	3409
899.153	3294
899.273	3192
899.393	3283
899.513	3291
899.633	3317
899.753	3321
899.873	3294
899.993	3386
900.113	3325
900.232	3378
900.352	3332
900.472	3329
900.591	3165
900.711	3294
900.83	3222
900.95	3416
901.069	3458
901.189	3313
901.308	3138
901.427	3150
901.546	3203
901.665	3268
901.784	3298
901.904	3154
902.023	3142
902.141	3024
902.26	2994
902.379	3085
902.498	3081
902.617	3055
902.735	3173
902.854	3176
902.973	3161
903.091	3009
903.21	3032
903.328	3138
903.446	3074
903.565	3108
903.683	3142
903.801	3135
903.919	3226
904.038	3264
904.156	3142
904.274	3233
904.392	3249
904.51	3302
904.627	3313
904.745	3424
904.863	3511
904.981	3214
905.098	3165
905.216	3237
905.334	3298
905.451	3294
905.569	3279
905.686	3435
905.803	3431
905.921	3325
906.038	3431
906.155	3363
906.272	3253
906.389	3313
906.506	3253
906.623	3272
906.74	3313
906.857	3157
906.974	3268
907.091	3488
907.208	3587
907.324	3454
907.441	3378
907.557	3253
907.674	3245
907.79	3241
907.907	3317
908.023	3416
908.139	3378
908.256	3367
908.372	3359
908.488	3401
908.604	3264
908.72	3275
908.836	3264
908.952	3340
909.068	3355
909.184	3469
909.3	3435
909.415	3519
909.531	3485
909.647	3332
909.762	3329
909.878	3222
909.993	3389
910.108	3382
910.224	3378
910.339	3386
910.454	3351
910.57	3298
910.685	3279
910.8	3648
910.915	3591
911.03	3488
911.145	3317
911.259	3287
911.374	3393
911.489	3256
911.604	3279
911.718	3176
911.833	3222
911.947	3058
912.062	2990
912.176	3192
912.291	3222
912.405	3260
912.519	3439
912.633	3492
912.748	3367
912.862	3306
912.976	3211
913.09	3070
913.204	3161
913.318	3245
913.431	3382
913.545	3393
913.659	3458
913.772	3359
913.886	3275
914	3222
914.113	3439
914.226	3428
914.34	3386
914.453	3241
914.566	3466
914.68	3340
914.793	3336
914.906	3195
915.019	3169
915.132	3131
915.245	3195
915.358	3268
915.47	3245
915.583	3329
915.696	3348
915.809	3424
915.921	3485
916.034	3302
916.146	3294
916.259	3264
916.371	3370
916.483	3389
916.595	3317
916.708	3382
916.82	3367
916.932	3363
917.044	3355
917.156	3393
917.268	3245
917.38	3344
917.491	3302
917.603	3355
917.715	3507
917.826	3492
917.938	3431
918.049	3317
918.161	3481
918.272	3564
918.384	3637
918.495	3496
918.606	3348
918.717	3294
918.828	3409
918.939	3431
919.05	3340
919.161	3420
919.272	3176
919.383	3317
919.494	3545
919.604	3675
919.715	3530
919.826	3424
919.936	3530
920.047	3584
920.157	3568
920.267	3778
920.378	3622
920.488	3599
920.598	3770
920.708	4002
920.818	3888
920.928	3865
921.038	4059
921.148	3998
921.258	3720
921.368	3663
921.477	3618
921.587	3542
921.697	3473
921.806	3652
921.916	3595
922.025	3370
922.134	3370
922.244	3336
922.353	3454
922.462	3264
922.571	3272
922.68	3142
922.789	3131
922.898	3161
923.007	3173
923.116	3233
923.224	3233
923.333	3192
923.442	3127
923.55	3093
923.659	3161
923.767	3272
923.876	3157
923.984	3256
924.092	3146
924.201	3230
924.309	3230
924.417	3283
924.525	3237
924.633	3260
924.741	4173
924.849	3093
924.956	3306
925.064	3104
925.172	3043
925.279	3135
925.387	3226
925.494	3214
925.602	3405
925.709	3363
925.816	3233
925.924	3348
926.031	3386
926.138	3370
926.245	3389
926.352	3256
926.459	3416
926.566	3496
926.673	3363
926.779	3291
926.886	3291
926.993	3192
927.099	3188
927.206	3131
927.312	3112
927.419	3253
927.525	3207
927.631	3313
927.737	3131
927.843	3173
927.95	3062
928.056	3157
928.162	3195
928.267	3306
928.373	3789
928.479	3329
928.585	3074
928.69	3260
928.796	3310
928.901	3192
929.007	3074
929.112	3279
929.218	3207
929.323	3199
929.428	3165
929.533	3367
929.638	3157
929.743	3188
929.848	3275
929.953	3260
930.058	3180
930.163	3032
930.267	3036
930.372	3230
930.477	3032
930.581	3344
930.685	3218
930.79	3112
930.894	3138
930.998	3135
931.103	3344
931.207	2967
931.311	3005
931.415	2982
931.519	2834
931.623	2868
