Data from test_V78500241_269.txt Node
Date: Fri Mar 25 16:17:04 CST 2022
User: usil
Spectrometer: V785-0024
Trigger mode: 0
Integration Time (sec): 4.000000E-1
Scans to average: 1
Nonlinearity correction enabled: false
Boxcar width: 0
Storing dark spectrum: false
XAxis mode: Wavelengths
Number of Pixels in Spectrum: 1024
>>>>>Begin Spectral Data<<<<<
801.071	2929
801.214	2948
801.356	2868
801.499	2925
801.641	2899
801.783	2910
801.926	3043
802.068	2963
802.211	2982
802.353	3036
802.496	2960
802.638	3013
802.78	3039
802.923	3055
803.065	3009
803.208	2910
803.35	2922
803.492	2941
803.635	2937
803.777	2777
803.919	2868
804.061	3184
804.204	2975
804.346	2925
804.488	2842
804.63	3001
804.773	2906
804.915	2902
805.057	3100
805.199	2922
805.341	2967
805.483	3028
805.626	3001
805.768	2967
805.91	3070
806.052	3119
806.194	3062
806.336	3245
806.478	3036
806.62	2986
806.762	2994
806.904	3097
807.046	3184
807.188	2975
807.33	2982
807.472	2979
807.614	2891
807.756	2998
807.898	2906
808.04	2906
808.182	2960
808.324	2960
808.465	2948
808.607	2880
808.749	2766
808.891	2826
809.033	2982
809.174	2956
809.316	2872
809.458	2906
809.6	2777
809.741	2781
809.883	2773
810.025	2834
810.166	2880
810.308	2838
810.45	2872
810.591	2800
810.733	2739
810.875	2826
811.016	2788
811.158	2785
811.299	2819
811.441	2941
811.582	2883
811.724	2800
811.865	2807
812.007	2910
812.148	2864
812.29	2868
812.431	2891
812.573	2925
812.714	2956
812.855	3028
812.997	3047
813.138	3142
813.279	3020
813.421	2979
813.562	3009
813.703	2857
813.845	2906
813.986	2792
814.127	2727
814.268	2792
814.41	2823
814.551	2796
814.692	2883
814.833	2785
814.974	2925
815.115	2922
815.256	2834
815.397	2811
815.539	2864
815.68	2785
815.821	2792
815.962	2933
816.103	2937
816.244	2895
816.385	2883
816.526	2937
816.666	2899
816.807	2804
816.948	2864
817.089	2925
817.23	2845
817.371	2777
817.512	2796
817.653	2819
817.793	2826
817.934	2880
818.075	2941
818.216	2979
818.356	3009
818.497	2868
818.638	2788
818.778	2830
818.919	2777
819.06	2743
819.2	2857
819.341	2830
819.481	2811
819.622	2899
819.762	3123
819.903	3051
820.043	2910
820.184	2899
820.324	2929
820.465	2990
820.605	2998
820.746	3047
820.886	2925
821.026	3081
821.167	3138
821.307	3264
821.447	3275
821.588	3264
821.728	3199
821.868	3192
822.008	3108
822.149	3169
822.289	3249
822.429	3070
822.569	3074
822.709	3180
822.849	3024
822.99	3097
823.13	3142
823.27	3188
823.41	3077
823.55	3199
823.69	3154
823.83	3230
823.97	3081
824.11	2963
824.25	2990
824.389	3058
824.529	3116
824.669	3081
824.809	3253
824.949	3260
825.089	3176
825.228	3165
825.368	2994
825.508	2956
825.648	2944
825.787	3017
825.927	3036
826.067	2975
826.206	2963
826.346	3039
826.485	3066
826.625	3104
826.765	3253
826.904	3241
827.044	3020
827.183	2941
827.323	2857
827.462	3013
827.601	2933
827.741	2891
827.88	2948
828.02	2853
828.159	3001
828.298	3055
828.437	3123
828.577	3032
828.716	3256
828.855	3066
828.994	2937
829.134	2853
829.273	2925
829.412	2880
829.551	2861
829.69	2880
829.829	2971
829.968	3074
830.107	3032
830.246	3051
830.385	2910
830.524	2883
830.663	2796
830.802	2762
830.941	2678
831.08	2625
831.219	2750
831.357	2743
831.496	2918
831.635	2701
831.774	2629
831.913	2655
832.051	2564
832.19	2575
832.329	2701
832.467	2526
832.606	2473
832.744	2571
832.883	2583
833.022	2575
833.16	2663
833.299	2731
833.437	2682
833.576	2727
833.714	2686
833.852	2743
833.991	2800
834.129	2815
834.267	2819
834.406	2781
834.544	2895
834.682	2853
834.821	2872
834.959	3085
835.097	2883
835.235	3062
835.373	2971
835.511	2994
835.65	2986
835.788	2948
835.926	2815
836.064	2823
836.202	2853
836.34	3100
836.478	3150
836.615	3047
836.753	3097
836.891	3226
837.029	3157
837.167	3085
837.305	3077
837.443	3024
837.58	2918
837.718	3154
837.856	3043
837.993	3036
838.131	3142
838.269	3089
838.406	3104
838.544	3081
838.681	2891
838.819	2918
838.956	2819
839.094	2823
839.231	2895
839.369	3028
839.506	3344
839.643	3233
839.781	3013
839.918	2982
840.055	3028
840.193	3112
840.33	3066
840.467	3108
840.604	3161
840.742	3416
840.879	3058
841.016	3047
841.153	3104
841.29	3359
841.427	3279
841.564	3249
841.701	3260
841.838	3218
841.975	3184
842.112	3192
842.249	3062
842.385	3055
842.522	3249
842.659	3074
842.796	3077
842.933	3135
843.069	3036
843.206	3020
843.343	3180
843.479	3116
843.616	3161
843.752	2880
843.889	2834
844.025	3097
844.162	2883
844.298	3100
844.435	2925
844.571	2914
844.708	3039
844.844	3154
844.98	3226
845.117	3230
845.253	3070
845.389	3013
845.525	3077
845.661	3085
845.798	2986
845.934	3127
846.07	3028
846.206	3211
846.342	3363
846.478	3237
846.614	3077
846.75	3089
846.886	3013
847.022	3226
847.158	3138
847.294	3157
847.429	3222
847.565	3233
847.701	3473
847.837	3058
847.972	3020
848.108	3188
848.244	3154
848.379	3001
848.515	2906
848.65	2929
848.786	2925
848.921	3055
849.057	3077
849.192	3176
849.328	3036
849.463	3142
849.598	3020
849.734	3024
849.869	2975
850.004	2914
850.14	2933
850.275	2914
850.41	2838
850.545	2895
850.68	2899
850.815	2941
850.95	2948
851.085	3211
851.22	3119
851.355	3066
851.49	2944
851.625	2998
851.76	3017
851.895	2975
852.03	2910
852.165	3039
852.299	3085
852.434	3173
852.569	3146
852.703	3188
852.838	3241
852.973	3351
853.107	3336
853.242	3108
853.376	3108
853.511	2929
853.645	3024
853.78	3241
853.914	3127
854.048	3104
854.183	3119
854.317	3119
854.451	3279
854.585	3142
854.72	3081
854.854	3226
854.988	3055
855.122	3055
855.256	3005
855.39	3119
855.524	3260
855.658	3203
855.792	3184
855.926	3161
856.06	3230
856.194	3279
856.327	3154
856.461	3077
856.595	3070
856.729	3100
856.862	3203
856.996	3161
857.13	3173
857.263	3230
857.397	3268
857.53	3100
857.664	3150
857.797	3207
857.931	3260
858.064	3142
858.197	3214
858.331	3150
858.464	3089
858.597	3028
858.731	3127
858.864	3127
858.997	3081
859.13	3169
859.263	3146
859.396	3218
859.529	3097
859.662	3070
859.795	3039
859.928	3165
860.061	3310
860.194	3291
860.327	3142
860.46	3104
860.592	3253
860.725	3233
860.858	3245
860.99	3112
861.123	3055
861.256	3066
861.388	3135
861.521	3827
861.653	3043
861.786	3005
861.918	2990
862.05	3062
862.183	3081
862.315	3165
862.447	3176
862.58	3089
862.712	2975
862.844	2864
862.976	3017
863.108	3009
863.24	3302
863.372	2880
863.504	2979
863.636	2979
863.768	3024
863.9	2998
864.032	2899
864.164	2952
864.296	2994
864.428	3055
864.559	3119
864.691	3108
864.823	3032
864.954	3055
865.086	3055
865.217	2998
865.349	2956
865.48	2948
865.612	3047
865.743	3161
865.875	2956
866.006	2937
866.137	2960
866.269	2948
866.4	2960
866.531	2941
866.662	2910
866.793	2902
866.924	2899
867.055	2960
867.186	2929
867.317	2918
867.448	2853
867.579	2853
867.71	2842
867.841	2842
867.972	2887
868.103	2891
868.233	2876
868.364	2902
868.495	2906
868.625	3062
868.756	3180
868.886	2982
869.017	3028
869.147	3184
869.278	3173
869.408	3036
869.539	3036
869.669	3070
869.799	3017
869.929	3116
870.06	3077
870.19	3287
870.32	3294
870.45	3298
870.58	3382
870.71	3439
870.84	3481
870.97	3306
871.1	3256
871.23	3477
871.36	3450
871.489	3313
871.619	3428
871.749	3363
871.879	3435
872.008	3469
872.138	3351
872.267	3291
872.397	3184
872.526	3074
872.656	3039
872.785	3127
872.915	3272
873.044	3291
873.173	3211
873.303	3211
873.432	3260
873.561	3253
873.69	3173
873.819	3123
873.948	3211
874.077	3093
874.206	3066
874.335	3100
874.464	3207
874.593	3317
874.722	3264
874.851	3370
874.979	3367
875.108	3351
875.237	3173
875.365	3169
875.494	3195
875.623	3264
875.751	3070
875.88	3131
876.008	3150
876.136	3237
876.265	3401
876.393	3500
876.521	3431
876.65	3389
876.778	3370
876.906	3287
877.034	3199
877.162	3218
877.29	3173
877.418	3283
877.546	3264
877.674	3268
877.802	3222
877.93	3260
878.058	3169
878.185	3154
878.313	3233
878.441	3207
878.568	3055
878.696	3150
878.824	3211
878.951	3287
879.079	3447
879.206	3656
879.333	3462
879.461	3287
879.588	3344
879.715	3473
879.842	3603
879.97	3355
880.097	3135
880.224	3142
880.351	3173
880.478	3241
880.605	3207
880.732	3173
880.859	3511
880.986	3310
881.112	3310
881.239	3218
881.366	3116
881.493	3032
881.619	3058
881.746	3108
881.872	3074
881.999	3097
882.125	3138
882.252	3245
882.378	3306
882.505	3382
882.631	3291
882.757	3138
882.883	3203
883.01	3199
883.136	3195
883.262	3123
883.388	3131
883.514	3374
883.64	3397
883.766	3302
883.892	3180
884.018	3268
884.143	3412
884.269	3523
884.395	3195
884.52	3119
884.646	3214
884.772	3116
884.897	3077
885.023	3249
885.148	3329
885.274	3409
885.399	3355
885.524	3291
885.65	3264
885.775	3306
885.9	3279
886.025	3370
886.15	3340
886.275	3321
886.4	3241
886.525	3298
886.65	3268
886.775	3283
886.9	3523
887.025	3587
887.149	3370
887.274	3268
887.399	3150
887.523	3207
887.648	3180
887.773	3192
887.897	3389
888.021	3397
888.146	3287
888.27	3450
888.395	3507
888.519	3435
888.643	3412
888.767	3477
888.891	3325
889.015	3249
889.139	3294
889.263	3245
889.387	3412
889.511	3542
889.635	3431
889.759	3283
889.883	3283
890.006	3397
890.13	3504
890.254	3256
890.377	3359
890.501	3233
890.624	3199
890.748	3317
890.871	3165
890.995	3131
891.118	3039
891.241	3192
891.364	3180
891.488	3359
891.611	3188
891.734	3253
891.857	3291
891.98	3260
892.103	3344
892.226	3283
892.349	3214
892.471	3142
892.594	3233
892.717	3336
892.839	3272
892.962	3279
893.085	3351
893.207	3317
893.33	3146
893.452	3249
893.575	3317
893.697	3272
893.819	3443
893.941	3492
894.064	3466
894.186	3268
894.308	3275
894.43	3454
894.552	3507
894.674	3412
894.796	3298
894.918	3344
895.04	3287
895.161	3420
895.283	3374
895.405	3313
895.526	3367
895.648	3412
895.769	3435
895.891	3462
896.012	3485
896.134	3431
896.255	3416
896.376	3374
896.498	3355
896.619	3454
896.74	3389
896.861	3359
896.982	3724
897.103	3884
897.224	3641
897.345	3511
897.466	3435
897.587	3526
897.708	3641
897.828	3553
897.949	3439
898.07	3359
898.19	3439
898.311	3568
898.431	3454
898.552	3538
898.672	3595
898.792	3580
898.913	3584
899.033	3405
899.153	3306
899.273	3203
899.393	3306
899.513	3367
899.633	3272
899.753	3298
899.873	3332
899.993	3378
900.113	3355
900.232	3401
900.352	3351
900.472	3279
900.591	3199
900.711	3329
900.83	3264
900.95	3389
901.069	3481
901.189	3340
901.308	3176
901.427	3135
901.546	3195
901.665	3325
901.784	3340
901.904	3184
902.023	3116
902.141	3028
902.26	2986
902.379	3138
902.498	3123
902.617	3055
902.735	3211
902.854	3237
902.973	3184
903.091	3089
903.21	3066
903.328	3131
903.446	3138
903.565	3123
903.683	3207
903.801	3131
903.919	3230
904.038	3294
904.156	3154
904.274	3264
904.392	3287
904.51	3272
904.627	3329
904.745	3405
904.863	3519
904.981	3287
905.098	3150
905.216	3199
905.334	3317
905.451	3287
905.569	3310
905.686	3431
905.803	3469
905.921	3306
906.038	3409
906.155	3374
906.272	3298
906.389	3310
906.506	3226
906.623	3287
906.74	3313
906.857	3188
906.974	3256
907.091	3477
907.208	3549
907.324	3462
907.441	3374
907.557	3245
907.674	3237
907.79	3237
907.907	3291
908.023	3401
908.139	3344
908.256	3378
908.372	3329
908.488	3386
908.604	3287
908.72	3211
908.836	3291
908.952	3291
909.068	3310
909.184	3500
909.3	3416
909.415	3507
909.531	3458
909.647	3283
909.762	3310
909.878	3249
909.993	3359
910.108	3317
910.224	3313
910.339	3439
910.454	3359
910.57	3298
910.685	3237
910.8	3568
910.915	3504
911.03	3420
911.145	3249
911.259	3310
911.374	3321
911.489	3218
911.604	3233
911.718	3108
911.833	3180
911.947	3039
912.062	3009
912.176	3154
912.291	3173
912.405	3214
912.519	3466
912.633	3492
912.748	3340
912.862	3283
912.976	3173
913.09	3058
913.204	3154
913.318	3230
913.431	3310
913.545	3336
913.659	3424
913.772	3351
913.886	3226
914	3249
914.113	3325
914.226	3416
914.34	3351
914.453	3230
914.566	3405
914.68	3272
914.793	3317
914.906	3154
915.019	3112
915.132	3070
915.245	3176
915.358	3173
915.47	3237
915.583	3230
915.696	3279
915.809	3397
915.921	3477
916.034	3268
916.146	3241
916.259	3199
916.371	3386
916.483	3359
916.595	3283
916.708	3351
916.82	3363
916.932	3340
917.044	3397
917.156	3336
917.268	3275
917.38	3306
917.491	3268
917.603	3355
917.715	3496
917.826	3431
917.938	3386
918.049	3283
918.161	3447
918.272	3580
918.384	3561
918.495	3504
918.606	3329
918.717	3275
918.828	3389
918.939	3447
919.05	3321
919.161	3329
919.272	3161
919.383	3294
919.494	3492
919.604	3686
919.715	3504
919.826	3401
919.936	3488
920.047	3599
920.157	3561
920.267	3755
920.378	3610
920.488	3599
920.598	3759
920.708	3953
920.818	3827
920.928	3838
921.038	4051
921.148	3991
921.258	3724
921.368	3656
921.477	3622
921.587	3511
921.697	3488
921.806	3641
921.916	3519
922.025	3348
922.134	3367
922.244	3302
922.353	3420
922.462	3237
922.571	3218
922.68	3093
922.789	3085
922.898	3127
923.007	3104
923.116	3188
923.224	3180
923.333	3184
923.442	3081
923.55	3097
923.659	3154
923.767	3253
923.876	3119
923.984	3222
924.092	3093
924.201	3165
924.309	3222
924.417	3226
924.525	3203
924.633	3222
924.741	4158
924.849	3100
924.956	3233
925.064	3070
925.172	3055
925.279	3116
925.387	3176
925.494	3218
925.602	3325
925.709	3348
925.816	3199
925.924	3279
926.031	3374
926.138	3325
926.245	3374
926.352	3283
926.459	3439
926.566	3477
926.673	3291
926.779	3237
926.886	3233
926.993	3180
927.099	3112
927.206	3142
927.312	3093
927.419	3283
927.525	3226
927.631	3275
927.737	3176
927.843	3142
927.95	3028
928.056	3184
928.162	3188
928.267	3256
928.373	3884
928.479	3329
928.585	3024
928.69	3241
928.796	3241
928.901	3188
929.007	3028
929.112	3207
929.218	3211
929.323	3138
929.428	3173
929.533	3348
929.638	3131
929.743	3169
929.848	3268
929.953	3237
930.058	3123
930.163	2998
930.267	3047
930.372	3192
930.477	3017
930.581	3291
930.685	3195
930.79	3039
930.894	3127
930.998	3066
931.103	3287
931.207	2956
931.311	2990
931.415	2914
931.519	2815
931.623	2811
