Data from test_V78500241_294.txt Node
Date: Fri Mar 25 16:17:14 CST 2022
User: usil
Spectrometer: V785-0024
Trigger mode: 0
Integration Time (sec): 4.000000E-1
Scans to average: 1
Nonlinearity correction enabled: false
Boxcar width: 0
Storing dark spectrum: false
XAxis mode: Wavelengths
Number of Pixels in Spectrum: 1024
>>>>>Begin Spectral Data<<<<<
801.071	2941
801.214	2937
801.356	2906
801.499	2929
801.641	2845
801.783	2929
801.926	3028
802.068	2979
802.211	3020
802.353	3032
802.496	2986
802.638	2986
802.78	3051
802.923	3074
803.065	2982
803.208	2887
803.35	2891
803.492	2899
803.635	2933
803.777	2762
803.919	2853
804.061	3199
804.204	2937
804.346	2880
804.488	2838
804.63	2979
804.773	2910
804.915	2910
805.057	3112
805.199	2895
805.341	2944
805.483	3013
805.626	3013
805.768	2986
805.91	3119
806.052	3116
806.194	3043
806.336	3199
806.478	3039
806.62	2929
806.762	2998
806.904	3058
807.046	3169
807.188	3020
807.33	2895
807.472	2956
807.614	2914
807.756	3013
807.898	2925
808.04	2883
808.182	2960
808.324	2986
808.465	2857
808.607	2883
808.749	2785
808.891	2853
809.033	2975
809.174	2967
809.316	2902
809.458	2899
809.6	2754
809.741	2796
809.883	2777
810.025	2819
810.166	2872
810.308	2868
810.45	2842
810.591	2746
810.733	2766
810.875	2842
811.016	2815
811.158	2754
811.299	2838
811.441	2979
811.582	2914
811.724	2842
811.865	2834
812.007	2891
812.148	2872
812.29	2826
812.431	2902
812.573	2929
812.714	2979
812.855	3058
812.997	3070
813.138	3119
813.279	3005
813.421	3024
813.562	2975
813.703	2838
813.845	2902
813.986	2785
814.127	2727
814.268	2826
814.41	2845
814.551	2838
814.692	2853
814.833	2788
814.974	2918
815.115	2979
815.256	2842
815.397	2819
815.539	2845
815.68	2800
815.821	2804
815.962	2944
816.103	2906
816.244	2880
816.385	2899
816.526	2960
816.666	2925
816.807	2716
816.948	2883
817.089	2883
817.23	2845
817.371	2781
817.512	2785
817.653	2845
817.793	2819
817.934	2891
818.075	2948
818.216	2986
818.356	3024
818.497	2853
818.638	2807
818.778	2788
818.919	2792
819.06	2746
819.2	2876
819.341	2807
819.481	2819
819.622	2906
819.762	3100
819.903	3017
820.043	2925
820.184	2899
820.324	2922
820.465	2986
820.605	3036
820.746	3005
820.886	2944
821.026	3051
821.167	3154
821.307	3264
821.447	3302
821.588	3218
821.728	3230
821.868	3188
822.008	3055
822.149	3169
822.289	3226
822.429	3074
822.569	3104
822.709	3161
822.849	3024
822.99	3070
823.13	3119
823.27	3237
823.41	3097
823.55	3150
823.69	3176
823.83	3176
823.97	3077
824.11	3001
824.25	3009
824.389	3070
824.529	3127
824.669	3051
824.809	3184
824.949	3249
825.089	3241
825.228	3154
825.368	2986
825.508	2941
825.648	2960
825.787	2994
825.927	3013
826.067	2982
826.206	2948
826.346	3051
826.485	3032
826.625	3097
826.765	3245
826.904	3180
827.044	2994
827.183	2933
827.323	2906
827.462	3013
827.601	2906
827.741	2952
827.88	2933
828.02	2834
828.159	2960
828.298	3047
828.437	3131
828.577	3066
828.716	3214
828.855	3077
828.994	2914
829.134	2910
829.273	2910
829.412	2853
829.551	2830
829.69	2880
829.829	2963
829.968	3104
830.107	3013
830.246	2990
830.385	2952
830.524	2864
830.663	2826
830.802	2720
830.941	2648
831.08	2613
831.219	2769
831.357	2716
831.496	2948
831.635	2716
831.774	2640
831.913	2632
832.051	2537
832.19	2560
832.329	2655
832.467	2503
832.606	2499
832.744	2613
832.883	2579
833.022	2556
833.16	2644
833.299	2659
833.437	2682
833.576	2697
833.714	2708
833.852	2712
833.991	2754
834.129	2826
834.267	2788
834.406	2785
834.544	2872
834.682	2899
834.821	2845
834.959	3070
835.097	2918
835.235	3036
835.373	3013
835.511	3028
835.65	2956
835.788	2956
835.926	2807
836.064	2819
836.202	2845
836.34	3066
836.478	3165
836.615	3077
836.753	3085
836.891	3199
837.029	3188
837.167	3097
837.305	3070
837.443	3047
837.58	2967
837.718	3142
837.856	3051
837.993	3017
838.131	3112
838.269	3093
838.406	3081
838.544	3097
838.681	2941
838.819	2937
838.956	2807
839.094	2811
839.231	2902
839.369	3013
839.506	3325
839.643	3214
839.781	3032
839.918	2948
840.055	3043
840.193	3036
840.33	3058
840.467	3081
840.604	3150
840.742	3412
840.879	3062
841.016	3070
841.153	3135
841.29	3329
841.427	3306
841.564	3249
841.701	3298
841.838	3218
841.975	3176
842.112	3195
842.249	3077
842.385	3001
842.522	3264
842.659	3070
842.796	3055
842.933	3104
843.069	3020
843.206	3058
843.343	3203
843.479	3104
843.616	3138
843.752	2891
843.889	2826
844.025	3058
844.162	2849
844.298	3104
844.435	2933
844.571	2922
844.708	3093
844.844	3161
844.98	3176
845.117	3161
845.253	3036
845.389	2994
845.525	3074
845.661	3077
845.798	3009
845.934	3135
846.07	3055
846.206	3241
846.342	3294
846.478	3249
846.614	3081
846.75	3047
846.886	3047
847.022	3253
847.158	3142
847.294	3195
847.429	3253
847.565	3214
847.701	3458
847.837	3062
847.972	2963
848.108	3138
848.244	3131
848.379	2975
848.515	2937
848.65	2872
848.786	2986
848.921	2994
849.057	3055
849.192	3157
849.328	3085
849.463	3116
849.598	3043
849.734	3036
849.869	2956
850.004	2937
850.14	2922
850.275	2902
850.41	2872
850.545	2842
850.68	2918
850.815	2986
850.95	2986
851.085	3214
851.22	3081
851.355	3005
851.49	2975
851.625	3017
851.76	2967
851.895	2929
852.03	2864
852.165	3077
852.299	3142
852.434	3184
852.569	3138
852.703	3165
852.838	3230
852.973	3313
853.107	3294
853.242	3146
853.376	3051
853.511	3005
853.645	3043
853.78	3237
853.914	3116
854.048	3089
854.183	3104
854.317	3142
854.451	3317
854.585	3116
854.72	3074
854.854	3218
854.988	3055
855.122	3047
855.256	2956
855.39	3119
855.524	3241
855.658	3161
855.792	3157
855.926	3195
856.06	3218
856.194	3264
856.327	3142
856.461	3097
856.595	3055
856.729	3093
856.862	3230
856.996	3146
857.13	3203
857.263	3226
857.397	3287
857.53	3085
857.664	3195
857.797	3203
857.931	3245
858.064	3184
858.197	3176
858.331	3161
858.464	3070
858.597	2979
858.731	3150
858.864	3112
858.997	3058
859.13	3142
859.263	3173
859.396	3195
859.529	3081
859.662	3051
859.795	3066
859.928	3131
860.061	3279
860.194	3298
860.327	3119
860.46	3093
860.592	3249
860.725	3226
860.858	3275
860.99	3104
861.123	3058
861.256	3039
861.388	3150
861.521	3888
861.653	3024
861.786	3032
861.918	3020
862.05	3077
862.183	3157
862.315	3165
862.447	3184
862.58	3074
862.712	2967
862.844	2872
862.976	3001
863.108	2986
863.24	3275
863.372	2887
863.504	2960
863.636	2952
863.768	3051
863.9	2952
864.032	2906
864.164	2895
864.296	3020
864.428	3077
864.559	3119
864.691	3074
864.823	3074
864.954	3017
865.086	2982
865.217	2982
865.349	2956
865.48	2979
865.612	3009
865.743	3161
865.875	2956
866.006	2929
866.137	2982
866.269	2925
866.4	2941
866.531	2925
866.662	2895
866.793	2880
866.924	2902
867.055	2948
867.186	2891
867.317	2899
867.448	2800
867.579	2849
867.71	2857
867.841	2796
867.972	2918
868.103	2906
868.233	2876
868.364	2853
868.495	2906
868.625	3081
868.756	3169
868.886	2944
869.017	3036
869.147	3108
869.278	3192
869.408	3009
869.539	3017
869.669	3093
869.799	3009
869.929	3127
870.06	3127
870.19	3317
870.32	3310
870.45	3298
870.58	3355
870.71	3462
870.84	3450
870.97	3317
871.1	3275
871.23	3496
871.36	3488
871.489	3378
871.619	3386
871.749	3382
871.879	3462
872.008	3477
872.138	3374
872.267	3279
872.397	3138
872.526	3089
872.656	3005
872.785	3089
872.915	3203
873.044	3317
873.173	3233
873.303	3222
873.432	3222
873.561	3268
873.69	3161
873.819	3116
873.948	3199
874.077	3104
874.206	3020
874.335	3074
874.464	3211
874.593	3321
874.722	3192
874.851	3397
874.979	3370
875.108	3310
875.237	3184
875.365	3157
875.494	3169
875.623	3249
875.751	3089
875.88	3097
876.008	3195
876.136	3222
876.265	3370
876.393	3507
876.521	3389
876.65	3428
876.778	3336
876.906	3241
877.034	3211
877.162	3218
877.29	3135
877.418	3230
877.546	3245
877.674	3192
877.802	3241
877.93	3245
878.058	3127
878.185	3097
878.313	3211
878.441	3226
878.568	3062
878.696	3157
878.824	3268
878.951	3283
879.079	3450
879.206	3603
879.333	3447
879.461	3332
879.588	3359
879.715	3458
879.842	3591
879.97	3431
880.097	3169
880.224	3135
880.351	3176
880.478	3195
880.605	3199
880.732	3173
880.859	3530
880.986	3253
881.112	3302
881.239	3218
881.366	3127
881.493	3055
881.619	3020
881.746	3013
881.872	3108
881.999	3093
882.125	3142
882.252	3245
882.378	3291
882.505	3416
882.631	3306
882.757	3123
882.883	3253
883.01	3226
883.136	3150
883.262	3074
883.388	3097
883.514	3317
883.64	3340
883.766	3321
883.892	3192
884.018	3214
884.143	3409
884.269	3519
884.395	3188
884.52	3154
884.646	3169
884.772	3150
884.897	3119
885.023	3214
885.148	3340
885.274	3412
885.399	3351
885.524	3275
885.65	3298
885.775	3317
885.9	3283
886.025	3443
886.15	3378
886.275	3268
886.4	3207
886.525	3321
886.65	3283
886.775	3302
886.9	3542
887.025	3618
887.149	3428
887.274	3245
887.399	3173
887.523	3165
887.648	3195
887.773	3180
887.897	3363
888.021	3401
888.146	3275
888.27	3462
888.395	3526
888.519	3412
888.643	3435
888.767	3447
888.891	3321
889.015	3233
889.139	3298
889.263	3260
889.387	3370
889.511	3523
889.635	3481
889.759	3332
889.883	3313
890.006	3374
890.13	3450
890.254	3264
890.377	3359
890.501	3214
890.624	3161
890.748	3313
890.871	3146
890.995	3074
891.118	3089
891.241	3180
891.364	3211
891.488	3294
891.611	3192
891.734	3207
891.857	3268
891.98	3241
892.103	3310
892.226	3275
892.349	3264
892.471	3116
892.594	3226
892.717	3306
892.839	3249
892.962	3275
893.085	3329
893.207	3317
893.33	3154
893.452	3203
893.575	3370
893.697	3317
893.819	3462
893.941	3485
894.064	3447
894.186	3310
894.308	3268
894.43	3428
894.552	3530
894.674	3481
894.796	3294
894.918	3283
895.04	3287
895.161	3409
895.283	3363
895.405	3287
895.526	3382
895.648	3424
895.769	3409
895.891	3412
896.012	3511
896.134	3466
896.255	3389
896.376	3401
896.498	3370
896.619	3435
896.74	3378
896.861	3435
896.982	3675
897.103	3808
897.224	3599
897.345	3542
897.466	3424
897.587	3481
897.708	3576
897.828	3534
897.949	3420
898.07	3332
898.19	3416
898.311	3637
898.431	3450
898.552	3469
898.672	3591
898.792	3534
898.913	3526
899.033	3386
899.153	3294
899.273	3233
899.393	3264
899.513	3317
899.633	3310
899.753	3348
899.873	3313
899.993	3386
900.113	3317
900.232	3382
900.352	3332
900.472	3275
900.591	3211
900.711	3291
900.83	3253
900.95	3393
901.069	3466
901.189	3370
901.308	3188
901.427	3157
901.546	3169
901.665	3306
901.784	3310
901.904	3192
902.023	3135
902.141	3043
902.26	3005
902.379	3142
902.498	3081
902.617	3085
902.735	3192
902.854	3260
902.973	3180
903.091	3028
903.21	3043
903.328	3116
903.446	3127
903.565	3108
903.683	3157
903.801	3123
903.919	3226
904.038	3298
904.156	3180
904.274	3264
904.392	3272
904.51	3291
904.627	3313
904.745	3409
904.863	3420
904.981	3256
905.098	3188
905.216	3264
905.334	3260
905.451	3340
905.569	3313
905.686	3500
905.803	3469
905.921	3287
906.038	3473
906.155	3389
906.272	3275
906.389	3294
906.506	3237
906.623	3272
906.74	3279
906.857	3199
906.974	3249
907.091	3435
907.208	3545
907.324	3488
907.441	3393
907.557	3218
907.674	3214
907.79	3203
907.907	3279
908.023	3386
908.139	3378
908.256	3298
908.372	3363
908.488	3317
908.604	3264
908.72	3226
908.836	3310
908.952	3310
909.068	3355
909.184	3466
909.3	3386
909.415	3492
909.531	3439
909.647	3253
909.762	3298
909.878	3245
909.993	3363
910.108	3329
910.224	3336
910.339	3469
910.454	3317
910.57	3298
910.685	3260
910.8	3603
910.915	3519
911.03	3458
911.145	3245
911.259	3233
911.374	3291
911.489	3253
911.604	3207
911.718	3119
911.833	3093
911.947	3020
912.062	2986
912.176	3169
912.291	3199
912.405	3169
912.519	3454
912.633	3488
912.748	3367
912.862	3298
912.976	3195
913.09	3070
913.204	3119
913.318	3241
913.431	3325
913.545	3329
913.659	3389
913.772	3332
913.886	3161
914	3207
914.113	3363
914.226	3424
914.34	3370
914.453	3199
914.566	3374
914.68	3275
914.793	3298
914.906	3146
915.019	3081
915.132	3081
915.245	3161
915.358	3214
915.47	3260
915.583	3283
915.696	3294
915.809	3428
915.921	3443
916.034	3226
916.146	3230
916.259	3237
916.371	3393
916.483	3344
916.595	3287
916.708	3332
916.82	3279
916.932	3370
917.044	3336
917.156	3348
917.268	3218
917.38	3302
917.491	3291
917.603	3363
917.715	3409
917.826	3439
917.938	3382
918.049	3256
918.161	3424
918.272	3557
918.384	3538
918.495	3428
918.606	3298
918.717	3287
918.828	3355
918.939	3393
919.05	3272
919.161	3401
919.272	3165
919.383	3294
919.494	3481
919.604	3667
919.715	3431
919.826	3401
919.936	3462
920.047	3603
920.157	3523
920.267	3770
920.378	3637
920.488	3553
920.598	3789
920.708	3922
920.818	3804
920.928	3819
921.038	4044
921.148	4002
921.258	3709
921.368	3625
921.477	3553
921.587	3553
921.697	3469
921.806	3591
921.916	3549
922.025	3355
922.134	3325
922.244	3310
922.353	3424
922.462	3256
922.571	3241
922.68	3138
922.789	3100
922.898	3154
923.007	3081
923.116	3245
923.224	3188
923.333	3192
923.442	3127
923.55	3070
923.659	3127
923.767	3199
923.876	3108
923.984	3218
924.092	3104
924.201	3218
924.309	3218
924.417	3287
924.525	3199
924.633	3245
924.741	4238
924.849	3093
924.956	3283
925.064	3154
925.172	3089
925.279	3161
925.387	3237
925.494	3218
925.602	3370
925.709	3344
925.816	3249
925.924	3310
926.031	3386
926.138	3370
926.245	3420
926.352	3237
926.459	3481
926.566	3526
926.673	3370
926.779	3321
926.886	3279
926.993	3203
927.099	3180
927.206	3192
927.312	3226
927.419	3283
927.525	3253
927.631	3268
927.737	3165
927.843	3192
927.95	3074
928.056	3180
928.162	3211
928.267	3306
928.373	3915
928.479	3363
928.585	3100
928.69	3249
928.796	3321
928.901	3222
929.007	3085
929.112	3245
929.218	3226
929.323	3184
929.428	3203
929.533	3344
929.638	3161
929.743	3211
929.848	3272
929.953	3233
930.058	3241
930.163	3051
930.267	3070
930.372	3249
930.477	3055
930.581	3355
930.685	3256
930.79	3077
930.894	3154
930.998	3127
931.103	3340
931.207	2994
931.311	3005
931.415	2967
931.519	2811
931.623	2838
