Data from test_V78500241_856.txt Node
Date: Fri Mar 25 16:21:07 CST 2022
User: usil
Spectrometer: V785-0024
Trigger mode: 0
Integration Time (sec): 4.000000E-1
Scans to average: 1
Nonlinearity correction enabled: false
Boxcar width: 0
Storing dark spectrum: false
XAxis mode: Wavelengths
Number of Pixels in Spectrum: 1024
>>>>>Begin Spectral Data<<<<<
801.071	2925
801.214	2967
801.356	2891
801.499	2883
801.641	2887
801.783	2971
801.926	3070
802.068	2979
802.211	2975
802.353	3020
802.496	2960
802.638	3047
802.78	3058
802.923	3116
803.065	3028
803.208	2929
803.35	2922
803.492	2933
803.635	2963
803.777	2804
803.919	2880
804.061	3192
804.204	2941
804.346	2883
804.488	2868
804.63	2963
804.773	2899
804.915	2914
805.057	3093
805.199	2918
805.341	2971
805.483	2990
805.626	2986
805.768	2914
805.91	3039
806.052	3089
806.194	3055
806.336	3256
806.478	3036
806.62	2956
806.762	2994
806.904	3039
807.046	3169
807.188	2994
807.33	2925
807.472	2998
807.614	2918
807.756	3043
807.898	2941
808.04	2883
808.182	3001
808.324	2944
808.465	2899
808.607	2891
808.749	2830
808.891	2853
809.033	2994
809.174	2937
809.316	2937
809.458	2902
809.6	2800
809.741	2773
809.883	2766
810.025	2853
810.166	2861
810.308	2834
810.45	2864
810.591	2792
810.733	2754
810.875	2838
811.016	2796
811.158	2769
811.299	2842
811.441	2944
811.582	2857
811.724	2830
811.865	2804
812.007	2910
812.148	2849
812.29	2815
812.431	2861
812.573	2937
812.714	2967
812.855	3024
812.997	3047
813.138	3138
813.279	2979
813.421	2998
813.562	2963
813.703	2883
813.845	2902
813.986	2758
814.127	2701
814.268	2857
814.41	2781
814.551	2815
814.692	2910
814.833	2834
814.974	2872
815.115	2963
815.256	2819
815.397	2785
815.539	2872
815.68	2788
815.821	2788
815.962	2906
816.103	2918
816.244	2868
816.385	2842
816.526	2982
816.666	2914
816.807	2724
816.948	2895
817.089	2861
817.23	2868
817.371	2781
817.512	2796
817.653	2842
817.793	2838
817.934	2864
818.075	2956
818.216	2994
818.356	2982
818.497	2880
818.638	2781
818.778	2834
818.919	2754
819.06	2731
819.2	2868
819.341	2800
819.481	2796
819.622	2914
819.762	3112
819.903	3043
820.043	2910
820.184	2929
820.324	2910
820.465	3001
820.605	3020
820.746	3024
820.886	2967
821.026	3127
821.167	3180
821.307	3283
821.447	3268
821.588	3245
821.728	3222
821.868	3211
822.008	3043
822.149	3195
822.289	3245
822.429	3093
822.569	3112
822.709	3173
822.849	3066
822.99	3089
823.13	3184
823.27	3241
823.41	3150
823.55	3180
823.69	3207
823.83	3184
823.97	3093
824.11	2998
824.25	3055
824.389	3112
824.529	3131
824.669	3104
824.809	3233
824.949	3310
825.089	3241
825.228	3173
825.368	3055
825.508	2952
825.648	2982
825.787	3043
825.927	3047
826.067	3001
826.206	3020
826.346	3081
826.485	3146
826.625	3161
826.765	3329
826.904	3245
827.044	3024
827.183	2979
827.323	2906
827.462	3055
827.601	2948
827.741	2929
827.88	3032
828.02	2880
828.159	3005
828.298	3097
828.437	3138
828.577	3047
828.716	3291
828.855	3123
828.994	2937
829.134	2944
829.273	2941
829.412	2902
829.551	2864
829.69	2948
829.829	3024
829.968	3161
830.107	3074
830.246	3066
830.385	2956
830.524	2883
830.663	2895
830.802	2785
830.941	2724
831.08	2701
831.219	2819
831.357	2815
831.496	3009
831.635	2724
831.774	2651
831.913	2682
832.051	2575
832.19	2632
832.329	2724
832.467	2579
832.606	2530
832.744	2629
832.883	2625
833.022	2598
833.16	2693
833.299	2716
833.437	2750
833.576	2762
833.714	2750
833.852	2781
833.991	2796
834.129	2880
834.267	2872
834.406	2842
834.544	2925
834.682	2902
834.821	2929
834.959	3097
835.097	2899
835.235	3104
835.373	3028
835.511	3051
835.65	3013
835.788	2986
835.926	2857
836.064	2826
836.202	2830
836.34	3123
836.478	3173
836.615	3077
836.753	3154
836.891	3192
837.029	3211
837.167	3108
837.305	3108
837.443	3043
837.58	3005
837.718	3211
837.856	3100
837.993	3047
838.131	3142
838.269	3154
838.406	3135
838.544	3104
838.681	2979
838.819	2960
838.956	2861
839.094	2880
839.231	2925
839.369	3081
839.506	3409
839.643	3237
839.781	3013
839.918	3013
840.055	3085
840.193	3081
840.33	3123
840.467	3138
840.604	3195
840.742	3416
840.879	3104
841.016	3070
841.153	3157
841.29	3348
841.427	3310
841.564	3272
841.701	3348
841.838	3237
841.975	3222
842.112	3211
842.249	3100
842.385	3058
842.522	3279
842.659	3131
842.796	3066
842.933	3119
843.069	3070
843.206	3077
843.343	3222
843.479	3146
843.616	3165
843.752	2944
843.889	2918
844.025	3104
844.162	2937
844.298	3058
844.435	2975
844.571	2963
844.708	3093
844.844	3214
844.98	3268
845.117	3222
845.253	3066
845.389	3020
845.525	3146
845.661	3131
845.798	3070
845.934	3131
846.07	3093
846.206	3230
846.342	3294
846.478	3237
846.614	3157
846.75	3074
846.886	3062
847.022	3272
847.158	3161
847.294	3233
847.429	3275
847.565	3218
847.701	3568
847.837	3070
847.972	3024
848.108	3192
848.244	3180
848.379	3051
848.515	2979
848.65	2956
848.786	3005
848.921	3028
849.057	3131
849.192	3180
849.328	3085
849.463	3116
849.598	3093
849.734	3058
849.869	3024
850.004	2922
850.14	2960
850.275	2922
850.41	2861
850.545	2891
850.68	2979
850.815	2982
850.95	3017
851.085	3230
851.22	3157
851.355	3081
851.49	2998
851.625	2975
851.76	3058
851.895	2948
852.03	2918
852.165	3055
852.299	3146
852.434	3195
852.569	3138
852.703	3195
852.838	3268
852.973	3382
853.107	3340
853.242	3180
853.376	3131
853.511	2982
853.645	3058
853.78	3233
853.914	3169
854.048	3146
854.183	3093
854.317	3165
854.451	3313
854.585	3112
854.72	3123
854.854	3226
854.988	3104
855.122	3104
855.256	2994
855.39	3127
855.524	3241
855.658	3218
855.792	3199
855.926	3188
856.06	3233
856.194	3298
856.327	3195
856.461	3112
856.595	3097
856.729	3116
856.862	3195
856.996	3169
857.13	3226
857.263	3264
857.397	3294
857.53	3127
857.664	3211
857.797	3279
857.931	3279
858.064	3241
858.197	3237
858.331	3195
858.464	3138
858.597	3020
858.731	3142
858.864	3142
858.997	3104
859.13	3180
859.263	3188
859.396	3218
859.529	3142
859.662	3093
859.795	3077
859.928	3157
860.061	3294
860.194	3313
860.327	3192
860.46	3104
860.592	3233
860.725	3264
860.858	3291
860.99	3119
861.123	3085
861.256	3043
861.388	3142
861.521	3857
861.653	3028
861.786	2990
861.918	3024
862.05	3077
862.183	3116
862.315	3161
862.447	3207
862.58	3157
862.712	2990
862.844	2918
862.976	3047
863.108	3024
863.24	3313
863.372	2899
863.504	2990
863.636	2967
863.768	2990
863.9	2994
864.032	2933
864.164	2956
864.296	3028
864.428	3089
864.559	3119
864.691	3043
864.823	3062
864.954	3017
865.086	3100
865.217	3032
865.349	2941
865.48	2994
865.612	3028
865.743	3169
865.875	3024
866.006	2960
866.137	3017
866.269	3013
866.4	2963
866.531	2952
866.662	2876
866.793	2918
866.924	2895
867.055	2975
867.186	2933
867.317	2902
867.448	2853
867.579	2849
867.71	2876
867.841	2845
867.972	2952
868.103	2910
868.233	2914
868.364	2933
868.495	2918
868.625	3085
868.756	3184
868.886	2998
869.017	3036
869.147	3154
869.278	3176
869.408	3032
869.539	3005
869.669	3131
869.799	3051
869.929	3184
870.06	3131
870.19	3355
870.32	3298
870.45	3317
870.58	3405
870.71	3424
870.84	3481
870.97	3256
871.1	3275
871.23	3462
871.36	3488
871.489	3370
871.619	3416
871.749	3367
871.879	3504
872.008	3504
872.138	3359
872.267	3310
872.397	3142
872.526	3089
872.656	3058
872.785	3093
872.915	3237
873.044	3291
873.173	3253
873.303	3226
873.432	3237
873.561	3272
873.69	3138
873.819	3150
873.948	3211
874.077	3123
874.206	3077
874.335	3089
874.464	3230
874.593	3401
874.722	3283
874.851	3374
874.979	3344
875.108	3317
875.237	3230
875.365	3180
875.494	3199
875.623	3283
875.751	3112
875.88	3108
876.008	3199
876.136	3241
876.265	3386
876.393	3538
876.521	3439
876.65	3397
876.778	3363
876.906	3237
877.034	3237
877.162	3233
877.29	3188
877.418	3233
877.546	3233
877.674	3245
877.802	3226
877.93	3211
878.058	3161
878.185	3142
878.313	3207
878.441	3233
878.568	3062
878.696	3199
878.824	3283
878.951	3294
879.079	3469
879.206	3648
879.333	3466
879.461	3329
879.588	3370
879.715	3462
879.842	3580
879.97	3420
880.097	3233
880.224	3142
880.351	3195
880.478	3256
880.605	3192
880.732	3214
880.859	3534
880.986	3363
881.112	3332
881.239	3180
881.366	3093
881.493	3028
881.619	3077
881.746	3074
881.872	3100
881.999	3116
882.125	3180
882.252	3268
882.378	3310
882.505	3462
882.631	3313
882.757	3131
882.883	3207
883.01	3237
883.136	3131
883.262	3108
883.388	3127
883.514	3370
883.64	3382
883.766	3287
883.892	3199
884.018	3256
884.143	3428
884.269	3557
884.395	3218
884.52	3142
884.646	3195
884.772	3135
884.897	3097
885.023	3176
885.148	3336
885.274	3412
885.399	3405
885.524	3291
885.65	3260
885.775	3306
885.9	3310
886.025	3443
886.15	3367
886.275	3321
886.4	3241
886.525	3317
886.65	3283
886.775	3310
886.9	3523
887.025	3644
887.149	3443
887.274	3222
887.399	3192
887.523	3207
887.648	3214
887.773	3180
887.897	3393
888.021	3443
888.146	3325
888.27	3447
888.395	3557
888.519	3488
888.643	3439
888.767	3458
888.891	3325
889.015	3275
889.139	3325
889.263	3256
889.387	3443
889.511	3545
889.635	3431
889.759	3291
889.883	3336
890.006	3428
890.13	3462
890.254	3306
890.377	3351
890.501	3230
890.624	3180
890.748	3306
890.871	3222
890.995	3108
891.118	3104
891.241	3184
891.364	3241
891.488	3313
891.611	3173
891.734	3230
891.857	3287
891.98	3199
892.103	3332
892.226	3253
892.349	3275
892.471	3116
892.594	3253
892.717	3317
892.839	3245
892.962	3260
893.085	3378
893.207	3317
893.33	3150
893.452	3233
893.575	3367
893.697	3298
893.819	3481
893.941	3519
894.064	3462
894.186	3241
894.308	3272
894.43	3435
894.552	3519
894.674	3439
894.796	3294
894.918	3283
895.04	3268
895.161	3416
895.283	3416
895.405	3351
895.526	3389
895.648	3443
895.769	3454
895.891	3466
896.012	3481
896.134	3488
896.255	3435
896.376	3401
896.498	3393
896.619	3424
896.74	3374
896.861	3458
896.982	3701
897.103	3854
897.224	3622
897.345	3511
897.466	3447
897.587	3469
897.708	3663
897.828	3530
897.949	3492
898.07	3363
898.19	3401
898.311	3622
898.431	3469
898.552	3526
898.672	3606
898.792	3538
898.913	3549
899.033	3435
899.153	3306
899.273	3192
899.393	3272
899.513	3279
899.633	3317
899.753	3378
899.873	3332
899.993	3329
900.113	3306
900.232	3416
900.352	3367
900.472	3260
900.591	3268
900.711	3321
900.83	3272
900.95	3386
901.069	3538
901.189	3336
901.308	3211
901.427	3154
901.546	3203
901.665	3283
901.784	3336
901.904	3226
902.023	3142
902.141	3017
902.26	3013
902.379	3142
902.498	3100
902.617	3070
902.735	3230
902.854	3237
902.973	3188
903.091	3032
903.21	3077
903.328	3157
903.446	3100
903.565	3097
903.683	3222
903.801	3100
903.919	3272
904.038	3249
904.156	3165
904.274	3294
904.392	3264
904.51	3272
904.627	3325
904.745	3416
904.863	3466
904.981	3291
905.098	3123
905.216	3245
905.334	3279
905.451	3287
905.569	3302
905.686	3393
905.803	3462
905.921	3302
906.038	3450
906.155	3359
906.272	3287
906.389	3348
906.506	3230
906.623	3253
906.74	3245
906.857	3218
906.974	3310
907.091	3450
907.208	3549
907.324	3466
907.441	3374
907.557	3245
907.674	3233
907.79	3226
907.907	3298
908.023	3393
908.139	3378
908.256	3344
908.372	3348
908.488	3367
908.604	3249
908.72	3203
908.836	3272
908.952	3283
909.068	3344
909.184	3469
909.3	3359
909.415	3507
909.531	3481
909.647	3264
909.762	3310
909.878	3264
909.993	3389
910.108	3336
910.224	3294
910.339	3393
910.454	3340
910.57	3317
910.685	3275
910.8	3572
910.915	3515
911.03	3450
911.145	3310
911.259	3302
911.374	3310
911.489	3279
911.604	3245
911.718	3135
911.833	3180
911.947	3024
912.062	3020
912.176	3173
912.291	3226
912.405	3199
912.519	3412
912.633	3458
912.748	3336
912.862	3264
912.976	3176
913.09	3058
913.204	3104
913.318	3176
913.431	3321
913.545	3340
913.659	3370
913.772	3306
913.886	3233
914	3203
914.113	3397
914.226	3462
914.34	3386
914.453	3211
914.566	3458
914.68	3279
914.793	3298
914.906	3138
915.019	3123
915.132	3081
915.245	3157
915.358	3241
915.47	3249
915.583	3241
915.696	3291
915.809	3439
915.921	3450
916.034	3256
916.146	3237
916.259	3233
916.371	3420
916.483	3370
916.595	3302
916.708	3336
916.82	3348
916.932	3325
917.044	3321
917.156	3336
917.268	3226
917.38	3298
917.491	3298
917.603	3382
917.715	3450
917.826	3443
917.938	3393
918.049	3279
918.161	3389
918.272	3584
918.384	3534
918.495	3466
918.606	3367
918.717	3268
918.828	3458
918.939	3420
919.05	3275
919.161	3359
919.272	3165
919.383	3264
919.494	3477
919.604	3671
919.715	3511
919.826	3412
919.936	3439
920.047	3564
920.157	3526
920.267	3720
920.378	3610
920.488	3545
920.598	3812
920.708	3911
920.818	3842
920.928	3850
921.038	4071
921.148	3987
921.258	3740
921.368	3648
921.477	3576
921.587	3542
921.697	3488
921.806	3641
921.916	3534
922.025	3355
922.134	3344
922.244	3313
922.353	3409
922.462	3264
922.571	3287
922.68	3127
922.789	3089
922.898	3138
923.007	3066
923.116	3214
923.224	3173
923.333	3218
923.442	3119
923.55	3085
923.659	3119
923.767	3207
923.876	3157
923.984	3230
924.092	3112
924.201	3218
924.309	3207
924.417	3241
924.525	3169
924.633	3264
924.741	4010
924.849	3066
924.956	3298
925.064	3097
925.172	3070
925.279	3123
925.387	3195
925.494	3199
925.602	3340
925.709	3382
925.816	3211
925.924	3302
926.031	3397
926.138	3348
926.245	3363
926.352	3245
926.459	3416
926.566	3469
926.673	3317
926.779	3203
926.886	3268
926.993	3169
927.099	3119
927.206	3150
927.312	3116
927.419	3188
927.525	3233
927.631	3272
927.737	3169
927.843	3116
927.95	3036
928.056	3150
928.162	3157
928.267	3199
928.373	3770
928.479	3298
928.585	3093
928.69	3230
928.796	3245
928.901	3157
929.007	3077
929.112	3199
929.218	3176
929.323	3146
929.428	3131
929.533	3310
929.638	3093
929.743	3169
929.848	3256
929.953	3245
930.058	3123
930.163	2986
930.267	3070
930.372	3157
930.477	3024
930.581	3310
930.685	3188
930.79	3055
930.894	3138
930.998	3055
931.103	3256
931.207	2952
931.311	2967
931.415	2933
931.519	2804
931.623	2815
