Data from test_V78500241_1950.txt Node
Date: Fri Mar 25 16:28:42 CST 2022
User: usil
Spectrometer: V785-0024
Trigger mode: 0
Integration Time (sec): 4.000000E-1
Scans to average: 1
Nonlinearity correction enabled: false
Boxcar width: 0
Storing dark spectrum: false
XAxis mode: Wavelengths
Number of Pixels in Spectrum: 1024
>>>>>Begin Spectral Data<<<<<
801.071	2887
801.214	2948
801.356	2853
801.499	2887
801.641	2887
801.783	2944
801.926	3055
802.068	2986
802.211	2990
802.353	3005
802.496	2952
802.638	2986
802.78	3089
802.923	3066
803.065	2967
803.208	2902
803.35	2933
803.492	2948
803.635	2925
803.777	2762
803.919	2864
804.061	3230
804.204	2956
804.346	2925
804.488	2815
804.63	2975
804.773	2864
804.915	2910
805.057	3089
805.199	2952
805.341	2975
805.483	3024
805.626	2990
805.768	2979
805.91	3104
806.052	3100
806.194	3032
806.336	3237
806.478	3017
806.62	2925
806.762	2944
806.904	3062
807.046	3154
807.188	2967
807.33	2906
807.472	2960
807.614	2910
807.756	2975
807.898	2944
808.04	2906
808.182	3001
808.324	2922
808.465	2906
808.607	2899
808.749	2781
808.891	2823
809.033	2998
809.174	2963
809.316	2895
809.458	2933
809.6	2769
809.741	2781
809.883	2735
810.025	2849
810.166	2861
810.308	2887
810.45	2845
810.591	2777
810.733	2735
810.875	2849
811.016	2792
811.158	2766
811.299	2800
811.441	2883
811.582	2918
811.724	2811
811.865	2845
812.007	2914
812.148	2842
812.29	2857
812.431	2910
812.573	2941
812.714	2979
812.855	3024
812.997	3051
813.138	3077
813.279	3009
813.421	2971
813.562	2941
813.703	2899
813.845	2872
813.986	2773
814.127	2743
814.268	2815
814.41	2857
814.551	2826
814.692	2868
814.833	2781
814.974	2857
815.115	2941
815.256	2815
815.397	2769
815.539	2838
815.68	2769
815.821	2804
815.962	2941
816.103	2918
816.244	2872
816.385	2864
816.526	2941
816.666	2918
816.807	2701
816.948	2895
817.089	2914
817.23	2842
817.371	2739
817.512	2777
817.653	2872
817.793	2849
817.934	2887
818.075	2937
818.216	2956
818.356	3017
818.497	2842
818.638	2804
818.778	2800
818.919	2804
819.06	2781
819.2	2830
819.341	2815
819.481	2796
819.622	2937
819.762	3093
819.903	3039
820.043	2918
820.184	2922
820.324	2925
820.465	2990
820.605	3017
820.746	3020
820.886	2906
821.026	3058
821.167	3131
821.307	3249
821.447	3264
821.588	3226
821.728	3207
821.868	3184
822.008	3074
822.149	3180
822.289	3237
822.429	3070
822.569	3028
822.709	3173
822.849	2979
822.99	3070
823.13	3131
823.27	3165
823.41	3127
823.55	3146
823.69	3123
823.83	3222
823.97	3043
824.11	2971
824.25	2998
824.389	3062
824.529	3093
824.669	3043
824.809	3161
824.949	3260
825.089	3237
825.228	3169
825.368	3005
825.508	2986
825.648	2960
825.787	2994
825.927	3001
826.067	2986
826.206	2979
826.346	3020
826.485	3055
826.625	3116
826.765	3272
826.904	3199
827.044	2971
827.183	2933
827.323	2849
827.462	2956
827.601	2899
827.741	2937
827.88	2975
828.02	2864
828.159	2967
828.298	3020
828.437	3081
828.577	2990
828.716	3260
828.855	3058
828.994	2922
829.134	2914
829.273	2910
829.412	2861
829.551	2872
829.69	2883
829.829	2979
829.968	3135
830.107	3001
830.246	3028
830.385	2971
830.524	2883
830.663	2811
830.802	2712
830.941	2667
831.08	2659
831.219	2785
831.357	2769
831.496	2922
831.635	2689
831.774	2667
831.913	2670
832.051	2537
832.19	2590
832.329	2674
832.467	2499
832.606	2507
832.744	2568
832.883	2530
833.022	2564
833.16	2644
833.299	2663
833.437	2689
833.576	2697
833.714	2697
833.852	2720
833.991	2777
834.129	2834
834.267	2842
834.406	2788
834.544	2876
834.682	2830
834.821	2861
834.959	3066
835.097	2895
835.235	3066
835.373	3013
835.511	3020
835.65	2937
835.788	2922
835.926	2880
836.064	2823
836.202	2845
836.34	3085
836.478	3116
836.615	3028
836.753	3104
836.891	3188
837.029	3192
837.167	3074
837.305	3039
837.443	3032
837.58	2971
837.718	3119
837.856	3070
837.993	3009
838.131	3081
838.269	3077
838.406	3074
838.544	3108
838.681	2941
838.819	2880
838.956	2807
839.094	2819
839.231	2929
839.369	2998
839.506	3344
839.643	3195
839.781	3013
839.918	2944
840.055	3020
840.193	3043
840.33	3108
840.467	3097
840.604	3165
840.742	3363
840.879	3058
841.016	3020
841.153	3112
841.29	3351
841.427	3264
841.564	3256
841.701	3287
841.838	3249
841.975	3161
842.112	3199
842.249	3074
842.385	3043
842.522	3237
842.659	3085
842.796	3070
842.933	3093
843.069	3043
843.206	3013
843.343	3169
843.479	3066
843.616	3157
843.752	2891
843.889	2830
844.025	3066
844.162	2899
844.298	3066
844.435	2944
844.571	2948
844.708	3066
844.844	3176
844.98	3207
845.117	3184
845.253	3070
845.389	3036
845.525	3127
845.661	3100
845.798	3028
845.934	3097
846.07	3020
846.206	3214
846.342	3336
846.478	3253
846.614	3112
846.75	3058
846.886	2990
847.022	3237
847.158	3154
847.294	3188
847.429	3237
847.565	3222
847.701	3420
847.837	3017
847.972	2971
848.108	3104
848.244	3123
848.379	2975
848.515	2944
848.65	2948
848.786	2937
848.921	3020
849.057	3066
849.192	3119
849.328	3077
849.463	3142
849.598	3047
849.734	3051
849.869	2979
850.004	2902
850.14	2971
850.275	2891
850.41	2849
850.545	2872
850.68	2910
850.815	2937
850.95	2994
851.085	3214
851.22	3100
851.355	3013
851.49	2967
851.625	2994
851.76	2982
851.895	2937
852.03	2887
852.165	3032
852.299	3097
852.434	3157
852.569	3157
852.703	3135
852.838	3214
852.973	3348
853.107	3317
853.242	3165
853.376	3108
853.511	2963
853.645	3032
853.78	3230
853.914	3089
854.048	3062
854.183	3100
854.317	3150
854.451	3268
854.585	3119
854.72	3043
854.854	3180
854.988	3074
855.122	3081
855.256	2979
855.39	3131
855.524	3230
855.658	3173
855.792	3123
855.926	3173
856.06	3230
856.194	3222
856.327	3146
856.461	3058
856.595	3112
856.729	3104
856.862	3211
856.996	3131
857.13	3184
857.263	3199
857.397	3253
857.53	3131
857.664	3169
857.797	3253
857.931	3237
858.064	3154
858.197	3211
858.331	3085
858.464	3093
858.597	3017
858.731	3089
858.864	3127
858.997	3089
859.13	3119
859.263	3188
859.396	3237
859.529	3074
859.662	3055
859.795	3009
859.928	3119
860.061	3291
860.194	3275
860.327	3116
860.46	3074
860.592	3245
860.725	3207
860.858	3237
860.99	3085
861.123	3070
861.256	3058
861.388	3146
861.521	3854
861.653	3001
861.786	2963
861.918	2994
862.05	3055
862.183	3085
862.315	3150
862.447	3195
862.58	3093
862.712	2948
862.844	2883
862.976	3017
863.108	3001
863.24	3291
863.372	2834
863.504	2929
863.636	2925
863.768	3074
863.9	2994
864.032	2895
864.164	2944
864.296	2982
864.428	3112
864.559	3108
864.691	3093
864.823	3108
864.954	3020
865.086	3051
865.217	2971
865.349	2952
865.48	3036
865.612	2990
865.743	3169
865.875	2963
866.006	2918
866.137	2944
866.269	2948
866.4	2922
866.531	2887
866.662	2902
866.793	2906
866.924	2902
867.055	2937
867.186	2883
867.317	2883
867.448	2819
867.579	2834
867.71	2823
867.841	2826
867.972	2887
868.103	2899
868.233	2899
868.364	2864
868.495	2857
868.625	3070
868.756	3123
868.886	2914
869.017	3024
869.147	3184
869.278	3188
869.408	3028
869.539	3020
869.669	3062
869.799	3051
869.929	3112
870.06	3085
870.19	3294
870.32	3268
870.45	3260
870.58	3367
870.71	3462
870.84	3386
870.97	3279
871.1	3241
871.23	3466
871.36	3454
871.489	3317
871.619	3409
871.749	3431
871.879	3412
872.008	3477
872.138	3405
872.267	3245
872.397	3112
872.526	3085
872.656	3020
872.785	3104
872.915	3275
873.044	3317
873.173	3207
873.303	3245
873.432	3253
873.561	3237
873.69	3150
873.819	3146
873.948	3184
874.077	3138
874.206	3051
874.335	3070
874.464	3226
874.593	3374
874.722	3226
874.851	3393
874.979	3351
875.108	3329
875.237	3165
875.365	3154
875.494	3161
875.623	3279
875.751	3077
875.88	3116
876.008	3188
876.136	3233
876.265	3370
876.393	3458
876.521	3401
876.65	3370
876.778	3332
876.906	3241
877.034	3184
877.162	3214
877.29	3207
877.418	3184
877.546	3214
877.674	3241
877.802	3222
877.93	3241
878.058	3123
878.185	3108
878.313	3173
878.441	3207
878.568	3055
878.696	3199
878.824	3245
878.951	3279
879.079	3443
879.206	3595
879.333	3428
879.461	3325
879.588	3340
879.715	3473
879.842	3595
879.97	3393
880.097	3146
880.224	3116
880.351	3173
880.478	3169
880.605	3222
880.732	3199
880.859	3504
880.986	3291
881.112	3329
881.239	3199
881.366	3123
881.493	3043
881.619	2994
881.746	3051
881.872	3100
881.999	3077
882.125	3127
882.252	3241
882.378	3291
882.505	3428
882.631	3272
882.757	3131
882.883	3241
883.01	3222
883.136	3173
883.262	3066
883.388	3089
883.514	3321
883.64	3351
883.766	3287
883.892	3176
884.018	3192
884.143	3397
884.269	3504
884.395	3192
884.52	3169
884.646	3169
884.772	3123
884.897	3100
885.023	3203
885.148	3325
885.274	3359
885.399	3374
885.524	3260
885.65	3237
885.775	3287
885.9	3302
886.025	3439
886.15	3321
886.275	3306
886.4	3222
886.525	3325
886.65	3279
886.775	3268
886.9	3473
887.025	3622
887.149	3382
887.274	3294
887.399	3173
887.523	3184
887.648	3173
887.773	3211
887.897	3367
888.021	3401
888.146	3291
888.27	3462
888.395	3500
888.519	3409
888.643	3443
888.767	3412
888.891	3317
889.015	3264
889.139	3317
889.263	3245
889.387	3416
889.511	3481
889.635	3435
889.759	3283
889.883	3275
890.006	3378
890.13	3450
890.254	3272
890.377	3344
890.501	3203
890.624	3165
890.748	3287
890.871	3180
890.995	3138
891.118	3055
891.241	3180
891.364	3226
891.488	3325
891.611	3154
891.734	3245
891.857	3275
891.98	3268
892.103	3313
892.226	3279
892.349	3230
892.471	3135
892.594	3218
892.717	3283
892.839	3275
892.962	3294
893.085	3359
893.207	3298
893.33	3180
893.452	3211
893.575	3325
893.697	3253
893.819	3488
893.941	3492
894.064	3458
894.186	3291
894.308	3245
894.43	3450
894.552	3523
894.674	3466
894.796	3230
894.918	3317
895.04	3325
895.161	3416
895.283	3367
895.405	3329
895.526	3344
895.648	3420
895.769	3370
895.891	3424
896.012	3443
896.134	3447
896.255	3386
896.376	3363
896.498	3363
896.619	3412
896.74	3389
896.861	3443
896.982	3652
897.103	3827
897.224	3576
897.345	3523
897.466	3382
897.587	3466
897.708	3618
897.828	3534
897.949	3412
898.07	3302
898.19	3443
898.311	3618
898.431	3428
898.552	3485
898.672	3580
898.792	3591
898.913	3515
899.033	3428
899.153	3249
899.273	3230
899.393	3283
899.513	3260
899.633	3291
899.753	3317
899.873	3302
899.993	3378
900.113	3336
900.232	3374
900.352	3321
900.472	3306
900.591	3237
900.711	3279
900.83	3241
900.95	3428
901.069	3450
901.189	3340
901.308	3192
901.427	3108
901.546	3192
901.665	3294
901.784	3340
901.904	3203
902.023	3146
902.141	2994
902.26	2963
902.379	3116
902.498	3062
902.617	3032
902.735	3165
902.854	3233
902.973	3173
903.091	3032
903.21	3058
903.328	3112
903.446	3100
903.565	3066
903.683	3184
903.801	3112
903.919	3233
904.038	3275
904.156	3154
904.274	3283
904.392	3245
904.51	3283
904.627	3351
904.745	3481
904.863	3473
904.981	3260
905.098	3150
905.216	3214
905.334	3298
905.451	3275
905.569	3272
905.686	3409
905.803	3447
905.921	3249
906.038	3447
906.155	3348
906.272	3275
906.389	3348
906.506	3237
906.623	3249
906.74	3272
906.857	3203
906.974	3211
907.091	3447
907.208	3542
907.324	3466
907.441	3386
907.557	3199
907.674	3249
907.79	3230
907.907	3249
908.023	3363
908.139	3370
908.256	3317
908.372	3370
908.488	3363
908.604	3256
908.72	3222
908.836	3233
908.952	3279
909.068	3329
909.184	3492
909.3	3370
909.415	3488
909.531	3488
909.647	3253
909.762	3325
909.878	3222
909.993	3378
910.108	3306
910.224	3332
910.339	3363
910.454	3363
910.57	3283
910.685	3233
910.8	3606
910.915	3530
911.03	3431
911.145	3249
911.259	3260
911.374	3313
911.489	3241
911.604	3199
911.718	3097
911.833	3119
911.947	3032
912.062	2960
912.176	3157
912.291	3150
912.405	3230
912.519	3431
912.633	3428
912.748	3336
912.862	3287
912.976	3154
913.09	3089
913.204	3112
913.318	3180
913.431	3325
913.545	3321
913.659	3382
913.772	3313
913.886	3188
914	3207
914.113	3313
914.226	3401
914.34	3351
914.453	3222
914.566	3397
914.68	3306
914.793	3310
914.906	3154
915.019	3100
915.132	3077
915.245	3195
915.358	3184
915.47	3249
915.583	3272
915.696	3336
915.809	3370
915.921	3424
916.034	3283
916.146	3272
916.259	3199
916.371	3348
916.483	3382
916.595	3256
916.708	3344
916.82	3336
916.932	3351
917.044	3351
917.156	3329
917.268	3283
917.38	3256
917.491	3302
917.603	3351
917.715	3435
917.826	3458
917.938	3374
918.049	3275
918.161	3420
918.272	3538
918.384	3511
918.495	3507
918.606	3340
918.717	3256
918.828	3363
918.939	3393
919.05	3298
919.161	3374
919.272	3169
919.383	3291
919.494	3500
919.604	3667
919.715	3462
919.826	3424
919.936	3439
920.047	3595
920.157	3587
920.267	3781
920.378	3591
920.488	3622
920.598	3774
920.708	3972
920.818	3827
920.928	3831
921.038	4051
921.148	4010
921.258	3717
921.368	3656
921.477	3584
921.587	3564
921.697	3447
921.806	3618
921.916	3462
922.025	3389
922.134	3340
922.244	3351
922.353	3412
922.462	3230
922.571	3203
922.68	3070
922.789	3055
922.898	3173
923.007	3146
923.116	3195
923.224	3154
923.333	3214
923.442	3081
923.55	3131
923.659	3135
923.767	3188
923.876	3089
923.984	3230
924.092	3108
924.201	3169
924.309	3169
924.417	3268
924.525	3211
924.633	3218
924.741	4162
924.849	3039
924.956	3272
925.064	3077
925.172	3036
925.279	3085
925.387	3188
925.494	3165
925.602	3344
925.709	3310
925.816	3188
925.924	3283
926.031	3420
926.138	3317
926.245	3355
926.352	3245
926.459	3397
926.566	3462
926.673	3291
926.779	3237
926.886	3256
926.993	3135
927.099	3100
927.206	3104
927.312	3116
927.419	3207
927.525	3218
927.631	3222
927.737	3116
927.843	3173
927.95	3028
928.056	3142
928.162	3176
928.267	3199
928.373	3846
928.479	3317
928.585	3055
928.69	3222
928.796	3275
928.901	3161
929.007	3009
929.112	3203
929.218	3150
929.323	3119
929.428	3157
929.533	3291
929.638	3116
929.743	3169
929.848	3260
929.953	3192
930.058	3142
930.163	2986
930.267	2998
930.372	3184
930.477	3036
930.581	3302
930.685	3157
930.79	3077
930.894	3135
930.998	3077
931.103	3256
931.207	2929
931.311	2937
931.415	2902
931.519	2766
931.623	2815
