Data from test_V78500241_804.txt Node
Date: Fri Mar 25 16:20:46 CST 2022
User: usil
Spectrometer: V785-0024
Trigger mode: 0
Integration Time (sec): 4.000000E-1
Scans to average: 1
Nonlinearity correction enabled: false
Boxcar width: 0
Storing dark spectrum: false
XAxis mode: Wavelengths
Number of Pixels in Spectrum: 1024
>>>>>Begin Spectral Data<<<<<
801.071	2891
801.214	2941
801.356	2868
801.499	2883
801.641	2887
801.783	2922
801.926	3051
802.068	2975
802.211	2998
802.353	3055
802.496	2982
802.638	3013
802.78	3017
802.923	3108
803.065	2979
803.208	2857
803.35	2922
803.492	2941
803.635	2937
803.777	2746
803.919	2883
804.061	3214
804.204	2952
804.346	2895
804.488	2826
804.63	2933
804.773	2895
804.915	2914
805.057	3112
805.199	2952
805.341	2971
805.483	3024
805.626	2971
805.768	2963
805.91	3100
806.052	3108
806.194	3020
806.336	3241
806.478	3020
806.62	2944
806.762	3032
806.904	3077
807.046	3138
807.188	2952
807.33	2914
807.472	2990
807.614	2887
807.756	2982
807.898	2952
808.04	2872
808.182	2960
808.324	2975
808.465	2895
808.607	2876
808.749	2800
808.891	2861
809.033	2963
809.174	2941
809.316	2872
809.458	2918
809.6	2746
809.741	2750
809.883	2746
810.025	2849
810.166	2887
810.308	2796
810.45	2845
810.591	2781
810.733	2750
810.875	2834
811.016	2773
811.158	2731
811.299	2792
811.441	2925
811.582	2906
811.724	2826
811.865	2804
812.007	2883
812.148	2842
812.29	2868
812.431	2868
812.573	2922
812.714	2960
812.855	3020
812.997	3017
813.138	3135
813.279	3024
813.421	2948
813.562	2948
813.703	2883
813.845	2891
813.986	2754
814.127	2731
814.268	2811
814.41	2826
814.551	2819
814.692	2868
814.833	2834
814.974	2861
815.115	2952
815.256	2800
815.397	2826
815.539	2849
815.68	2758
815.821	2781
815.962	2948
816.103	2979
816.244	2861
816.385	2899
816.526	2990
816.666	2849
816.807	2735
816.948	2902
817.089	2933
817.23	2834
817.371	2800
817.512	2792
817.653	2853
817.793	2804
817.934	2853
818.075	2937
818.216	2986
818.356	3020
818.497	2872
818.638	2785
818.778	2807
818.919	2762
819.06	2769
819.2	2895
819.341	2800
819.481	2788
819.622	2910
819.762	3104
819.903	2998
820.043	2933
820.184	2899
820.324	2906
820.465	3009
820.605	2982
820.746	3009
820.886	2975
821.026	3119
821.167	3154
821.307	3287
821.447	3233
821.588	3233
821.728	3199
821.868	3214
822.008	3066
822.149	3173
822.289	3211
822.429	3100
822.569	3062
822.709	3207
822.849	3020
822.99	3055
823.13	3157
823.27	3211
823.41	3036
823.55	3135
823.69	3138
823.83	3173
823.97	3104
824.11	3001
824.25	2963
824.389	3047
824.529	3104
824.669	3066
824.809	3207
824.949	3317
825.089	3218
825.228	3157
825.368	3001
825.508	3005
825.648	2971
825.787	3005
825.927	3043
826.067	2941
826.206	2963
826.346	3028
826.485	3081
826.625	3097
826.765	3287
826.904	3203
827.044	2998
827.183	2902
827.323	2815
827.462	2960
827.601	2895
827.741	2956
827.88	2948
828.02	2849
828.159	2948
828.298	3009
828.437	3123
828.577	3020
828.716	3218
828.855	3093
828.994	2914
829.134	2887
829.273	2891
829.412	2864
829.551	2861
829.69	2899
829.829	2967
829.968	3146
830.107	2994
830.246	2979
830.385	2918
830.524	2868
830.663	2807
830.802	2735
830.941	2667
831.08	2636
831.219	2762
831.357	2758
831.496	2933
831.635	2708
831.774	2617
831.913	2655
832.051	2541
832.19	2598
832.329	2640
832.467	2514
832.606	2495
832.744	2579
832.883	2587
833.022	2617
833.16	2644
833.299	2674
833.437	2697
833.576	2667
833.714	2750
833.852	2712
833.991	2758
834.129	2826
834.267	2819
834.406	2785
834.544	2899
834.682	2895
834.821	2864
834.959	3074
835.097	2887
835.235	3085
835.373	3028
835.511	2982
835.65	2944
835.788	2986
835.926	2796
836.064	2826
836.202	2842
836.34	3085
836.478	3112
836.615	3036
836.753	3131
836.891	3192
837.029	3157
837.167	3100
837.305	3043
837.443	3074
837.58	2952
837.718	3093
837.856	3085
837.993	3001
838.131	3100
838.269	3131
838.406	3116
838.544	3047
838.681	2925
838.819	2902
838.956	2788
839.094	2815
839.231	2902
839.369	3013
839.506	3336
839.643	3199
839.781	2986
839.918	2971
840.055	3070
840.193	3062
840.33	3013
840.467	3104
840.604	3150
840.742	3386
840.879	3058
841.016	3085
841.153	3085
841.29	3329
841.427	3298
841.564	3264
841.701	3325
841.838	3199
841.975	3203
842.112	3192
842.249	3070
842.385	3055
842.522	3260
842.659	3100
842.796	3062
842.933	3074
843.069	3032
843.206	3009
843.343	3138
843.479	3104
843.616	3112
843.752	2910
843.889	2857
844.025	3058
844.162	2880
844.298	3081
844.435	2910
844.571	2895
844.708	3074
844.844	3161
844.98	3173
845.117	3157
845.253	3020
845.389	2994
845.525	3119
845.661	3089
845.798	2986
845.934	3081
846.07	3062
846.206	3260
846.342	3306
846.478	3203
846.614	3062
846.75	3036
846.886	3039
847.022	3222
847.158	3123
847.294	3176
847.429	3218
847.565	3199
847.701	3477
847.837	3032
847.972	2994
848.108	3150
848.244	3119
848.379	2975
848.515	2922
848.65	2918
848.786	3001
848.921	2967
849.057	3123
849.192	3161
849.328	3070
849.463	3089
849.598	3085
849.734	3055
849.869	2971
850.004	2925
850.14	2941
850.275	2906
850.41	2853
850.545	2864
850.68	2929
850.815	2971
850.95	2937
851.085	3157
851.22	3108
851.355	3077
851.49	2994
851.625	3032
851.76	3017
851.895	2952
852.03	2887
852.165	3062
852.299	3108
852.434	3180
852.569	3100
852.703	3165
852.838	3237
852.973	3310
853.107	3317
853.242	3180
853.376	3108
853.511	2952
853.645	3043
853.78	3203
853.914	3112
854.048	3119
854.183	3070
854.317	3127
854.451	3279
854.585	3135
854.72	3097
854.854	3214
854.988	3043
855.122	3085
855.256	2933
855.39	3146
855.524	3222
855.658	3173
855.792	3154
855.926	3192
856.06	3218
856.194	3260
856.327	3135
856.461	3108
856.595	3074
856.729	3070
856.862	3222
856.996	3169
857.13	3233
857.263	3165
857.397	3264
857.53	3131
857.664	3184
857.797	3214
857.931	3245
858.064	3123
858.197	3169
858.331	3119
858.464	3093
858.597	2986
858.731	3089
858.864	3104
858.997	3058
859.13	3176
859.263	3157
859.396	3207
859.529	3070
859.662	3039
859.795	3066
859.928	3150
860.061	3245
860.194	3298
860.327	3135
860.46	3112
860.592	3279
860.725	3214
860.858	3211
860.99	3104
861.123	3009
861.256	3066
861.388	3138
861.521	3956
861.653	3028
861.786	2937
861.918	2986
862.05	3043
862.183	3074
862.315	3157
862.447	3218
862.58	3116
862.712	2929
862.844	2857
862.976	3032
863.108	3001
863.24	3294
863.372	2891
863.504	2971
863.636	2918
863.768	3013
863.9	2933
864.032	2914
864.164	2922
864.296	3020
864.428	3074
864.559	3119
864.691	3043
864.823	3062
864.954	3055
865.086	2982
865.217	2979
865.349	2941
865.48	2952
865.612	2990
865.743	3142
865.875	2986
866.006	2956
866.137	2956
866.269	2952
866.4	2941
866.531	2937
866.662	2864
866.793	2880
866.924	2914
867.055	2960
867.186	2891
867.317	2872
867.448	2845
867.579	2842
867.71	2857
867.841	2800
867.972	2899
868.103	2880
868.233	2902
868.364	2857
868.495	2868
868.625	3100
868.756	3150
868.886	2975
869.017	3028
869.147	3169
869.278	3157
869.408	3020
869.539	3032
869.669	3108
869.799	3066
869.929	3108
870.06	3127
870.19	3329
870.32	3298
870.45	3306
870.58	3340
870.71	3439
870.84	3416
870.97	3275
871.1	3218
871.23	3458
871.36	3447
871.489	3313
871.619	3386
871.749	3397
871.879	3416
872.008	3466
872.138	3363
872.267	3256
872.397	3142
872.526	3077
872.656	3032
872.785	3058
872.915	3207
873.044	3325
873.173	3218
873.303	3233
873.432	3211
873.561	3241
873.69	3131
873.819	3112
873.948	3199
874.077	3123
874.206	3020
874.335	3055
874.464	3180
874.593	3363
874.722	3256
874.851	3370
874.979	3355
875.108	3336
875.237	3169
875.365	3157
875.494	3154
875.623	3249
875.751	3089
875.88	3127
876.008	3199
876.136	3199
876.265	3348
876.393	3500
876.521	3420
876.65	3412
876.778	3317
876.906	3233
877.034	3184
877.162	3241
877.29	3176
877.418	3260
877.546	3184
877.674	3256
877.802	3207
877.93	3218
878.058	3123
878.185	3112
878.313	3226
878.441	3195
878.568	3089
878.696	3135
878.824	3214
878.951	3279
879.079	3458
879.206	3618
879.333	3428
879.461	3313
879.588	3382
879.715	3462
879.842	3591
879.97	3344
880.097	3154
880.224	3127
880.351	3199
880.478	3203
880.605	3195
880.732	3176
880.859	3485
880.986	3321
881.112	3325
881.239	3188
881.366	3116
881.493	2998
881.619	3028
881.746	3074
881.872	3093
881.999	3108
882.125	3119
882.252	3253
882.378	3245
882.505	3443
882.631	3298
882.757	3150
882.883	3188
883.01	3176
883.136	3169
883.262	3108
883.388	3097
883.514	3340
883.64	3389
883.766	3256
883.892	3180
884.018	3218
884.143	3409
884.269	3538
884.395	3226
884.52	3173
884.646	3188
884.772	3097
884.897	3093
885.023	3192
885.148	3329
885.274	3386
885.399	3359
885.524	3283
885.65	3241
885.775	3302
885.9	3272
886.025	3397
886.15	3370
886.275	3272
886.4	3245
886.525	3302
886.65	3249
886.775	3298
886.9	3477
887.025	3682
887.149	3412
887.274	3256
887.399	3161
887.523	3176
887.648	3146
887.773	3237
887.897	3393
888.021	3439
888.146	3310
888.27	3409
888.395	3526
888.519	3416
888.643	3435
888.767	3412
888.891	3321
889.015	3260
889.139	3291
889.263	3222
889.387	3348
889.511	3466
889.635	3405
889.759	3287
889.883	3321
890.006	3378
890.13	3473
890.254	3279
890.377	3313
890.501	3241
890.624	3176
890.748	3298
890.871	3176
890.995	3093
891.118	3081
891.241	3157
891.364	3199
891.488	3310
891.611	3127
891.734	3218
891.857	3275
891.98	3253
892.103	3302
892.226	3268
892.349	3176
892.471	3097
892.594	3218
892.717	3256
892.839	3260
892.962	3279
893.085	3344
893.207	3317
893.33	3123
893.452	3211
893.575	3378
893.697	3218
893.819	3393
893.941	3492
894.064	3458
894.186	3256
894.308	3245
894.43	3443
894.552	3523
894.674	3458
894.796	3253
894.918	3321
895.04	3272
895.161	3439
895.283	3370
895.405	3306
895.526	3370
895.648	3435
895.769	3420
895.891	3431
896.012	3466
896.134	3458
896.255	3409
896.376	3374
896.498	3321
896.619	3367
896.74	3359
896.861	3389
896.982	3675
897.103	3850
897.224	3633
897.345	3507
897.466	3473
897.587	3519
897.708	3603
897.828	3534
897.949	3420
898.07	3283
898.19	3443
898.311	3625
898.431	3462
898.552	3534
898.672	3618
898.792	3610
898.913	3545
899.033	3450
899.153	3264
899.273	3222
899.393	3279
899.513	3294
899.633	3317
899.753	3325
899.873	3329
899.993	3389
900.113	3370
900.232	3412
900.352	3298
900.472	3306
900.591	3195
900.711	3260
900.83	3188
900.95	3386
901.069	3473
901.189	3363
901.308	3150
901.427	3119
901.546	3184
901.665	3264
901.784	3313
901.904	3192
902.023	3127
902.141	3005
902.26	2971
902.379	3161
902.498	3081
902.617	3047
902.735	3176
902.854	3256
902.973	3203
903.091	3089
903.21	3051
903.328	3154
903.446	3093
903.565	3116
903.683	3176
903.801	3131
903.919	3283
904.038	3253
904.156	3138
904.274	3256
904.392	3249
904.51	3287
904.627	3275
904.745	3389
904.863	3515
904.981	3207
905.098	3184
905.216	3211
905.334	3268
905.451	3313
905.569	3321
905.686	3416
905.803	3412
905.921	3264
906.038	3424
906.155	3367
906.272	3245
906.389	3294
906.506	3214
906.623	3264
906.74	3264
906.857	3226
906.974	3283
907.091	3435
907.208	3530
907.324	3450
907.441	3367
907.557	3180
907.674	3256
907.79	3222
907.907	3260
908.023	3393
908.139	3344
908.256	3325
908.372	3374
908.488	3317
908.604	3214
908.72	3249
908.836	3306
908.952	3283
909.068	3329
909.184	3469
909.3	3351
909.415	3485
909.531	3481
909.647	3249
909.762	3279
909.878	3256
909.993	3329
910.108	3302
910.224	3325
910.339	3420
910.454	3355
910.57	3283
910.685	3214
910.8	3564
910.915	3523
911.03	3435
911.145	3298
911.259	3260
911.374	3298
911.489	3222
911.604	3245
911.718	3142
911.833	3169
911.947	3013
912.062	2963
912.176	3184
912.291	3203
912.405	3192
912.519	3386
912.633	3435
912.748	3306
912.862	3264
912.976	3188
913.09	3039
913.204	3131
913.318	3195
913.431	3351
913.545	3332
913.659	3420
913.772	3298
913.886	3211
914	3214
914.113	3378
914.226	3405
914.34	3370
914.453	3245
914.566	3370
914.68	3287
914.793	3313
914.906	3165
915.019	3108
915.132	3077
915.245	3142
915.358	3207
915.47	3203
915.583	3260
915.696	3283
915.809	3389
915.921	3370
916.034	3260
916.146	3260
916.259	3214
916.371	3355
916.483	3348
916.595	3249
916.708	3363
916.82	3321
916.932	3306
917.044	3340
917.156	3325
917.268	3211
917.38	3283
917.491	3260
917.603	3332
917.715	3454
917.826	3439
917.938	3370
918.049	3249
918.161	3409
918.272	3606
918.384	3534
918.495	3466
918.606	3336
918.717	3264
918.828	3389
918.939	3389
919.05	3275
919.161	3405
919.272	3173
919.383	3268
919.494	3473
919.604	3690
919.715	3481
919.826	3382
919.936	3454
920.047	3576
920.157	3591
920.267	3755
920.378	3629
920.488	3580
920.598	3762
920.708	3968
920.818	3831
920.928	3846
921.038	4051
921.148	4021
921.258	3717
921.368	3701
921.477	3572
921.587	3504
921.697	3473
921.806	3656
921.916	3530
922.025	3351
922.134	3393
922.244	3321
922.353	3424
922.462	3298
922.571	3218
922.68	3123
922.789	3116
922.898	3123
923.007	3123
923.116	3241
923.224	3214
923.333	3218
923.442	3157
923.55	3131
923.659	3203
923.767	3260
923.876	3154
923.984	3256
924.092	3127
924.201	3195
924.309	3245
924.417	3294
924.525	3211
924.633	3249
924.741	4215
924.849	3066
924.956	3310
925.064	3119
925.172	3093
925.279	3119
925.387	3253
925.494	3233
925.602	3370
925.709	3374
925.816	3253
925.924	3332
926.031	3424
926.138	3348
926.245	3378
926.352	3329
926.459	3469
926.566	3488
926.673	3367
926.779	3294
926.886	3306
926.993	3207
927.099	3180
927.206	3176
927.312	3169
927.419	3291
927.525	3298
927.631	3302
927.737	3195
927.843	3169
927.95	3058
928.056	3195
928.162	3222
928.267	3264
928.373	3812
928.479	3336
928.585	3097
928.69	3230
928.796	3348
928.901	3222
929.007	3081
929.112	3275
929.218	3233
929.323	3176
929.428	3230
929.533	3405
929.638	3135
929.743	3214
929.848	3313
929.953	3268
930.058	3184
930.163	3058
930.267	3135
930.372	3253
930.477	3085
930.581	3370
930.685	3264
930.79	3062
930.894	3146
930.998	3131
931.103	3344
931.207	3005
931.311	3001
931.415	2948
931.519	2800
931.623	2845
