Data from test_V78500241_781.txt Node
Date: Fri Mar 25 16:20:36 CST 2022
User: usil
Spectrometer: V785-0024
Trigger mode: 0
Integration Time (sec): 4.000000E-1
Scans to average: 1
Nonlinearity correction enabled: false
Boxcar width: 0
Storing dark spectrum: false
XAxis mode: Wavelengths
Number of Pixels in Spectrum: 1024
>>>>>Begin Spectral Data<<<<<
801.071	2902
801.214	2960
801.356	2933
801.499	2910
801.641	2910
801.783	2910
801.926	3066
802.068	2994
802.211	3043
802.353	3062
802.496	2967
802.638	3024
802.78	3062
802.923	3112
803.065	3039
803.208	2918
803.35	2929
803.492	2948
803.635	2948
803.777	2792
803.919	2880
804.061	3203
804.204	2979
804.346	2910
804.488	2891
804.63	3028
804.773	2902
804.915	2914
805.057	3104
805.199	2960
805.341	2971
805.483	3024
805.626	3017
805.768	2971
805.91	3093
806.052	3119
806.194	3032
806.336	3253
806.478	3036
806.62	2937
806.762	2979
806.904	3081
807.046	3169
807.188	2990
807.33	2922
807.472	2956
807.614	2910
807.756	2982
807.898	2948
808.04	2891
808.182	2994
808.324	3020
808.465	2883
808.607	2872
808.749	2800
808.891	2872
809.033	2982
809.174	2986
809.316	2895
809.458	2899
809.6	2800
809.741	2792
809.883	2773
810.025	2895
810.166	2895
810.308	2868
810.45	2891
810.591	2750
810.733	2800
810.875	2807
811.016	2788
811.158	2735
811.299	2804
811.441	2933
811.582	2876
811.724	2868
811.865	2819
812.007	2937
812.148	2868
812.29	2849
812.431	2902
812.573	2925
812.714	2960
812.855	3028
812.997	3066
813.138	3150
813.279	3020
813.421	2982
813.562	2952
813.703	2880
813.845	2872
813.986	2796
814.127	2739
814.268	2823
814.41	2804
814.551	2823
814.692	2864
814.833	2815
814.974	2914
815.115	2975
815.256	2785
815.397	2815
815.539	2906
815.68	2769
815.821	2830
815.962	2952
816.103	2941
816.244	2872
816.385	2842
816.526	2937
816.666	2929
816.807	2754
816.948	2876
817.089	2918
817.23	2842
817.371	2762
817.512	2819
817.653	2800
817.793	2788
817.934	2845
818.075	2971
818.216	3001
818.356	2979
818.497	2842
818.638	2830
818.778	2842
818.919	2788
819.06	2743
819.2	2876
819.341	2834
819.481	2773
819.622	2918
819.762	3123
819.903	3036
820.043	2906
820.184	2880
820.324	2857
820.465	3036
820.605	3036
820.746	3039
820.886	2948
821.026	3093
821.167	3146
821.307	3275
821.447	3344
821.588	3214
821.728	3211
821.868	3188
822.008	3112
822.149	3233
822.289	3241
822.429	3100
822.569	3127
822.709	3218
822.849	3051
822.99	3116
823.13	3199
823.27	3268
823.41	3131
823.55	3169
823.69	3188
823.83	3237
823.97	3135
824.11	3017
824.25	3055
824.389	3146
824.529	3157
824.669	3116
824.809	3241
824.949	3298
825.089	3287
825.228	3195
825.368	3028
825.508	3013
825.648	3001
825.787	3024
825.927	3051
826.067	2998
826.206	3020
826.346	3077
826.485	3093
826.625	3154
826.765	3336
826.904	3275
827.044	3028
827.183	3009
827.323	2887
827.462	3020
827.601	2986
827.741	2986
827.88	2990
828.02	2895
828.159	2975
828.298	3100
828.437	3127
828.577	3074
828.716	3260
828.855	3123
828.994	2960
829.134	2914
829.273	2925
829.412	2906
829.551	2937
829.69	2941
829.829	3024
829.968	3176
830.107	3043
830.246	3032
830.385	2979
830.524	2910
830.663	2853
830.802	2769
830.941	2693
831.08	2682
831.219	2777
831.357	2769
831.496	2963
831.635	2746
831.774	2674
831.913	2682
832.051	2579
832.19	2644
832.329	2712
832.467	2598
832.606	2526
832.744	2621
832.883	2602
833.022	2621
833.16	2716
833.299	2708
833.437	2743
833.576	2754
833.714	2735
833.852	2762
833.991	2788
834.129	2864
834.267	2849
834.406	2838
834.544	2922
834.682	2910
834.821	2922
834.959	3093
835.097	2883
835.235	3116
835.373	3001
835.511	3020
835.65	3005
835.788	2990
835.926	2830
836.064	2842
836.202	2899
836.34	3123
836.478	3199
836.615	3058
836.753	3161
836.891	3253
837.029	3173
837.167	3131
837.305	3093
837.443	3058
837.58	2975
837.718	3203
837.856	3070
837.993	3058
838.131	3131
838.269	3161
838.406	3150
838.544	3119
838.681	2975
838.819	2990
838.956	2845
839.094	2849
839.231	2967
839.369	3077
839.506	3386
839.643	3245
839.781	3062
839.918	3024
840.055	3077
840.193	3074
840.33	3100
840.467	3146
840.604	3188
840.742	3428
840.879	3074
841.016	3100
841.153	3142
841.29	3355
841.427	3302
841.564	3272
841.701	3351
841.838	3253
841.975	3203
842.112	3211
842.249	3104
842.385	3043
842.522	3249
842.659	3077
842.796	3116
842.933	3104
843.069	3070
843.206	3077
843.343	3218
843.479	3127
843.616	3169
843.752	2914
843.889	2899
844.025	3093
844.162	2895
844.298	3127
844.435	2990
844.571	2948
844.708	3123
844.844	3249
844.98	3253
845.117	3184
845.253	3066
845.389	3043
845.525	3138
845.661	3112
845.798	3028
845.934	3161
846.07	3089
846.206	3249
846.342	3344
846.478	3222
846.614	3112
846.75	3051
846.886	3024
847.022	3233
847.158	3173
847.294	3203
847.429	3260
847.565	3226
847.701	3523
847.837	3036
847.972	3020
848.108	3157
848.244	3184
848.379	3013
848.515	2960
848.65	2925
848.786	3047
848.921	3070
849.057	3150
849.192	3192
849.328	3104
849.463	3127
849.598	3085
849.734	3036
849.869	3017
850.004	2944
850.14	3013
850.275	2944
850.41	2857
850.545	2944
850.68	2906
850.815	2990
850.95	3017
851.085	3180
851.22	3146
851.355	3081
851.49	3017
851.625	3017
851.76	3047
851.895	2967
852.03	2948
852.165	3039
852.299	3142
852.434	3176
852.569	3192
852.703	3253
852.838	3253
852.973	3370
853.107	3374
853.242	3142
853.376	3123
853.511	3024
853.645	3036
853.78	3272
853.914	3165
854.048	3112
854.183	3112
854.317	3173
854.451	3321
854.585	3119
854.72	3104
854.854	3230
854.988	3066
855.122	3142
855.256	3032
855.39	3154
855.524	3245
855.658	3207
855.792	3154
855.926	3241
856.06	3272
856.194	3241
856.327	3188
856.461	3108
856.595	3081
856.729	3112
856.862	3233
856.996	3211
857.13	3218
857.263	3245
857.397	3294
857.53	3157
857.664	3226
857.797	3241
857.931	3287
858.064	3195
858.197	3245
858.331	3165
858.464	3116
858.597	3032
858.731	3131
858.864	3142
858.997	3077
859.13	3165
859.263	3203
859.396	3226
859.529	3119
859.662	3108
859.795	3058
859.928	3142
860.061	3321
860.194	3306
860.327	3150
860.46	3112
860.592	3272
860.725	3241
860.858	3317
860.99	3138
861.123	3074
861.256	3085
861.388	3169
861.521	3930
861.653	3036
861.786	3036
861.918	3039
862.05	3081
862.183	3097
862.315	3165
862.447	3214
862.58	3173
862.712	2971
862.844	2906
862.976	3043
863.108	3051
863.24	3454
863.372	2906
863.504	2990
863.636	2994
863.768	3047
863.9	3001
864.032	2902
864.164	2982
864.296	3047
864.428	3081
864.559	3104
864.691	3135
864.823	3112
864.954	3043
865.086	3070
865.217	3070
865.349	2963
865.48	3024
865.612	3043
865.743	3150
865.875	3005
866.006	3005
866.137	3005
866.269	2990
866.4	2971
866.531	2941
866.662	2937
866.793	2914
866.924	2937
867.055	3032
867.186	2933
867.317	2914
867.448	2845
867.579	2883
867.71	2872
867.841	2849
867.972	2925
868.103	2918
868.233	2895
868.364	2880
868.495	2910
868.625	3108
868.756	3188
868.886	3013
869.017	3013
869.147	3192
869.278	3195
869.408	3077
869.539	3058
869.669	3081
869.799	3024
869.929	3146
870.06	3135
870.19	3291
870.32	3283
870.45	3294
870.58	3344
870.71	3443
870.84	3485
870.97	3298
871.1	3283
871.23	3511
871.36	3473
871.489	3397
871.619	3412
871.749	3428
871.879	3439
872.008	3504
872.138	3321
872.267	3302
872.397	3146
872.526	3116
872.656	3047
872.785	3112
872.915	3237
873.044	3294
873.173	3230
873.303	3245
873.432	3256
873.561	3294
873.69	3173
873.819	3176
873.948	3176
874.077	3112
874.206	3024
874.335	3093
874.464	3230
874.593	3355
874.722	3279
874.851	3409
874.979	3329
875.108	3329
875.237	3207
875.365	3222
875.494	3199
875.623	3233
875.751	3081
875.88	3108
876.008	3203
876.136	3249
876.265	3389
876.393	3515
876.521	3416
876.65	3428
876.778	3355
876.906	3237
877.034	3199
877.162	3264
877.29	3184
877.418	3279
877.546	3264
877.674	3249
877.802	3253
877.93	3253
878.058	3154
878.185	3119
878.313	3218
878.441	3214
878.568	3089
878.696	3157
878.824	3283
878.951	3329
879.079	3492
879.206	3606
879.333	3458
879.461	3336
879.588	3367
879.715	3511
879.842	3603
879.97	3401
880.097	3169
880.224	3138
880.351	3188
880.478	3249
880.605	3176
880.732	3188
880.859	3538
880.986	3325
881.112	3363
881.239	3195
881.366	3097
881.493	3051
881.619	2998
881.746	3089
881.872	3112
881.999	3100
882.125	3173
882.252	3249
882.378	3317
882.505	3462
882.631	3344
882.757	3173
882.883	3233
883.01	3245
883.136	3211
883.262	3123
883.388	3142
883.514	3340
883.64	3374
883.766	3329
883.892	3233
884.018	3264
884.143	3420
884.269	3549
884.395	3199
884.52	3176
884.646	3188
884.772	3138
884.897	3077
885.023	3226
885.148	3329
885.274	3428
885.399	3382
885.524	3268
885.65	3287
885.775	3291
885.9	3306
886.025	3450
886.15	3370
886.275	3291
886.4	3226
886.525	3325
886.65	3272
886.775	3321
886.9	3496
887.025	3686
887.149	3431
887.274	3287
887.399	3195
887.523	3207
887.648	3157
887.773	3127
887.897	3382
888.021	3443
888.146	3291
888.27	3443
888.395	3553
888.519	3458
888.643	3454
888.767	3485
888.891	3310
889.015	3249
889.139	3264
889.263	3245
889.387	3428
889.511	3519
889.635	3450
889.759	3317
889.883	3313
890.006	3420
890.13	3477
890.254	3340
890.377	3344
890.501	3264
890.624	3230
890.748	3321
890.871	3207
890.995	3131
891.118	3131
891.241	3256
891.364	3245
891.488	3340
891.611	3211
891.734	3207
891.857	3272
891.98	3256
892.103	3329
892.226	3298
892.349	3237
892.471	3116
892.594	3291
892.717	3325
892.839	3272
892.962	3302
893.085	3355
893.207	3306
893.33	3154
893.452	3214
893.575	3374
893.697	3256
893.819	3485
893.941	3507
894.064	3424
894.186	3237
894.308	3275
894.43	3443
894.552	3549
894.674	3473
894.796	3291
894.918	3306
895.04	3245
895.161	3428
895.283	3378
895.405	3321
895.526	3363
895.648	3435
895.769	3412
895.891	3473
896.012	3447
896.134	3515
896.255	3431
896.376	3443
896.498	3382
896.619	3469
896.74	3374
896.861	3416
896.982	3694
897.103	3854
897.224	3580
897.345	3511
897.466	3431
897.587	3462
897.708	3614
897.828	3580
897.949	3447
898.07	3351
898.19	3428
898.311	3614
898.431	3481
898.552	3534
898.672	3622
898.792	3564
898.913	3488
899.033	3431
899.153	3302
899.273	3207
899.393	3283
899.513	3351
899.633	3351
899.753	3370
899.873	3302
899.993	3401
900.113	3291
900.232	3412
900.352	3374
900.472	3321
900.591	3176
900.711	3329
900.83	3260
900.95	3454
901.069	3462
901.189	3351
901.308	3157
901.427	3157
901.546	3214
901.665	3298
901.784	3329
901.904	3180
902.023	3173
902.141	3020
902.26	3051
902.379	3146
902.498	3058
902.617	3074
902.735	3188
902.854	3237
902.973	3180
903.091	3062
903.21	3100
903.328	3165
903.446	3123
903.565	3085
903.683	3188
903.801	3127
903.919	3256
904.038	3325
904.156	3180
904.274	3294
904.392	3291
904.51	3283
904.627	3336
904.745	3435
904.863	3504
904.981	3249
905.098	3180
905.216	3237
905.334	3317
905.451	3325
905.569	3313
905.686	3412
905.803	3477
905.921	3291
906.038	3473
906.155	3409
906.272	3249
906.389	3340
906.506	3237
906.623	3287
906.74	3287
906.857	3180
906.974	3230
907.091	3428
907.208	3580
907.324	3496
907.441	3363
907.557	3211
907.674	3222
907.79	3169
907.907	3275
908.023	3405
908.139	3374
908.256	3348
908.372	3393
908.488	3355
908.604	3241
908.72	3214
908.836	3298
908.952	3294
909.068	3348
909.184	3504
909.3	3401
909.415	3488
909.531	3428
909.647	3306
909.762	3283
909.878	3249
909.993	3359
910.108	3336
910.224	3313
910.339	3420
910.454	3298
910.57	3317
910.685	3237
910.8	3591
910.915	3534
911.03	3393
911.145	3264
911.259	3268
911.374	3313
911.489	3256
911.604	3237
911.718	3108
911.833	3184
911.947	3036
912.062	2967
912.176	3192
912.291	3169
912.405	3203
912.519	3428
912.633	3481
912.748	3329
912.862	3283
912.976	3142
913.09	3058
913.204	3135
913.318	3203
913.431	3393
913.545	3313
913.659	3412
913.772	3329
913.886	3222
914	3237
914.113	3382
914.226	3462
914.34	3386
914.453	3214
914.566	3393
914.68	3294
914.793	3317
914.906	3180
915.019	3127
915.132	3100
915.245	3161
915.358	3214
915.47	3256
915.583	3275
915.696	3321
915.809	3439
915.921	3424
916.034	3253
916.146	3260
916.259	3222
916.371	3401
916.483	3374
916.595	3287
916.708	3344
916.82	3332
916.932	3310
917.044	3332
917.156	3336
917.268	3253
917.38	3287
917.491	3291
917.603	3378
917.715	3443
917.826	3447
917.938	3405
918.049	3275
918.161	3458
918.272	3561
918.384	3553
918.495	3485
918.606	3351
918.717	3264
918.828	3370
918.939	3367
919.05	3321
919.161	3378
919.272	3173
919.383	3283
919.494	3523
919.604	3671
919.715	3443
919.826	3401
919.936	3443
920.047	3595
920.157	3564
920.267	3793
920.378	3564
920.488	3576
920.598	3789
920.708	3972
920.818	3838
920.928	3857
921.038	4013
921.148	3998
921.258	3717
921.368	3629
921.477	3595
921.587	3511
921.697	3443
921.806	3625
921.916	3542
922.025	3378
922.134	3367
922.244	3283
922.353	3473
922.462	3294
922.571	3253
922.68	3100
922.789	3070
922.898	3146
923.007	3112
923.116	3226
923.224	3173
923.333	3169
923.442	3123
923.55	3100
923.659	3112
923.767	3253
923.876	3097
923.984	3264
924.092	3119
924.201	3222
924.309	3188
924.417	3279
924.525	3184
924.633	3268
924.741	4169
924.849	3066
924.956	3313
925.064	3100
925.172	3070
925.279	3070
925.387	3192
925.494	3214
925.602	3386
925.709	3355
925.816	3203
925.924	3310
926.031	3386
926.138	3306
926.245	3367
926.352	3249
926.459	3447
926.566	3447
926.673	3310
926.779	3260
926.886	3249
926.993	3138
927.099	3131
927.206	3116
927.312	3138
927.419	3237
927.525	3195
927.631	3253
927.737	3146
927.843	3108
927.95	3028
928.056	3165
928.162	3192
928.267	3237
928.373	3778
928.479	3351
928.585	3123
928.69	3207
928.796	3302
928.901	3169
929.007	3051
929.112	3207
929.218	3203
929.323	3131
929.428	3150
929.533	3355
929.638	3150
929.743	3176
929.848	3249
929.953	3207
930.058	3150
930.163	3009
930.267	3066
930.372	3192
930.477	3043
930.581	3344
930.685	3207
930.79	3051
930.894	3176
930.998	3074
931.103	3272
931.207	2952
931.311	2967
931.415	2933
931.519	2769
931.623	2792
