Data from test_V78500241_175.txt Node
Date: Fri Mar 25 16:16:24 CST 2022
User: usil
Spectrometer: V785-0024
Trigger mode: 0
Integration Time (sec): 4.000000E-1
Scans to average: 1
Nonlinearity correction enabled: false
Boxcar width: 0
Storing dark spectrum: false
XAxis mode: Wavelengths
Number of Pixels in Spectrum: 1024
>>>>>Begin Spectral Data<<<<<
801.071	2933
801.214	2925
801.356	2887
801.499	2891
801.641	2868
801.783	2925
801.926	3066
802.068	2941
802.211	3032
802.353	3047
802.496	3020
802.638	3024
802.78	3032
802.923	3058
803.065	3009
803.208	2902
803.35	2906
803.492	2963
803.635	2941
803.777	2750
803.919	2910
804.061	3211
804.204	2952
804.346	2937
804.488	2880
804.63	2998
804.773	2880
804.915	2929
805.057	3112
805.199	2986
805.341	3009
805.483	3062
805.626	3013
805.768	2971
805.91	3081
806.052	3116
806.194	3043
806.336	3272
806.478	3051
806.62	2948
806.762	2990
806.904	3051
807.046	3176
807.188	3013
807.33	2929
807.472	3013
807.614	2922
807.756	2990
807.898	2979
808.04	2880
808.182	3009
808.324	2956
808.465	2918
808.607	2910
808.749	2788
808.891	2872
809.033	2982
809.174	2967
809.316	2914
809.458	2906
809.6	2815
809.741	2766
809.883	2750
810.025	2853
810.166	2887
810.308	2861
810.45	2868
810.591	2781
810.733	2762
810.875	2842
811.016	2781
811.158	2785
811.299	2819
811.441	2960
811.582	2891
811.724	2830
811.865	2845
812.007	2914
812.148	2868
812.29	2906
812.431	2937
812.573	2986
812.714	2952
812.855	3039
812.997	3036
813.138	3142
813.279	3024
813.421	2975
813.562	2975
813.703	2887
813.845	2925
813.986	2823
814.127	2758
814.268	2796
814.41	2842
814.551	2807
814.692	2922
814.833	2838
814.974	2906
815.115	2967
815.256	2838
815.397	2845
815.539	2845
815.68	2815
815.821	2811
815.962	2933
816.103	2944
816.244	2887
816.385	2883
816.526	2929
816.666	2941
816.807	2754
816.948	2887
817.089	2902
817.23	2861
817.371	2788
817.512	2811
817.653	2857
817.793	2830
817.934	2868
818.075	2979
818.216	3013
818.356	3020
818.497	2929
818.638	2823
818.778	2838
818.919	2834
819.06	2762
819.2	2857
819.341	2842
819.481	2811
819.622	2952
819.762	3081
819.903	3077
820.043	2910
820.184	2918
820.324	2922
820.465	3013
820.605	3013
820.746	3028
820.886	2918
821.026	3116
821.167	3150
821.307	3291
821.447	3298
821.588	3230
821.728	3192
821.868	3176
822.008	3112
822.149	3203
822.289	3249
822.429	3085
822.569	3097
822.709	3226
822.849	3039
822.99	3089
823.13	3173
823.27	3203
823.41	3127
823.55	3169
823.69	3165
823.83	3226
823.97	3097
824.11	2990
824.25	3032
824.389	3112
824.529	3142
824.669	3112
824.809	3173
824.949	3253
825.089	3203
825.228	3184
825.368	3039
825.508	2941
825.648	2979
825.787	3017
825.927	3055
826.067	2986
826.206	2956
826.346	3043
826.485	3077
826.625	3112
826.765	3275
826.904	3222
827.044	3005
827.183	2960
827.323	2838
827.462	3001
827.601	2956
827.741	2925
827.88	2960
828.02	2849
828.159	2960
828.298	3043
828.437	3112
828.577	3074
828.716	3264
828.855	3097
828.994	2910
829.134	2914
829.273	2918
829.412	2902
829.551	2891
829.69	2910
829.829	2990
829.968	3161
830.107	2994
830.246	3043
830.385	2941
830.524	2906
830.663	2838
830.802	2735
830.941	2663
831.08	2682
831.219	2758
831.357	2739
831.496	2975
831.635	2739
831.774	2712
831.913	2644
832.051	2587
832.19	2579
832.329	2693
832.467	2530
832.606	2492
832.744	2613
832.883	2598
833.022	2587
833.16	2651
833.299	2708
833.437	2689
833.576	2727
833.714	2735
833.852	2743
833.991	2758
834.129	2834
834.267	2834
834.406	2830
834.544	2883
834.682	2895
834.821	2880
834.959	3070
835.097	2887
835.235	3051
835.373	2990
835.511	3020
835.65	2952
835.788	2971
835.926	2838
836.064	2826
836.202	2861
836.34	3077
836.478	3154
836.615	3074
836.753	3157
836.891	3211
837.029	3207
837.167	3097
837.305	3055
837.443	3062
837.58	2960
837.718	3146
837.856	3108
837.993	3119
838.131	3100
838.269	3142
838.406	3077
838.544	3093
838.681	2918
838.819	2922
838.956	2823
839.094	2849
839.231	2918
839.369	3001
839.506	3401
839.643	3233
839.781	3005
839.918	3009
840.055	3066
840.193	3077
840.33	3070
840.467	3104
840.604	3135
840.742	3458
840.879	3070
841.016	3058
841.153	3146
841.29	3351
841.427	3298
841.564	3287
841.701	3355
841.838	3199
841.975	3188
842.112	3233
842.249	3097
842.385	3039
842.522	3268
842.659	3112
842.796	3085
842.933	3062
843.069	3032
843.206	3039
843.343	3203
843.479	3157
843.616	3108
843.752	2895
843.889	2918
844.025	3100
844.162	2887
844.298	3112
844.435	2963
844.571	2918
844.708	3100
844.844	3207
844.98	3230
845.117	3195
845.253	3047
845.389	3047
845.525	3123
845.661	3100
845.798	3009
845.934	3116
846.07	3074
846.206	3226
846.342	3306
846.478	3260
846.614	3135
846.75	3074
846.886	3013
847.022	3253
847.158	3150
847.294	3203
847.429	3211
847.565	3222
847.701	3481
847.837	3013
847.972	3017
848.108	3157
848.244	3146
848.379	3009
848.515	2975
848.65	2956
848.786	2956
848.921	3043
849.057	3154
849.192	3165
849.328	3097
849.463	3161
849.598	3119
849.734	3032
849.869	2975
850.004	2944
850.14	2986
850.275	2887
850.41	2864
850.545	2895
850.68	2929
850.815	2967
850.95	2986
851.085	3237
851.22	3123
851.355	3081
851.49	3005
851.625	2998
851.76	3001
851.895	2952
852.03	2887
852.165	3070
852.299	3077
852.434	3188
852.569	3173
852.703	3154
852.838	3256
852.973	3340
853.107	3378
853.242	3150
853.376	3123
853.511	3017
853.645	3032
853.78	3253
853.914	3116
854.048	3131
854.183	3150
854.317	3154
854.451	3291
854.585	3150
854.72	3100
854.854	3233
854.988	3047
855.122	3119
855.256	2971
855.39	3100
855.524	3222
855.658	3173
855.792	3146
855.926	3233
856.06	3214
856.194	3245
856.327	3146
856.461	3089
856.595	3051
856.729	3097
856.862	3233
856.996	3203
857.13	3249
857.263	3222
857.397	3253
857.53	3108
857.664	3192
857.797	3249
857.931	3241
858.064	3184
858.197	3237
858.331	3119
858.464	3142
858.597	3020
858.731	3131
858.864	3131
858.997	3100
859.13	3127
859.263	3176
859.396	3203
859.529	3058
859.662	3108
859.795	3047
859.928	3150
860.061	3291
860.194	3279
860.327	3150
860.46	3116
860.592	3245
860.725	3268
860.858	3233
860.99	3112
861.123	3051
861.256	3089
861.388	3157
861.521	3759
861.653	3005
861.786	3020
861.918	3036
862.05	3070
862.183	3135
862.315	3180
862.447	3211
862.58	3131
862.712	2979
862.844	2876
862.976	3009
863.108	3009
863.24	3291
863.372	2891
863.504	2982
863.636	2952
863.768	3051
863.9	3005
864.032	2902
864.164	2971
864.296	3005
864.428	3135
864.559	3135
864.691	3077
864.823	3089
864.954	3100
865.086	3066
865.217	2998
865.349	2960
865.48	2982
865.612	3024
865.743	3161
865.875	3001
866.006	2941
866.137	3001
866.269	2941
866.4	2941
866.531	2952
866.662	2891
866.793	2918
866.924	2910
867.055	2967
867.186	2937
867.317	2914
867.448	2811
867.579	2864
867.71	2849
867.841	2834
867.972	2902
868.103	2956
868.233	2880
868.364	2887
868.495	2914
868.625	3104
868.756	3165
868.886	2982
869.017	3036
869.147	3154
869.278	3218
869.408	3070
869.539	3043
869.669	3123
869.799	3070
869.929	3135
870.06	3123
870.19	3317
870.32	3306
870.45	3336
870.58	3378
870.71	3443
870.84	3454
870.97	3306
871.1	3237
871.23	3485
871.36	3428
871.489	3359
871.619	3386
871.749	3386
871.879	3435
872.008	3519
872.138	3386
872.267	3325
872.397	3123
872.526	3093
872.656	3013
872.785	3116
872.915	3249
873.044	3332
873.173	3226
873.303	3241
873.432	3241
873.561	3241
873.69	3176
873.819	3161
873.948	3188
874.077	3123
874.206	3081
874.335	3097
874.464	3241
874.593	3409
874.722	3211
874.851	3370
874.979	3401
875.108	3302
875.237	3188
875.365	3188
875.494	3180
875.623	3241
875.751	3093
875.88	3154
876.008	3214
876.136	3233
876.265	3378
876.393	3488
876.521	3431
876.65	3397
876.778	3348
876.906	3287
877.034	3233
877.162	3222
877.29	3180
877.418	3233
877.546	3272
877.674	3237
877.802	3222
877.93	3218
878.058	3127
878.185	3100
878.313	3218
878.441	3203
878.568	3066
878.696	3161
878.824	3294
878.951	3325
879.079	3416
879.206	3671
879.333	3439
879.461	3332
879.588	3370
879.715	3504
879.842	3591
879.97	3416
880.097	3207
880.224	3135
880.351	3192
880.478	3256
880.605	3230
880.732	3180
880.859	3504
880.986	3329
881.112	3317
881.239	3245
881.366	3112
881.493	3043
881.619	3009
881.746	3100
881.872	3123
881.999	3108
882.125	3150
882.252	3264
882.378	3348
882.505	3435
882.631	3310
882.757	3169
882.883	3230
883.01	3260
883.136	3184
883.262	3116
883.388	3119
883.514	3302
883.64	3397
883.766	3321
883.892	3214
884.018	3245
884.143	3397
884.269	3549
884.395	3226
884.52	3176
884.646	3165
884.772	3165
884.897	3135
885.023	3241
885.148	3359
885.274	3447
885.399	3378
885.524	3245
885.65	3313
885.775	3370
885.9	3287
886.025	3454
886.15	3382
886.275	3272
886.4	3211
886.525	3351
886.65	3272
886.775	3287
886.9	3553
887.025	3663
887.149	3405
887.274	3298
887.399	3192
887.523	3211
887.648	3214
887.773	3226
887.897	3370
888.021	3389
888.146	3340
888.27	3443
888.395	3542
888.519	3439
888.643	3462
888.767	3507
888.891	3325
889.015	3245
889.139	3313
889.263	3283
889.387	3447
889.511	3542
889.635	3462
889.759	3294
889.883	3306
890.006	3367
890.13	3481
890.254	3264
890.377	3420
890.501	3226
890.624	3222
890.748	3351
890.871	3192
890.995	3112
891.118	3093
891.241	3180
891.364	3264
891.488	3291
891.611	3195
891.734	3211
891.857	3329
891.98	3253
892.103	3355
892.226	3332
892.349	3253
892.471	3135
892.594	3249
892.717	3302
892.839	3256
892.962	3294
893.085	3378
893.207	3340
893.33	3169
893.452	3233
893.575	3329
893.697	3302
893.819	3481
893.941	3526
894.064	3469
894.186	3294
894.308	3268
894.43	3447
894.552	3564
894.674	3515
894.796	3287
894.918	3367
895.04	3298
895.161	3424
895.283	3389
895.405	3302
895.526	3389
895.648	3431
895.769	3435
895.891	3485
896.012	3473
896.134	3466
896.255	3435
896.376	3431
896.498	3393
896.619	3424
896.74	3382
896.861	3416
896.982	3675
897.103	3857
897.224	3606
897.345	3500
897.466	3450
897.587	3542
897.708	3629
897.828	3591
897.949	3431
898.07	3401
898.19	3401
898.311	3622
898.431	3450
898.552	3538
898.672	3587
898.792	3576
898.913	3515
899.033	3420
899.153	3291
899.273	3233
899.393	3317
899.513	3287
899.633	3348
899.753	3359
899.873	3332
899.993	3397
900.113	3363
900.232	3420
900.352	3344
900.472	3313
900.591	3218
900.711	3287
900.83	3249
900.95	3450
901.069	3481
901.189	3355
901.308	3176
901.427	3085
901.546	3226
901.665	3306
901.784	3321
901.904	3233
902.023	3146
902.141	3001
902.26	3009
902.379	3154
902.498	3108
902.617	3089
902.735	3222
902.854	3241
902.973	3199
903.091	3043
903.21	3077
903.328	3135
903.446	3104
903.565	3081
903.683	3199
903.801	3154
903.919	3310
904.038	3275
904.156	3192
904.274	3287
904.392	3287
904.51	3310
904.627	3351
904.745	3454
904.863	3530
904.981	3291
905.098	3184
905.216	3230
905.334	3302
905.451	3298
905.569	3321
905.686	3412
905.803	3443
905.921	3306
906.038	3420
906.155	3344
906.272	3260
906.389	3317
906.506	3291
906.623	3249
906.74	3272
906.857	3207
906.974	3268
907.091	3454
907.208	3534
907.324	3523
907.441	3435
907.557	3253
907.674	3253
907.79	3226
907.907	3287
908.023	3378
908.139	3435
908.256	3367
908.372	3363
908.488	3359
908.604	3298
908.72	3268
908.836	3329
908.952	3302
909.068	3344
909.184	3473
909.3	3359
909.415	3530
909.531	3477
909.647	3275
909.762	3317
909.878	3272
909.993	3363
910.108	3348
910.224	3344
910.339	3420
910.454	3321
910.57	3302
910.685	3230
910.8	3618
910.915	3526
911.03	3462
911.145	3302
911.259	3283
911.374	3306
911.489	3313
911.604	3237
911.718	3142
911.833	3146
911.947	3036
912.062	3032
912.176	3173
912.291	3230
912.405	3260
912.519	3447
912.633	3481
912.748	3348
912.862	3310
912.976	3165
913.09	3104
913.204	3127
913.318	3230
913.431	3367
913.545	3344
913.659	3405
913.772	3389
913.886	3222
914	3249
914.113	3355
914.226	3431
914.34	3382
914.453	3249
914.566	3439
914.68	3317
914.793	3336
914.906	3119
915.019	3135
915.132	3081
915.245	3207
915.358	3241
915.47	3272
915.583	3256
915.696	3298
915.809	3416
915.921	3424
916.034	3291
916.146	3279
916.259	3260
916.371	3370
916.483	3374
916.595	3287
916.708	3378
916.82	3374
916.932	3386
917.044	3401
917.156	3367
917.268	3306
917.38	3329
917.491	3325
917.603	3363
917.715	3424
917.826	3466
917.938	3386
918.049	3306
918.161	3389
918.272	3568
918.384	3564
918.495	3485
918.606	3351
918.717	3306
918.828	3412
918.939	3424
919.05	3340
919.161	3370
919.272	3188
919.383	3294
919.494	3492
919.604	3740
919.715	3469
919.826	3435
919.936	3462
920.047	3652
920.157	3542
920.267	3819
920.378	3641
920.488	3584
920.598	3800
920.708	3941
920.818	3869
920.928	3846
921.038	4055
921.148	4010
921.258	3759
921.368	3667
921.477	3587
921.587	3526
921.697	3488
921.806	3667
921.916	3561
922.025	3336
922.134	3374
922.244	3332
922.353	3439
922.462	3283
922.571	3203
922.68	3169
922.789	3074
922.898	3184
923.007	3161
923.116	3176
923.224	3142
923.333	3230
923.442	3108
923.55	3100
923.659	3142
923.767	3268
923.876	3146
923.984	3260
924.092	3100
924.201	3207
924.309	3241
924.417	3253
924.525	3237
924.633	3241
924.741	4211
924.849	3066
924.956	3264
925.064	3157
925.172	3055
925.279	3116
925.387	3214
925.494	3214
925.602	3374
925.709	3336
925.816	3199
925.924	3283
926.031	3367
926.138	3329
926.245	3367
926.352	3302
926.459	3412
926.566	3507
926.673	3348
926.779	3256
926.886	3294
926.993	3195
927.099	3161
927.206	3138
927.312	3138
927.419	3218
927.525	3222
927.631	3294
927.737	3169
927.843	3138
927.95	3001
928.056	3161
928.162	3199
928.267	3279
928.373	3922
928.479	3302
928.585	3077
928.69	3214
928.796	3253
928.901	3184
929.007	3077
929.112	3237
929.218	3180
929.323	3176
929.428	3165
929.533	3340
929.638	3119
929.743	3188
929.848	3287
929.953	3237
930.058	3135
930.163	2967
930.267	3062
930.372	3195
930.477	3081
930.581	3310
930.685	3214
930.79	3051
930.894	3119
930.998	3112
931.103	3298
931.207	2944
931.311	2982
931.415	2937
931.519	2785
931.623	2826
