Data from test_V78500241_1161.txt Node
Date: Fri Mar 25 16:23:14 CST 2022
User: usil
Spectrometer: V785-0024
Trigger mode: 0
Integration Time (sec): 4.000000E-1
Scans to average: 1
Nonlinearity correction enabled: false
Boxcar width: 0
Storing dark spectrum: false
XAxis mode: Wavelengths
Number of Pixels in Spectrum: 1024
>>>>>Begin Spectral Data<<<<<
801.071	2880
801.214	2944
801.356	2849
801.499	2902
801.641	2895
801.783	2914
801.926	3085
802.068	2994
802.211	3001
802.353	3017
802.496	2941
802.638	3020
802.78	3009
802.923	3077
803.065	2990
803.208	2929
803.35	2880
803.492	2948
803.635	2895
803.777	2766
803.919	2826
804.061	3211
804.204	2982
804.346	2883
804.488	2845
804.63	2982
804.773	2887
804.915	2883
805.057	3066
805.199	2925
805.341	2956
805.483	3055
805.626	2979
805.768	2941
805.91	3085
806.052	3081
806.194	3020
806.336	3199
806.478	3001
806.62	2937
806.762	2963
806.904	3036
807.046	3180
807.188	2952
807.33	2902
807.472	2960
807.614	2899
807.756	2960
807.898	2922
808.04	2895
808.182	2944
808.324	2952
808.465	2861
808.607	2864
808.749	2811
808.891	2872
809.033	2967
809.174	2998
809.316	2891
809.458	2872
809.6	2792
809.741	2762
809.883	2731
810.025	2845
810.166	2823
810.308	2861
810.45	2872
810.591	2785
810.733	2746
810.875	2826
811.016	2739
811.158	2777
811.299	2788
811.441	2925
811.582	2868
811.724	2819
811.865	2826
812.007	2876
812.148	2872
812.29	2857
812.431	2914
812.573	2922
812.714	2960
812.855	3024
812.997	3058
813.138	3089
813.279	3032
813.421	2948
813.562	2929
813.703	2853
813.845	2895
813.986	2769
814.127	2708
814.268	2823
814.41	2880
814.551	2788
814.692	2922
814.833	2830
814.974	2891
815.115	2929
815.256	2834
815.397	2838
815.539	2861
815.68	2758
815.821	2826
815.962	2941
816.103	2902
816.244	2864
816.385	2902
816.526	2956
816.666	2887
816.807	2743
816.948	2922
817.089	2868
817.23	2857
817.371	2754
817.512	2773
817.653	2823
817.793	2815
817.934	2849
818.075	2979
818.216	2963
818.356	3009
818.497	2876
818.638	2796
818.778	2823
818.919	2823
819.06	2773
819.2	2853
819.341	2792
819.481	2815
819.622	2918
819.762	3119
819.903	3039
820.043	2948
820.184	2864
820.324	2872
820.465	2967
820.605	2986
820.746	3005
820.886	2914
821.026	3070
821.167	3154
821.307	3268
821.447	3272
821.588	3218
821.728	3199
821.868	3195
822.008	3058
822.149	3161
822.289	3226
822.429	3043
822.569	3104
822.709	3180
822.849	3020
822.99	3051
823.13	3127
823.27	3218
823.41	3093
823.55	3135
823.69	3127
823.83	3188
823.97	3058
824.11	3028
824.25	2986
824.389	3013
824.529	3081
824.669	3089
824.809	3214
824.949	3287
825.089	3211
825.228	3146
825.368	3028
825.508	2952
825.648	2914
825.787	2994
825.927	3017
826.067	2975
826.206	2979
826.346	3024
826.485	3066
826.625	3085
826.765	3237
826.904	3207
827.044	2998
827.183	2956
827.323	2864
827.462	2982
827.601	2925
827.741	2941
827.88	2944
828.02	2853
828.159	2941
828.298	3020
828.437	3119
828.577	3039
828.716	3249
828.855	3081
828.994	2922
829.134	2864
829.273	2872
829.412	2845
829.551	2845
829.69	2899
829.829	2963
829.968	3074
830.107	2986
830.246	3039
830.385	2918
830.524	2895
830.663	2845
830.802	2746
830.941	2629
831.08	2651
831.219	2731
831.357	2754
831.496	2937
831.635	2712
831.774	2651
831.913	2613
832.051	2507
832.19	2556
832.329	2655
832.467	2492
832.606	2473
832.744	2564
832.883	2594
833.022	2598
833.16	2663
833.299	2701
833.437	2678
833.576	2693
833.714	2682
833.852	2701
833.991	2746
834.129	2838
834.267	2838
834.406	2796
834.544	2902
834.682	2880
834.821	2845
834.959	3039
835.097	2918
835.235	3066
835.373	2944
835.511	3024
835.65	2975
835.788	2956
835.926	2838
836.064	2807
836.202	2838
836.34	3112
836.478	3112
836.615	3020
836.753	3093
836.891	3192
837.029	3100
837.167	3100
837.305	3074
837.443	3051
837.58	2990
837.718	3146
837.856	3077
837.993	3032
838.131	3123
838.269	3089
838.406	3074
838.544	3058
838.681	2963
838.819	2887
838.956	2785
839.094	2819
839.231	2933
839.369	2994
839.506	3363
839.643	3214
839.781	2986
839.918	2990
840.055	3043
840.193	2990
840.33	3062
840.467	3058
840.604	3142
840.742	3351
840.879	3039
841.016	3020
841.153	3093
841.29	3344
841.427	3275
841.564	3241
841.701	3294
841.838	3203
841.975	3180
842.112	3188
842.249	3062
842.385	3051
842.522	3230
842.659	3097
842.796	3074
842.933	3104
843.069	3043
843.206	3036
843.343	3161
843.479	3062
843.616	3131
843.752	2929
843.889	2838
844.025	3062
844.162	2876
844.298	3066
844.435	2952
844.571	2910
844.708	3097
844.844	3165
844.98	3268
845.117	3188
845.253	3036
845.389	2990
845.525	3062
845.661	3085
845.798	2979
845.934	3112
846.07	3058
846.206	3214
846.342	3291
846.478	3222
846.614	3058
846.75	3024
846.886	3032
847.022	3218
847.158	3127
847.294	3188
847.429	3222
847.565	3199
847.701	3477
847.837	3047
847.972	2971
848.108	3184
848.244	3097
848.379	2956
848.515	2952
848.65	2933
848.786	2933
848.921	2994
849.057	3085
849.192	3123
849.328	3093
849.463	3089
849.598	3020
849.734	3032
849.869	2944
850.004	2948
850.14	2937
850.275	2906
850.41	2845
850.545	2876
850.68	2910
850.815	2937
850.95	2975
851.085	3192
851.22	3089
851.355	3020
851.49	2967
851.625	2956
851.76	3020
851.895	2918
852.03	2906
852.165	3020
852.299	3112
852.434	3199
852.569	3116
852.703	3138
852.838	3241
852.973	3336
853.107	3313
853.242	3154
853.376	3093
853.511	2979
853.645	2960
853.78	3218
853.914	3097
854.048	3104
854.183	3066
854.317	3119
854.451	3332
854.585	3108
854.72	3081
854.854	3218
854.988	3058
855.122	3081
855.256	2975
855.39	3116
855.524	3233
855.658	3157
855.792	3161
855.926	3184
856.06	3218
856.194	3230
856.327	3131
856.461	3070
856.595	3074
856.729	3085
856.862	3233
856.996	3119
857.13	3203
857.263	3199
857.397	3233
857.53	3123
857.664	3165
857.797	3218
857.931	3233
858.064	3154
858.197	3214
858.331	3116
858.464	3093
858.597	3020
858.731	3097
858.864	3146
858.997	3055
859.13	3093
859.263	3165
859.396	3188
859.529	3093
859.662	3009
859.795	3028
859.928	3146
860.061	3313
860.194	3214
860.327	3131
860.46	3036
860.592	3195
860.725	3214
860.858	3230
860.99	3077
861.123	3051
861.256	3020
861.388	3097
861.521	3728
861.653	3013
861.786	2975
861.918	2971
862.05	3062
862.183	3077
862.315	3150
862.447	3154
862.58	3062
862.712	2929
862.844	2868
862.976	3028
863.108	3043
863.24	3325
863.372	2838
863.504	2990
863.636	2929
863.768	3001
863.9	2960
864.032	2857
864.164	2902
864.296	2979
864.428	3081
864.559	3119
864.691	3039
864.823	3043
864.954	3020
865.086	3017
865.217	2963
865.349	2975
865.48	2994
865.612	3039
865.743	3131
865.875	2982
866.006	2956
866.137	2967
866.269	2956
866.4	2948
866.531	2906
866.662	2849
866.793	2887
866.924	2880
867.055	2937
867.186	2933
867.317	2887
867.448	2804
867.579	2815
867.71	2838
867.841	2807
867.972	2906
868.103	2864
868.233	2883
868.364	2891
868.495	2895
868.625	3062
868.756	3138
868.886	2975
869.017	3005
869.147	3150
869.278	3173
869.408	3055
869.539	2998
869.669	3085
869.799	3028
869.929	3138
870.06	3108
870.19	3344
870.32	3264
870.45	3260
870.58	3382
870.71	3409
870.84	3466
870.97	3245
871.1	3203
871.23	3473
871.36	3469
871.489	3351
871.619	3386
871.749	3420
871.879	3412
872.008	3492
872.138	3332
872.267	3283
872.397	3142
872.526	3100
872.656	3013
872.785	3135
872.915	3214
873.044	3310
873.173	3203
873.303	3226
873.432	3272
873.561	3237
873.69	3119
873.819	3138
873.948	3188
874.077	3093
874.206	3043
874.335	3127
874.464	3195
874.593	3329
874.722	3207
874.851	3393
874.979	3313
875.108	3325
875.237	3226
875.365	3173
875.494	3169
875.623	3272
875.751	3112
875.88	3081
876.008	3154
876.136	3226
876.265	3363
876.393	3507
876.521	3405
876.65	3397
876.778	3325
876.906	3241
877.034	3203
877.162	3233
877.29	3157
877.418	3245
877.546	3237
877.674	3218
877.802	3188
877.93	3214
878.058	3150
878.185	3062
878.313	3161
878.441	3218
878.568	3081
878.696	3180
878.824	3214
878.951	3279
879.079	3477
879.206	3614
879.333	3424
879.461	3340
879.588	3340
879.715	3504
879.842	3557
879.97	3367
880.097	3169
880.224	3081
880.351	3195
880.478	3233
880.605	3176
880.732	3199
880.859	3485
880.986	3245
881.112	3306
881.239	3203
881.366	3097
881.493	3028
881.619	3020
881.746	3085
881.872	3112
881.999	3093
882.125	3116
882.252	3241
882.378	3321
882.505	3416
882.631	3294
882.757	3157
882.883	3214
883.01	3214
883.136	3146
883.262	3093
883.388	3112
883.514	3294
883.64	3336
883.766	3317
883.892	3192
884.018	3237
884.143	3397
884.269	3504
884.395	3211
884.52	3165
884.646	3157
884.772	3142
884.897	3104
885.023	3207
885.148	3275
885.274	3397
885.399	3359
885.524	3275
885.65	3245
885.775	3321
885.9	3249
886.025	3450
886.15	3363
886.275	3291
886.4	3207
886.525	3298
886.65	3294
886.775	3264
886.9	3526
887.025	3663
887.149	3409
887.274	3264
887.399	3150
887.523	3184
887.648	3199
887.773	3184
887.897	3405
888.021	3428
888.146	3317
888.27	3363
888.395	3485
888.519	3431
888.643	3443
888.767	3458
888.891	3272
889.015	3241
889.139	3306
889.263	3233
889.387	3389
889.511	3523
889.635	3412
889.759	3294
889.883	3275
890.006	3424
890.13	3485
890.254	3249
890.377	3348
890.501	3218
890.624	3176
890.748	3268
890.871	3165
890.995	3104
891.118	3058
891.241	3222
891.364	3207
891.488	3310
891.611	3165
891.734	3211
891.857	3268
891.98	3245
892.103	3325
892.226	3226
892.349	3226
892.471	3142
892.594	3249
892.717	3264
892.839	3241
892.962	3294
893.085	3359
893.207	3317
893.33	3119
893.452	3195
893.575	3329
893.697	3230
893.819	3450
893.941	3492
894.064	3420
894.186	3268
894.308	3283
894.43	3439
894.552	3549
894.674	3477
894.796	3230
894.918	3325
895.04	3287
895.161	3447
895.283	3428
895.405	3310
895.526	3382
895.648	3405
895.769	3409
895.891	3412
896.012	3492
896.134	3500
896.255	3374
896.376	3336
896.498	3336
896.619	3443
896.74	3378
896.861	3412
896.982	3656
897.103	3842
897.224	3618
897.345	3477
897.466	3435
897.587	3454
897.708	3610
897.828	3519
897.949	3420
898.07	3355
898.19	3412
898.311	3606
898.431	3416
898.552	3504
898.672	3610
898.792	3572
898.913	3542
899.033	3386
899.153	3294
899.273	3218
899.393	3275
899.513	3298
899.633	3275
899.753	3363
899.873	3287
899.993	3386
900.113	3332
900.232	3363
900.352	3389
900.472	3310
900.591	3211
900.711	3268
900.83	3268
900.95	3428
901.069	3496
901.189	3359
901.308	3184
901.427	3161
901.546	3154
901.665	3256
901.784	3268
901.904	3199
902.023	3135
902.141	3020
902.26	2990
902.379	3150
902.498	3104
902.617	3024
902.735	3195
902.854	3230
902.973	3146
903.091	3047
903.21	3017
903.328	3154
903.446	3085
903.565	3081
903.683	3188
903.801	3112
903.919	3230
904.038	3279
904.156	3154
904.274	3279
904.392	3249
904.51	3253
904.627	3306
904.745	3428
904.863	3515
904.981	3207
905.098	3169
905.216	3222
905.334	3264
905.451	3253
905.569	3298
905.686	3431
905.803	3428
905.921	3245
906.038	3424
906.155	3363
906.272	3302
906.389	3325
906.506	3192
906.623	3249
906.74	3294
906.857	3161
906.974	3245
907.091	3447
907.208	3580
907.324	3466
907.441	3351
907.557	3199
907.674	3226
907.79	3207
907.907	3253
908.023	3370
908.139	3374
908.256	3329
908.372	3378
908.488	3317
908.604	3241
908.72	3260
908.836	3249
908.952	3272
909.068	3344
909.184	3462
909.3	3367
909.415	3492
909.531	3447
909.647	3291
909.762	3275
909.878	3233
909.993	3393
910.108	3367
910.224	3363
910.339	3393
910.454	3367
910.57	3237
910.685	3207
910.8	3576
910.915	3519
911.03	3443
911.145	3275
911.259	3268
911.374	3321
911.489	3218
911.604	3207
911.718	3135
911.833	3104
911.947	3001
912.062	2994
912.176	3131
912.291	3176
912.405	3207
912.519	3420
912.633	3447
912.748	3306
912.862	3268
912.976	3173
913.09	3081
913.204	3165
913.318	3180
913.431	3359
913.545	3336
913.659	3386
913.772	3325
913.886	3237
914	3184
914.113	3313
914.226	3397
914.34	3386
914.453	3192
914.566	3389
914.68	3298
914.793	3302
914.906	3146
915.019	3104
915.132	3062
915.245	3195
915.358	3161
915.47	3222
915.583	3249
915.696	3291
915.809	3439
915.921	3458
916.034	3275
916.146	3275
916.259	3157
916.371	3374
916.483	3321
916.595	3291
916.708	3302
916.82	3332
916.932	3340
917.044	3313
917.156	3321
917.268	3237
917.38	3287
917.491	3310
917.603	3367
917.715	3466
917.826	3431
917.938	3355
918.049	3291
918.161	3447
918.272	3618
918.384	3564
918.495	3496
918.606	3359
918.717	3294
918.828	3393
918.939	3424
919.05	3279
919.161	3393
919.272	3138
919.383	3283
919.494	3526
919.604	3663
919.715	3515
919.826	3409
919.936	3416
920.047	3576
920.157	3576
920.267	3751
920.378	3618
920.488	3553
920.598	3747
920.708	3915
920.818	3816
920.928	3823
921.038	4029
921.148	3991
921.258	3713
921.368	3606
921.477	3561
921.587	3507
921.697	3507
921.806	3648
921.916	3492
922.025	3329
922.134	3359
922.244	3291
922.353	3409
922.462	3279
922.571	3203
922.68	3093
922.789	3077
922.898	3146
923.007	3104
923.116	3233
923.224	3207
923.333	3207
923.442	3100
923.55	3097
923.659	3100
923.767	3222
923.876	3161
923.984	3237
924.092	3104
924.201	3150
924.309	3222
924.417	3245
924.525	3195
924.633	3214
924.741	3998
924.849	3043
924.956	3283
925.064	3074
925.172	3036
925.279	3070
925.387	3157
925.494	3188
925.602	3332
925.709	3310
925.816	3184
925.924	3237
926.031	3389
926.138	3302
926.245	3310
926.352	3256
926.459	3397
926.566	3466
926.673	3332
926.779	3253
926.886	3245
926.993	3165
927.099	3085
927.206	3108
927.312	3127
927.419	3203
927.525	3214
927.631	3279
927.737	3131
927.843	3116
927.95	3005
928.056	3104
928.162	3180
928.267	3218
928.373	3846
928.479	3313
928.585	3081
928.69	3211
928.796	3226
928.901	3184
929.007	3028
929.112	3211
929.218	3180
929.323	3100
929.428	3192
929.533	3336
929.638	3104
929.743	3146
929.848	3272
929.953	3222
930.058	3146
930.163	2990
930.267	3047
930.372	3188
930.477	3058
930.581	3272
930.685	3161
930.79	3081
930.894	3135
930.998	3089
931.103	3272
931.207	2937
931.311	2929
931.415	2895
931.519	2807
931.623	2800
