Data from test_V78500241_131.txt Node
Date: Fri Mar 25 16:16:06 CST 2022
User: usil
Spectrometer: V785-0024
Trigger mode: 0
Integration Time (sec): 4.000000E-1
Scans to average: 1
Nonlinearity correction enabled: false
Boxcar width: 0
Storing dark spectrum: false
XAxis mode: Wavelengths
Number of Pixels in Spectrum: 1024
>>>>>Begin Spectral Data<<<<<
801.071	2994
801.214	3005
801.356	2914
801.499	2914
801.641	2906
801.783	2979
801.926	3100
802.068	3024
802.211	3077
802.353	3055
802.496	2994
802.638	3020
802.78	3097
802.923	3146
803.065	3081
803.208	2914
803.35	2948
803.492	2952
803.635	2982
803.777	2819
803.919	2899
804.061	3249
804.204	2982
804.346	2982
804.488	2868
804.63	3020
804.773	2922
804.915	2933
805.057	3142
805.199	2948
805.341	3001
805.483	3077
805.626	3024
805.768	2967
805.91	3127
806.052	3161
806.194	3097
806.336	3268
806.478	3043
806.62	2982
806.762	3017
806.904	3097
807.046	3207
807.188	2986
807.33	2967
807.472	3062
807.614	2956
807.756	2990
807.898	2948
808.04	2956
808.182	3036
808.324	3005
808.465	2960
808.607	2925
808.749	2826
808.891	2895
809.033	2990
809.174	3001
809.316	2914
809.458	2914
809.6	2811
809.741	2811
809.883	2819
810.025	2899
810.166	2872
810.308	2842
810.45	2876
810.591	2815
810.733	2804
810.875	2906
811.016	2796
811.158	2796
811.299	2849
811.441	3005
811.582	2952
811.724	2857
811.865	2880
812.007	2956
812.148	2906
812.29	2891
812.431	2937
812.573	3009
812.714	2986
812.855	3028
812.997	3104
813.138	3142
813.279	3020
813.421	3028
813.562	3013
813.703	2899
813.845	2922
813.986	2777
814.127	2758
814.268	2883
814.41	2861
814.551	2838
814.692	2887
814.833	2853
814.974	2910
815.115	2963
815.256	2861
815.397	2830
815.539	2910
815.68	2815
815.821	2826
815.962	2960
816.103	2963
816.244	2883
816.385	2902
816.526	2982
816.666	2910
816.807	2762
816.948	2922
817.089	2910
817.23	2861
817.371	2785
817.512	2826
817.653	2857
817.793	2830
817.934	2918
818.075	3032
818.216	3028
818.356	3062
818.497	2925
818.638	2826
818.778	2872
818.919	2823
819.06	2781
819.2	2948
819.341	2880
819.481	2876
819.622	2899
819.762	3154
819.903	3036
820.043	2960
820.184	2910
820.324	2922
820.465	3070
820.605	3070
820.746	3089
820.886	2967
821.026	3146
821.167	3161
821.307	3275
821.447	3294
821.588	3272
821.728	3237
821.868	3192
822.008	3089
822.149	3233
822.289	3226
822.429	3081
822.569	3100
822.709	3214
822.849	3036
822.99	3108
823.13	3214
823.27	3218
823.41	3173
823.55	3154
823.69	3165
823.83	3188
823.97	3146
824.11	3055
824.25	3017
824.389	3081
824.529	3131
824.669	3100
824.809	3184
824.949	3302
825.089	3272
825.228	3184
825.368	3051
825.508	2971
825.648	2998
825.787	3020
825.927	3020
826.067	3020
826.206	2994
826.346	3043
826.485	3077
826.625	3138
826.765	3325
826.904	3260
827.044	3005
827.183	2971
827.323	2880
827.462	3013
827.601	2925
827.741	2971
827.88	2982
828.02	2853
828.159	3017
828.298	3058
828.437	3127
828.577	3055
828.716	3260
828.855	3024
828.994	2967
829.134	2902
829.273	2952
829.412	2857
829.551	2864
829.69	2914
829.829	3024
829.968	3142
830.107	3062
830.246	3074
830.385	2929
830.524	2910
830.663	2834
830.802	2720
830.941	2678
831.08	2689
831.219	2807
831.357	2804
831.496	2971
831.635	2739
831.774	2655
831.913	2678
832.051	2610
832.19	2606
832.329	2693
832.467	2556
832.606	2492
832.744	2594
832.883	2602
833.022	2613
833.16	2678
833.299	2724
833.437	2724
833.576	2708
833.714	2739
833.852	2750
833.991	2766
834.129	2838
834.267	2826
834.406	2807
834.544	2872
834.682	2929
834.821	2868
834.959	3077
835.097	2906
835.235	3085
835.373	2994
835.511	3047
835.65	2994
835.788	2952
835.926	2849
836.064	2845
836.202	2864
836.34	3093
836.478	3199
836.615	3085
836.753	3161
836.891	3211
837.029	3176
837.167	3142
837.305	3070
837.443	3089
837.58	2944
837.718	3165
837.856	3066
837.993	3066
838.131	3142
838.269	3112
838.406	3108
838.544	3157
838.681	2952
838.819	2979
838.956	2849
839.094	2857
839.231	2929
839.369	3020
839.506	3393
839.643	3256
839.781	3020
839.918	3009
840.055	3085
840.193	3085
840.33	3070
840.467	3123
840.604	3169
840.742	3389
840.879	3062
841.016	3077
841.153	3138
841.29	3332
841.427	3317
841.564	3302
841.701	3306
841.838	3268
841.975	3207
842.112	3283
842.249	3089
842.385	3055
842.522	3283
842.659	3119
842.796	3085
842.933	3123
843.069	3081
843.206	3062
843.343	3184
843.479	3142
843.616	3169
843.752	2895
843.889	2925
844.025	3116
844.162	2895
844.298	3070
844.435	2979
844.571	2944
844.708	3077
844.844	3184
844.98	3291
845.117	3173
845.253	3066
845.389	3017
845.525	3127
845.661	3104
845.798	3009
845.934	3169
846.07	3058
846.206	3245
846.342	3332
846.478	3226
846.614	3119
846.75	3055
846.886	3066
847.022	3230
847.158	3169
847.294	3211
847.429	3264
847.565	3249
847.701	3488
847.837	3017
847.972	3017
848.108	3180
848.244	3123
848.379	3028
848.515	2952
848.65	2975
848.786	2982
848.921	3051
849.057	3112
849.192	3184
849.328	3036
849.463	3127
849.598	3081
849.734	3047
849.869	3013
850.004	2929
850.14	3001
850.275	2941
850.41	2838
850.545	2902
850.68	2941
850.815	2971
850.95	2971
851.085	3218
851.22	3142
851.355	3074
851.49	3020
851.625	3028
851.76	3051
851.895	2971
852.03	2918
852.165	3036
852.299	3127
852.434	3192
852.569	3154
852.703	3195
852.838	3272
852.973	3382
853.107	3336
853.242	3165
853.376	3104
853.511	2990
853.645	3089
853.78	3272
853.914	3135
854.048	3085
854.183	3089
854.317	3138
854.451	3321
854.585	3127
854.72	3135
854.854	3253
854.988	3085
855.122	3100
855.256	3058
855.39	3146
855.524	3264
855.658	3222
855.792	3199
855.926	3253
856.06	3245
856.194	3272
856.327	3176
856.461	3093
856.595	3100
856.729	3100
856.862	3279
856.996	3176
857.13	3222
857.263	3214
857.397	3279
857.53	3161
857.664	3226
857.797	3287
857.931	3294
858.064	3188
858.197	3272
858.331	3173
858.464	3127
858.597	3013
858.731	3154
858.864	3146
858.997	3100
859.13	3173
859.263	3180
859.396	3275
859.529	3104
859.662	3074
859.795	3055
859.928	3161
860.061	3291
860.194	3298
860.327	3123
860.46	3104
860.592	3249
860.725	3268
860.858	3226
860.99	3176
861.123	3055
861.256	3066
861.388	3146
861.521	3740
861.653	3051
861.786	2990
861.918	3036
862.05	3104
862.183	3104
862.315	3123
862.447	3245
862.58	3112
862.712	2975
862.844	2853
862.976	3001
863.108	2994
863.24	3412
863.372	2880
863.504	2979
863.636	2933
863.768	3039
863.9	2979
864.032	2922
864.164	2944
864.296	3009
864.428	3112
864.559	3116
864.691	3070
864.823	3070
864.954	3039
865.086	3058
865.217	3013
865.349	2944
865.48	2994
865.612	3017
865.743	3173
865.875	2994
866.006	2967
866.137	3005
866.269	2933
866.4	2925
866.531	2929
866.662	2925
866.793	2937
866.924	2941
867.055	2994
867.186	2918
867.317	2891
867.448	2842
867.579	2861
867.71	2868
867.841	2826
867.972	2960
868.103	2880
868.233	2918
868.364	2880
868.495	2952
868.625	3070
868.756	3192
868.886	3013
869.017	3032
869.147	3218
869.278	3218
869.408	3047
869.539	3039
869.669	3108
869.799	3028
869.929	3150
870.06	3108
870.19	3310
870.32	3359
870.45	3306
870.58	3393
870.71	3500
870.84	3458
870.97	3325
871.1	3249
871.23	3511
871.36	3447
871.489	3405
871.619	3409
871.749	3443
871.879	3447
872.008	3515
872.138	3351
872.267	3275
872.397	3146
872.526	3150
872.656	3009
872.785	3131
872.915	3256
873.044	3306
873.173	3260
873.303	3256
873.432	3237
873.561	3256
873.69	3165
873.819	3173
873.948	3237
874.077	3131
874.206	3085
874.335	3074
874.464	3237
874.593	3389
874.722	3241
874.851	3435
874.979	3374
875.108	3340
875.237	3195
875.365	3176
875.494	3199
875.623	3287
875.751	3051
875.88	3135
876.008	3226
876.136	3275
876.265	3389
876.393	3492
876.521	3428
876.65	3370
876.778	3370
876.906	3249
877.034	3214
877.162	3233
877.29	3188
877.418	3283
877.546	3287
877.674	3287
877.802	3211
877.93	3272
878.058	3150
878.185	3119
878.313	3245
878.441	3233
878.568	3093
878.696	3169
878.824	3264
878.951	3325
879.079	3454
879.206	3625
879.333	3447
879.461	3363
879.588	3393
879.715	3511
879.842	3633
879.97	3420
880.097	3184
880.224	3119
880.351	3192
880.478	3275
880.605	3222
880.732	3199
880.859	3553
880.986	3336
881.112	3359
881.239	3222
881.366	3108
881.493	3043
881.619	3013
881.746	3081
881.872	3100
881.999	3123
882.125	3146
882.252	3302
882.378	3291
882.505	3409
882.631	3298
882.757	3154
882.883	3214
883.01	3230
883.136	3199
883.262	3093
883.388	3150
883.514	3310
883.64	3405
883.766	3351
883.892	3199
884.018	3260
884.143	3454
884.269	3595
884.395	3207
884.52	3199
884.646	3192
884.772	3127
884.897	3108
885.023	3241
885.148	3340
885.274	3447
885.399	3336
885.524	3306
885.65	3310
885.775	3340
885.9	3291
886.025	3450
886.15	3382
886.275	3336
886.4	3233
886.525	3313
886.65	3313
886.775	3283
886.9	3466
887.025	3622
887.149	3389
887.274	3294
887.399	3195
887.523	3241
887.648	3173
887.773	3199
887.897	3374
888.021	3378
888.146	3329
888.27	3462
888.395	3519
888.519	3447
888.643	3488
888.767	3481
888.891	3313
889.015	3275
889.139	3306
889.263	3245
889.387	3447
889.511	3526
889.635	3466
889.759	3306
889.883	3325
890.006	3416
890.13	3473
890.254	3313
890.377	3355
890.501	3150
890.624	3165
890.748	3317
890.871	3184
890.995	3146
891.118	3108
891.241	3222
891.364	3283
891.488	3348
891.611	3218
891.734	3253
891.857	3336
891.98	3199
892.103	3321
892.226	3310
892.349	3218
892.471	3119
892.594	3279
892.717	3302
892.839	3291
892.962	3302
893.085	3344
893.207	3355
893.33	3161
893.452	3233
893.575	3359
893.697	3275
893.819	3500
893.941	3534
894.064	3492
894.186	3298
894.308	3287
894.43	3412
894.552	3614
894.674	3458
894.796	3313
894.918	3321
895.04	3332
895.161	3462
895.283	3435
895.405	3336
895.526	3367
895.648	3428
895.769	3435
895.891	3481
896.012	3515
896.134	3485
896.255	3428
896.376	3424
896.498	3382
896.619	3428
896.74	3378
896.861	3469
896.982	3720
897.103	3880
897.224	3656
897.345	3519
897.466	3458
897.587	3481
897.708	3663
897.828	3557
897.949	3458
898.07	3367
898.19	3435
898.311	3622
898.431	3466
898.552	3534
898.672	3599
898.792	3584
898.913	3511
899.033	3477
899.153	3294
899.273	3256
899.393	3291
899.513	3340
899.633	3325
899.753	3382
899.873	3332
899.993	3420
900.113	3355
900.232	3420
900.352	3359
900.472	3336
900.591	3199
900.711	3329
900.83	3298
900.95	3420
901.069	3488
901.189	3397
901.308	3199
901.427	3146
901.546	3180
901.665	3313
901.784	3378
901.904	3199
902.023	3180
902.141	3047
902.26	3024
902.379	3199
902.498	3093
902.617	3062
902.735	3195
902.854	3203
902.973	3245
903.091	3074
903.21	3070
903.328	3161
903.446	3131
903.565	3116
903.683	3245
903.801	3138
903.919	3287
904.038	3332
904.156	3176
904.274	3302
904.392	3264
904.51	3302
904.627	3348
904.745	3469
904.863	3507
904.981	3256
905.098	3214
905.216	3233
905.334	3294
905.451	3355
905.569	3336
905.686	3443
905.803	3481
905.921	3336
906.038	3431
906.155	3393
906.272	3298
906.389	3344
906.506	3233
906.623	3329
906.74	3306
906.857	3218
906.974	3313
907.091	3469
907.208	3587
907.324	3549
907.441	3416
907.557	3256
907.674	3272
907.79	3222
907.907	3310
908.023	3405
908.139	3351
908.256	3325
908.372	3401
908.488	3351
908.604	3264
908.72	3253
908.836	3302
908.952	3294
909.068	3355
909.184	3519
909.3	3435
909.415	3526
909.531	3496
909.647	3294
909.762	3317
909.878	3321
909.993	3393
910.108	3367
910.224	3405
910.339	3431
910.454	3359
910.57	3302
910.685	3256
910.8	3534
910.915	3538
911.03	3473
911.145	3260
911.259	3313
911.374	3355
911.489	3253
911.604	3222
911.718	3100
911.833	3165
911.947	3036
912.062	2990
912.176	3180
912.291	3218
912.405	3222
912.519	3439
912.633	3481
912.748	3363
912.862	3275
912.976	3188
913.09	3081
913.204	3207
913.318	3233
913.431	3378
913.545	3382
913.659	3405
913.772	3348
913.886	3218
914	3207
914.113	3405
914.226	3454
914.34	3367
914.453	3214
914.566	3447
914.68	3298
914.793	3310
914.906	3146
915.019	3165
915.132	3043
915.245	3207
915.358	3268
915.47	3237
915.583	3233
915.696	3321
915.809	3454
915.921	3431
916.034	3279
916.146	3272
916.259	3241
916.371	3405
916.483	3401
916.595	3332
916.708	3367
916.82	3363
916.932	3336
917.044	3321
917.156	3393
917.268	3298
917.38	3367
917.491	3302
917.603	3416
917.715	3492
917.826	3500
917.938	3405
918.049	3321
918.161	3435
918.272	3610
918.384	3591
918.495	3500
918.606	3351
918.717	3275
918.828	3374
918.939	3428
919.05	3275
919.161	3412
919.272	3218
919.383	3283
919.494	3534
919.604	3713
919.715	3545
919.826	3447
919.936	3492
920.047	3587
920.157	3599
920.267	3793
920.378	3625
920.488	3591
920.598	3854
920.708	3949
920.818	3854
920.928	3865
921.038	4055
921.148	4006
921.258	3747
921.368	3622
921.477	3580
921.587	3572
921.697	3447
921.806	3622
921.916	3553
922.025	3340
922.134	3397
922.244	3351
922.353	3447
922.462	3272
922.571	3256
922.68	3104
922.789	3093
922.898	3142
923.007	3161
923.116	3173
923.224	3195
923.333	3218
923.442	3116
923.55	3123
923.659	3135
923.767	3241
923.876	3131
923.984	3279
924.092	3131
924.201	3245
924.309	3214
924.417	3302
924.525	3173
924.633	3249
924.741	4200
924.849	3055
924.956	3321
925.064	3108
925.172	3055
925.279	3131
925.387	3230
925.494	3233
925.602	3370
925.709	3336
925.816	3211
925.924	3313
926.031	3416
926.138	3378
926.245	3420
926.352	3306
926.459	3428
926.566	3542
926.673	3336
926.779	3275
926.886	3283
926.993	3184
927.099	3176
927.206	3138
927.312	3123
927.419	3260
927.525	3237
927.631	3306
927.737	3176
927.843	3142
927.95	3070
928.056	3169
928.162	3176
928.267	3310
928.373	3797
928.479	3355
928.585	3108
928.69	3275
928.796	3264
928.901	3188
929.007	3039
929.112	3226
929.218	3180
929.323	3176
929.428	3169
929.533	3348
929.638	3135
929.743	3195
929.848	3272
929.953	3245
930.058	3184
930.163	3047
930.267	3066
930.372	3241
930.477	3028
930.581	3359
930.685	3214
930.79	3104
930.894	3127
930.998	3131
931.103	3329
931.207	2998
931.311	2937
931.415	2937
931.519	2807
931.623	2796
