Data from test_V78500241_871.txt Node
Date: Fri Mar 25 16:21:14 CST 2022
User: usil
Spectrometer: V785-0024
Trigger mode: 0
Integration Time (sec): 4.000000E-1
Scans to average: 1
Nonlinearity correction enabled: false
Boxcar width: 0
Storing dark spectrum: false
XAxis mode: Wavelengths
Number of Pixels in Spectrum: 1024
>>>>>Begin Spectral Data<<<<<
801.071	2902
801.214	2910
801.356	2880
801.499	2887
801.641	2891
801.783	2948
801.926	3043
802.068	2944
802.211	2975
802.353	3013
802.496	2925
802.638	3032
802.78	3032
802.923	3089
803.065	2986
803.208	2876
803.35	2948
803.492	2922
803.635	2902
803.777	2743
803.919	2861
804.061	3192
804.204	2982
804.346	2883
804.488	2864
804.63	2975
804.773	2876
804.915	2906
805.057	3074
805.199	2952
805.341	2971
805.483	3024
805.626	2967
805.768	2963
805.91	3047
806.052	3104
806.194	3028
806.336	3233
806.478	3028
806.62	2929
806.762	3005
806.904	3089
807.046	3157
807.188	3036
807.33	2910
807.472	2944
807.614	2899
807.756	2971
807.898	2956
808.04	2902
808.182	2956
808.324	2979
808.465	2895
808.607	2918
808.749	2769
808.891	2830
809.033	2944
809.174	2960
809.316	2906
809.458	2906
809.6	2766
809.741	2769
809.883	2785
810.025	2853
810.166	2880
810.308	2845
810.45	2899
810.591	2769
810.733	2750
810.875	2830
811.016	2781
811.158	2750
811.299	2800
811.441	2941
811.582	2868
811.724	2830
811.865	2815
812.007	2861
812.148	2880
812.29	2880
812.431	2853
812.573	2960
812.714	2933
812.855	3032
812.997	3051
813.138	3127
813.279	3032
813.421	2963
813.562	2956
813.703	2868
813.845	2876
813.986	2804
814.127	2697
814.268	2807
814.41	2781
814.551	2834
814.692	2899
814.833	2834
814.974	2872
815.115	2994
815.256	2830
815.397	2804
815.539	2895
815.68	2815
815.821	2781
815.962	2922
816.103	2925
816.244	2853
816.385	2880
816.526	2944
816.666	2914
816.807	2743
816.948	2941
817.089	2933
817.23	2868
817.371	2750
817.512	2800
817.653	2826
817.793	2830
817.934	2868
818.075	2960
818.216	3001
818.356	3009
818.497	2906
818.638	2773
818.778	2804
818.919	2796
819.06	2731
819.2	2876
819.341	2823
819.481	2830
819.622	2944
819.762	3108
819.903	3058
820.043	2941
820.184	2868
820.324	2861
820.465	2990
820.605	2998
820.746	3055
820.886	2941
821.026	3097
821.167	3138
821.307	3222
821.447	3302
821.588	3165
821.728	3192
821.868	3199
822.008	3093
822.149	3218
822.289	3222
822.429	3093
822.569	3097
822.709	3161
822.849	3005
822.99	3039
823.13	3180
823.27	3207
823.41	3100
823.55	3169
823.69	3135
823.83	3203
823.97	3123
824.11	3009
824.25	2986
824.389	3070
824.529	3119
824.669	3047
824.809	3192
824.949	3268
825.089	3192
825.228	3173
825.368	3013
825.508	2941
825.648	2975
825.787	2982
825.927	3001
826.067	2963
826.206	2960
826.346	3017
826.485	3108
826.625	3104
826.765	3260
826.904	3211
827.044	2994
827.183	2929
827.323	2826
827.462	2986
827.601	2929
827.741	2899
827.88	2960
828.02	2857
828.159	2937
828.298	3017
828.437	3116
828.577	3028
828.716	3260
828.855	3093
828.994	2910
829.134	2941
829.273	2906
829.412	2876
829.551	2883
829.69	2857
829.829	2986
829.968	3127
830.107	3020
830.246	3028
830.385	2906
830.524	2861
830.663	2804
830.802	2708
830.941	2636
831.08	2678
831.219	2758
831.357	2743
831.496	2967
831.635	2727
831.774	2632
831.913	2659
832.051	2522
832.19	2575
832.329	2712
832.467	2492
832.606	2457
832.744	2564
832.883	2564
833.022	2587
833.16	2655
833.299	2667
833.437	2663
833.576	2731
833.714	2754
833.852	2746
833.991	2800
834.129	2853
834.267	2834
834.406	2815
834.544	2842
834.682	2883
834.821	2845
834.959	3024
835.097	2864
835.235	3062
835.373	3009
835.511	3020
835.65	2979
835.788	2952
835.926	2811
836.064	2804
836.202	2830
836.34	3085
836.478	3154
836.615	3047
836.753	3146
836.891	3199
837.029	3165
837.167	3116
837.305	3039
837.443	3051
837.58	2967
837.718	3131
837.856	3062
837.993	3020
838.131	3093
838.269	3081
838.406	3055
838.544	3066
838.681	2944
838.819	2929
838.956	2838
839.094	2823
839.231	2906
839.369	3009
839.506	3378
839.643	3203
839.781	3005
839.918	2967
840.055	3001
840.193	3039
840.33	3074
840.467	3066
840.604	3154
840.742	3420
840.879	3051
841.016	3039
841.153	3123
841.29	3344
841.427	3306
841.564	3287
841.701	3317
841.838	3222
841.975	3173
842.112	3222
842.249	3085
842.385	3028
842.522	3226
842.659	3119
842.796	3077
842.933	3097
843.069	3036
843.206	3032
843.343	3195
843.479	3089
843.616	3116
843.752	2868
843.889	2868
844.025	3074
844.162	2891
844.298	3062
844.435	2925
844.571	2906
844.708	3112
844.844	3184
844.98	3211
845.117	3192
845.253	3009
845.389	3028
845.525	3127
845.661	3077
845.798	3020
845.934	3066
846.07	3024
846.206	3222
846.342	3287
846.478	3211
846.614	3070
846.75	3055
846.886	3001
847.022	3237
847.158	3138
847.294	3199
847.429	3256
847.565	3237
847.701	3473
847.837	2994
847.972	3001
848.108	3150
848.244	3081
848.379	2975
848.515	2918
848.65	2914
848.786	2944
848.921	3028
849.057	3123
849.192	3138
849.328	3074
849.463	3154
849.598	3055
849.734	3005
849.869	2941
850.004	2941
850.14	2975
850.275	2883
850.41	2868
850.545	2891
850.68	2910
850.815	2925
850.95	2960
851.085	3222
851.22	3085
851.355	3009
851.49	2982
851.625	3001
851.76	2979
851.895	2910
852.03	2895
852.165	3017
852.299	3093
852.434	3154
852.569	3108
852.703	3169
852.838	3249
852.973	3355
853.107	3302
853.242	3157
853.376	3062
853.511	2990
853.645	3009
853.78	3169
853.914	3108
854.048	3093
854.183	3093
854.317	3135
854.451	3313
854.585	3108
854.72	3066
854.854	3169
854.988	3039
855.122	3058
855.256	2963
855.39	3097
855.524	3233
855.658	3161
855.792	3157
855.926	3211
856.06	3218
856.194	3241
856.327	3138
856.461	3104
856.595	3097
856.729	3070
856.862	3195
856.996	3142
857.13	3199
857.263	3214
857.397	3260
857.53	3070
857.664	3203
857.797	3195
857.931	3298
858.064	3123
858.197	3195
858.331	3135
858.464	3093
858.597	3024
858.731	3104
858.864	3100
858.997	3093
859.13	3161
859.263	3188
859.396	3157
859.529	3043
859.662	3074
859.795	3032
859.928	3146
860.061	3256
860.194	3287
860.327	3138
860.46	3062
860.592	3241
860.725	3264
860.858	3230
860.99	3097
861.123	3028
861.256	3028
861.388	3127
861.521	3835
861.653	3013
861.786	2986
861.918	2998
862.05	3043
862.183	3112
862.315	3157
862.447	3211
862.58	3070
862.712	2944
862.844	2834
862.976	3032
863.108	2967
863.24	3272
863.372	2899
863.504	2967
863.636	2918
863.768	3013
863.9	2963
864.032	2906
864.164	2979
864.296	3017
864.428	3123
864.559	3089
864.691	3058
864.823	3028
864.954	3036
865.086	3020
865.217	2982
865.349	2902
865.48	3017
865.612	3028
865.743	3157
865.875	2963
866.006	2925
866.137	2963
866.269	2952
866.4	2960
866.531	2899
866.662	2902
866.793	2906
866.924	2914
867.055	2956
867.186	2918
867.317	2914
867.448	2807
867.579	2853
867.71	2861
867.841	2792
867.972	2872
868.103	2880
868.233	2861
868.364	2842
868.495	2891
868.625	3066
868.756	3169
868.886	2948
869.017	3036
869.147	3146
869.278	3150
869.408	3020
869.539	3043
869.669	3123
869.799	3036
869.929	3150
870.06	3089
870.19	3329
870.32	3256
870.45	3264
870.58	3370
870.71	3462
870.84	3443
870.97	3264
871.1	3214
871.23	3477
871.36	3462
871.489	3348
871.619	3389
871.749	3359
871.879	3401
872.008	3477
872.138	3374
872.267	3260
872.397	3119
872.526	3089
872.656	3001
872.785	3051
872.915	3203
873.044	3321
873.173	3211
873.303	3283
873.432	3253
873.561	3230
873.69	3154
873.819	3142
873.948	3180
874.077	3066
874.206	3039
874.335	3089
874.464	3207
874.593	3313
874.722	3279
874.851	3435
874.979	3329
875.108	3321
875.237	3173
875.365	3154
875.494	3176
875.623	3195
875.751	3100
875.88	3089
876.008	3214
876.136	3233
876.265	3382
876.393	3492
876.521	3389
876.65	3405
876.778	3340
876.906	3260
877.034	3188
877.162	3230
877.29	3154
877.418	3241
877.546	3226
877.674	3211
877.802	3230
877.93	3203
878.058	3173
878.185	3081
878.313	3188
878.441	3169
878.568	3108
878.696	3154
878.824	3192
878.951	3287
879.079	3469
879.206	3625
879.333	3485
879.461	3321
879.588	3348
879.715	3477
879.842	3557
879.97	3348
880.097	3176
880.224	3135
880.351	3119
880.478	3203
880.605	3214
880.732	3165
880.859	3443
880.986	3310
881.112	3298
881.239	3203
881.366	3051
881.493	3032
881.619	3047
881.746	3032
881.872	3058
881.999	3116
882.125	3123
882.252	3249
882.378	3313
882.505	3435
882.631	3260
882.757	3131
882.883	3214
883.01	3218
883.136	3150
883.262	3097
883.388	3104
883.514	3348
883.64	3348
883.766	3279
883.892	3173
884.018	3218
884.143	3409
884.269	3549
884.395	3203
884.52	3173
884.646	3169
884.772	3108
884.897	3116
885.023	3207
885.148	3317
885.274	3420
885.399	3386
885.524	3294
885.65	3287
885.775	3321
885.9	3275
886.025	3447
886.15	3363
886.275	3268
886.4	3237
886.525	3268
886.65	3302
886.775	3294
886.9	3496
887.025	3660
887.149	3435
887.274	3249
887.399	3180
887.523	3195
887.648	3161
887.773	3218
887.897	3351
888.021	3374
888.146	3306
888.27	3450
888.395	3507
888.519	3431
888.643	3428
888.767	3439
888.891	3256
889.015	3211
889.139	3332
889.263	3245
889.387	3454
889.511	3515
889.635	3428
889.759	3272
889.883	3306
890.006	3344
890.13	3477
890.254	3275
890.377	3348
890.501	3199
890.624	3184
890.748	3287
890.871	3150
890.995	3085
891.118	3036
891.241	3192
891.364	3268
891.488	3283
891.611	3176
891.734	3233
891.857	3294
891.98	3222
892.103	3287
892.226	3253
892.349	3188
892.471	3081
892.594	3237
892.717	3264
892.839	3233
892.962	3302
893.085	3348
893.207	3298
893.33	3173
893.452	3195
893.575	3348
893.697	3249
893.819	3469
893.941	3496
894.064	3458
894.186	3279
894.308	3249
894.43	3458
894.552	3595
894.674	3473
894.796	3241
894.918	3298
895.04	3287
895.161	3431
895.283	3397
895.405	3306
895.526	3382
895.648	3424
895.769	3405
895.891	3458
896.012	3477
896.134	3454
896.255	3416
896.376	3348
896.498	3344
896.619	3389
896.74	3348
896.861	3416
896.982	3694
897.103	3804
897.224	3606
897.345	3488
897.466	3450
897.587	3507
897.708	3644
897.828	3564
897.949	3393
898.07	3344
898.19	3428
898.311	3568
898.431	3458
898.552	3511
898.672	3591
898.792	3576
898.913	3538
899.033	3409
899.153	3306
899.273	3214
899.393	3283
899.513	3313
899.633	3313
899.753	3317
899.873	3306
899.993	3363
900.113	3306
900.232	3386
900.352	3313
900.472	3294
900.591	3199
900.711	3268
900.83	3199
900.95	3401
901.069	3469
901.189	3332
901.308	3176
901.427	3131
901.546	3138
901.665	3287
901.784	3351
901.904	3226
902.023	3150
902.141	3017
902.26	2979
902.379	3146
902.498	3062
902.617	3036
902.735	3199
902.854	3256
902.973	3211
903.091	3047
903.21	3089
903.328	3157
903.446	3104
903.565	3108
903.683	3230
903.801	3157
903.919	3241
904.038	3256
904.156	3161
904.274	3298
904.392	3283
904.51	3264
904.627	3351
904.745	3435
904.863	3534
904.981	3294
905.098	3131
905.216	3222
905.334	3294
905.451	3317
905.569	3306
905.686	3477
905.803	3424
905.921	3313
906.038	3473
906.155	3291
906.272	3275
906.389	3291
906.506	3233
906.623	3260
906.74	3275
906.857	3214
906.974	3241
907.091	3435
907.208	3534
907.324	3496
907.441	3412
907.557	3214
907.674	3245
907.79	3199
907.907	3268
908.023	3351
908.139	3382
908.256	3344
908.372	3374
908.488	3359
908.604	3275
908.72	3211
908.836	3283
908.952	3245
909.068	3340
909.184	3428
909.3	3378
909.415	3477
909.531	3458
909.647	3298
909.762	3317
909.878	3237
909.993	3348
910.108	3355
910.224	3374
910.339	3401
910.454	3317
910.57	3298
910.685	3268
910.8	3622
910.915	3538
911.03	3386
911.145	3272
911.259	3268
911.374	3298
911.489	3245
911.604	3180
911.718	3093
911.833	3146
911.947	3017
912.062	2986
912.176	3131
912.291	3207
912.405	3195
912.519	3420
912.633	3454
912.748	3306
912.862	3264
912.976	3180
913.09	3047
913.204	3142
913.318	3195
913.431	3325
913.545	3382
913.659	3443
913.772	3336
913.886	3203
914	3176
914.113	3348
914.226	3424
914.34	3348
914.453	3207
914.566	3389
914.68	3287
914.793	3294
914.906	3142
915.019	3093
915.132	3039
915.245	3146
915.358	3211
915.47	3207
915.583	3253
915.696	3279
915.809	3420
915.921	3409
916.034	3253
916.146	3256
916.259	3241
916.371	3405
916.483	3405
916.595	3241
916.708	3298
916.82	3355
916.932	3313
917.044	3313
917.156	3298
917.268	3302
917.38	3298
917.491	3310
917.603	3374
917.715	3473
917.826	3431
917.938	3393
918.049	3321
918.161	3401
918.272	3572
918.384	3561
918.495	3492
918.606	3329
918.717	3241
918.828	3374
918.939	3409
919.05	3260
919.161	3340
919.272	3207
919.383	3275
919.494	3507
919.604	3740
919.715	3488
919.826	3344
919.936	3469
920.047	3584
920.157	3519
920.267	3743
920.378	3618
920.488	3587
920.598	3804
920.708	3964
920.818	3827
920.928	3819
921.038	3998
921.148	3968
921.258	3728
921.368	3629
921.477	3545
921.587	3485
921.697	3500
921.806	3618
921.916	3507
922.025	3355
922.134	3405
922.244	3313
922.353	3386
922.462	3268
922.571	3230
922.68	3100
922.789	3058
922.898	3108
923.007	3070
923.116	3211
923.224	3169
923.333	3192
923.442	3142
923.55	3043
923.659	3157
923.767	3203
923.876	3077
923.984	3218
924.092	3058
924.201	3203
924.309	3203
924.417	3233
924.525	3184
924.633	3192
924.741	4204
924.849	3043
924.956	3230
925.064	3085
925.172	3024
925.279	3112
925.387	3211
925.494	3203
925.602	3348
925.709	3294
925.816	3192
925.924	3291
926.031	3386
926.138	3340
926.245	3378
926.352	3241
926.459	3374
926.566	3443
926.673	3306
926.779	3253
926.886	3256
926.993	3157
927.099	3119
927.206	3131
927.312	3100
927.419	3214
927.525	3195
927.631	3260
927.737	3131
927.843	3135
927.95	3028
928.056	3104
928.162	3165
928.267	3275
928.373	3781
928.479	3325
928.585	3020
928.69	3211
928.796	3256
928.901	3157
929.007	3097
929.112	3203
929.218	3192
929.323	3150
929.428	3104
929.533	3298
929.638	3116
929.743	3154
929.848	3279
929.953	3207
930.058	3119
930.163	2975
930.267	3043
930.372	3161
930.477	3020
930.581	3332
930.685	3138
930.79	3047
930.894	3142
930.998	3112
931.103	3272
931.207	2929
931.311	2944
931.415	2933
931.519	2758
931.623	2811
