Data from test_V78500241_1298.txt Node
Date: Fri Mar 25 16:24:11 CST 2022
User: usil
Spectrometer: V785-0024
Trigger mode: 0
Integration Time (sec): 4.000000E-1
Scans to average: 1
Nonlinearity correction enabled: false
Boxcar width: 0
Storing dark spectrum: false
XAxis mode: Wavelengths
Number of Pixels in Spectrum: 1024
>>>>>Begin Spectral Data<<<<<
801.071	2906
801.214	2963
801.356	2819
801.499	2914
801.641	2861
801.783	2933
801.926	3055
802.068	2944
802.211	2986
802.353	3058
802.496	2994
802.638	2986
802.78	3017
802.923	3108
803.065	3032
803.208	2864
803.35	2906
803.492	2902
803.635	2918
803.777	2769
803.919	2880
804.061	3154
804.204	2952
804.346	2891
804.488	2804
804.63	2944
804.773	2868
804.915	2914
805.057	3051
805.199	2929
805.341	2933
805.483	3032
805.626	2994
805.768	2948
805.91	3097
806.052	3138
806.194	2990
806.336	3165
806.478	3043
806.62	2941
806.762	2971
806.904	3077
807.046	3157
807.188	2948
807.33	2902
807.472	2998
807.614	2895
807.756	2963
807.898	2895
808.04	2868
808.182	2998
808.324	2982
808.465	2887
808.607	2880
808.749	2815
808.891	2853
809.033	2971
809.174	2956
809.316	2914
809.458	2925
809.6	2762
809.741	2758
809.883	2746
810.025	2838
810.166	2819
810.308	2815
810.45	2826
810.591	2750
810.733	2739
810.875	2845
811.016	2804
811.158	2762
811.299	2804
811.441	2899
811.582	2906
811.724	2807
811.865	2811
812.007	2906
812.148	2864
812.29	2845
812.431	2864
812.573	2925
812.714	2967
812.855	3036
812.997	3070
813.138	3104
813.279	3032
813.421	2986
813.562	2925
813.703	2883
813.845	2868
813.986	2750
814.127	2743
814.268	2826
814.41	2864
814.551	2819
814.692	2864
814.833	2807
814.974	2910
815.115	2971
815.256	2838
815.397	2807
815.539	2883
815.68	2792
815.821	2781
815.962	2891
816.103	2929
816.244	2883
816.385	2868
816.526	2956
816.666	2952
816.807	2754
816.948	2857
817.089	2857
817.23	2838
817.371	2750
817.512	2788
817.653	2849
817.793	2819
817.934	2868
818.075	2956
818.216	2967
818.356	3013
818.497	2883
818.638	2804
818.778	2815
818.919	2785
819.06	2750
819.2	2887
819.341	2819
819.481	2815
819.622	2902
819.762	3089
819.903	3043
820.043	2918
820.184	2922
820.324	2902
820.465	3043
820.605	2998
820.746	3009
820.886	2952
821.026	3100
821.167	3176
821.307	3245
821.447	3264
821.588	3237
821.728	3195
821.868	3176
822.008	3047
822.149	3146
822.289	3203
822.429	3066
822.569	3039
822.709	3138
822.849	3028
822.99	3074
823.13	3123
823.27	3165
823.41	3089
823.55	3123
823.69	3138
823.83	3203
823.97	3100
824.11	3017
824.25	3009
824.389	3062
824.529	3077
824.669	3047
824.809	3214
824.949	3256
825.089	3241
825.228	3085
825.368	2990
825.508	2944
825.648	2975
825.787	3009
825.927	3013
826.067	2948
826.206	2963
826.346	3036
826.485	3024
826.625	3112
826.765	3245
826.904	3230
827.044	2998
827.183	2963
827.323	2857
827.462	3001
827.601	2929
827.741	2925
827.88	2952
828.02	2823
828.159	2982
828.298	3032
828.437	3119
828.577	3043
828.716	3237
828.855	3085
828.994	2887
829.134	2872
829.273	2922
829.412	2853
829.551	2868
829.69	2906
829.829	2963
829.968	3116
830.107	3005
830.246	3013
830.385	2906
830.524	2883
830.663	2781
830.802	2693
830.941	2655
831.08	2640
831.219	2727
831.357	2773
831.496	2944
831.635	2689
831.774	2617
831.913	2663
832.051	2526
832.19	2587
832.329	2697
832.467	2541
832.606	2526
832.744	2594
832.883	2575
833.022	2537
833.16	2644
833.299	2667
833.437	2697
833.576	2693
833.714	2727
833.852	2724
833.991	2766
834.129	2826
834.267	2823
834.406	2800
834.544	2880
834.682	2872
834.821	2838
834.959	3070
835.097	2864
835.235	3039
835.373	2944
835.511	3017
835.65	2933
835.788	2937
835.926	2830
836.064	2823
836.202	2853
836.34	3051
836.478	3127
836.615	3047
836.753	3119
836.891	3176
837.029	3142
837.167	3112
837.305	3093
837.443	3028
837.58	2937
837.718	3089
837.856	3085
837.993	3039
838.131	3127
838.269	3100
838.406	3058
838.544	3097
838.681	2941
838.819	2876
838.956	2781
839.094	2834
839.231	2899
839.369	3001
839.506	3374
839.643	3180
839.781	2990
839.918	2967
840.055	3039
840.193	3032
840.33	3074
840.467	3089
840.604	3131
840.742	3363
840.879	3036
841.016	3070
841.153	3081
841.29	3294
841.427	3241
841.564	3241
841.701	3298
841.838	3211
841.975	3123
842.112	3184
842.249	3036
842.385	3028
842.522	3287
842.659	3070
842.796	3032
842.933	3100
843.069	3020
843.206	2994
843.343	3199
843.479	3138
843.616	3119
843.752	2895
843.889	2815
844.025	3055
844.162	2883
844.298	3062
844.435	2933
844.571	2914
844.708	3039
844.844	3150
844.98	3249
845.117	3176
845.253	3032
845.389	2986
845.525	3100
845.661	3097
845.798	2994
845.934	3127
846.07	3032
846.206	3253
846.342	3306
846.478	3245
846.614	3093
846.75	3009
846.886	3043
847.022	3218
847.158	3119
847.294	3176
847.429	3237
847.565	3203
847.701	3473
847.837	2998
847.972	3020
848.108	3184
848.244	3138
848.379	2982
848.515	2952
848.65	2918
848.786	2971
848.921	2952
849.057	3097
849.192	3157
849.328	3085
849.463	3127
849.598	3051
849.734	3017
849.869	2967
850.004	2902
850.14	2948
850.275	2857
850.41	2842
850.545	2872
850.68	2929
850.815	2956
850.95	2986
851.085	3192
851.22	3097
851.355	2998
851.49	2979
851.625	2986
851.76	3013
851.895	2899
852.03	2914
852.165	3036
852.299	3089
852.434	3135
852.569	3150
852.703	3142
852.838	3237
852.973	3313
853.107	3321
853.242	3154
853.376	3093
853.511	2990
853.645	3047
853.78	3230
853.914	3097
854.048	3089
854.183	3051
854.317	3146
854.451	3279
854.585	3138
854.72	3089
854.854	3203
854.988	3070
855.122	3104
855.256	2952
855.39	3081
855.524	3264
855.658	3123
855.792	3135
855.926	3188
856.06	3188
856.194	3260
856.327	3150
856.461	3062
856.595	3077
856.729	3055
856.862	3237
856.996	3131
857.13	3176
857.263	3203
857.397	3275
857.53	3116
857.664	3176
857.797	3211
857.931	3256
858.064	3135
858.197	3173
858.331	3097
858.464	3135
858.597	3001
858.731	3089
858.864	3127
858.997	3074
859.13	3150
859.263	3127
859.396	3180
859.529	3055
859.662	3074
859.795	3017
859.928	3138
860.061	3253
860.194	3294
860.327	3127
860.46	3077
860.592	3192
860.725	3195
860.858	3203
860.99	3081
861.123	3047
861.256	3085
861.388	3131
861.521	3690
861.653	3028
861.786	2998
861.918	3001
862.05	3039
862.183	3123
862.315	3150
862.447	3214
862.58	3081
862.712	2937
862.844	2861
862.976	3017
863.108	3001
863.24	3302
863.372	2861
863.504	2971
863.636	2941
863.768	3055
863.9	2986
864.032	2895
864.164	2918
864.296	2998
864.428	3077
864.559	3093
864.691	3062
864.823	3077
864.954	3051
865.086	3009
865.217	2979
865.349	2994
865.48	2982
865.612	3001
865.743	3142
865.875	2982
866.006	2952
866.137	2971
866.269	2982
866.4	2941
866.531	2933
866.662	2956
866.793	2883
866.924	2910
867.055	2944
867.186	2922
867.317	2876
867.448	2811
867.579	2842
867.71	2861
867.841	2815
867.972	2922
868.103	2887
868.233	2872
868.364	2849
868.495	2891
868.625	3112
868.756	3176
868.886	2929
869.017	3020
869.147	3150
869.278	3173
869.408	3039
869.539	3013
869.669	3097
869.799	3024
869.929	3119
870.06	3081
870.19	3340
870.32	3272
870.45	3264
870.58	3344
870.71	3435
870.84	3416
870.97	3275
871.1	3222
871.23	3450
871.36	3473
871.489	3355
871.619	3397
871.749	3409
871.879	3393
872.008	3428
872.138	3310
872.267	3268
872.397	3119
872.526	3108
872.656	3020
872.785	3081
872.915	3264
873.044	3306
873.173	3241
873.303	3245
873.432	3230
873.561	3211
873.69	3165
873.819	3116
873.948	3184
874.077	3100
874.206	3017
874.335	3100
874.464	3176
874.593	3321
874.722	3222
874.851	3389
874.979	3351
875.108	3317
875.237	3211
875.365	3161
875.494	3157
875.623	3218
875.751	3116
875.88	3138
876.008	3203
876.136	3230
876.265	3401
876.393	3507
876.521	3378
876.65	3420
876.778	3355
876.906	3233
877.034	3184
877.162	3249
877.29	3214
877.418	3253
877.546	3188
877.674	3230
877.802	3192
877.93	3218
878.058	3135
878.185	3112
878.313	3230
878.441	3192
878.568	3032
878.696	3161
878.824	3230
878.951	3313
879.079	3447
879.206	3603
879.333	3469
879.461	3336
879.588	3332
879.715	3500
879.842	3587
879.97	3351
880.097	3157
880.224	3093
880.351	3165
880.478	3218
880.605	3173
880.732	3211
880.859	3496
880.986	3317
881.112	3291
881.239	3218
881.366	3089
881.493	3047
881.619	3020
881.746	3047
881.872	3100
881.999	3100
882.125	3127
882.252	3268
882.378	3237
882.505	3370
882.631	3287
882.757	3135
882.883	3184
883.01	3199
883.136	3165
883.262	3097
883.388	3142
883.514	3310
883.64	3355
883.766	3317
883.892	3150
884.018	3222
884.143	3355
884.269	3526
884.395	3199
884.52	3146
884.646	3169
884.772	3131
884.897	3058
885.023	3195
885.148	3344
885.274	3420
885.399	3321
885.524	3279
885.65	3237
885.775	3317
885.9	3245
886.025	3458
886.15	3332
886.275	3325
886.4	3192
886.525	3310
886.65	3279
886.775	3249
886.9	3477
887.025	3625
887.149	3363
887.274	3260
887.399	3150
887.523	3195
887.648	3146
887.773	3233
887.897	3363
888.021	3393
888.146	3283
888.27	3428
888.395	3561
888.519	3405
888.643	3443
888.767	3462
888.891	3272
889.015	3237
889.139	3283
889.263	3253
889.387	3382
889.511	3504
889.635	3443
889.759	3298
889.883	3306
890.006	3397
890.13	3504
890.254	3275
890.377	3313
890.501	3192
890.624	3203
890.748	3283
890.871	3199
890.995	3077
891.118	3085
891.241	3150
891.364	3218
891.488	3298
891.611	3176
891.734	3264
891.857	3241
891.98	3218
892.103	3302
892.226	3287
892.349	3207
892.471	3081
892.594	3241
892.717	3321
892.839	3249
892.962	3264
893.085	3374
893.207	3329
893.33	3142
893.452	3260
893.575	3367
893.697	3253
893.819	3481
893.941	3500
894.064	3405
894.186	3226
894.308	3268
894.43	3420
894.552	3496
894.674	3477
894.796	3241
894.918	3329
895.04	3226
895.161	3416
895.283	3363
895.405	3294
895.526	3340
895.648	3420
895.769	3420
895.891	3469
896.012	3469
896.134	3466
896.255	3409
896.376	3401
896.498	3344
896.619	3409
896.74	3370
896.861	3409
896.982	3698
897.103	3869
897.224	3599
897.345	3515
897.466	3428
897.587	3447
897.708	3603
897.828	3553
897.949	3401
898.07	3351
898.19	3386
898.311	3561
898.431	3428
898.552	3500
898.672	3576
898.792	3591
898.913	3473
899.033	3420
899.153	3287
899.273	3184
899.393	3268
899.513	3287
899.633	3268
899.753	3291
899.873	3317
899.993	3378
900.113	3359
900.232	3393
900.352	3336
900.472	3279
900.591	3176
900.711	3325
900.83	3226
900.95	3424
901.069	3519
901.189	3317
901.308	3146
901.427	3154
901.546	3207
901.665	3306
901.784	3317
901.904	3222
902.023	3173
902.141	2967
902.26	3009
902.379	3138
902.498	3070
902.617	3039
902.735	3226
902.854	3237
902.973	3176
903.091	3020
903.21	3024
903.328	3150
903.446	3100
903.565	3112
903.683	3207
903.801	3135
903.919	3241
904.038	3291
904.156	3154
904.274	3283
904.392	3253
904.51	3287
904.627	3313
904.745	3382
904.863	3454
904.981	3222
905.098	3173
905.216	3211
905.334	3294
905.451	3340
905.569	3302
905.686	3401
905.803	3454
905.921	3317
906.038	3424
906.155	3359
906.272	3272
906.389	3321
906.506	3222
906.623	3211
906.74	3268
906.857	3192
906.974	3237
907.091	3420
907.208	3584
907.324	3526
907.441	3382
907.557	3226
907.674	3203
907.79	3233
907.907	3253
908.023	3389
908.139	3374
908.256	3367
908.372	3351
908.488	3359
908.604	3272
908.72	3268
908.836	3298
908.952	3260
909.068	3336
909.184	3462
909.3	3370
909.415	3523
909.531	3462
909.647	3256
909.762	3237
909.878	3233
909.993	3329
910.108	3317
910.224	3344
910.339	3370
910.454	3302
910.57	3325
910.685	3253
910.8	3591
910.915	3504
911.03	3469
911.145	3199
911.259	3230
911.374	3306
911.489	3214
911.604	3237
911.718	3108
911.833	3154
911.947	3009
912.062	2986
912.176	3199
912.291	3176
912.405	3199
912.519	3428
912.633	3481
912.748	3336
912.862	3245
912.976	3192
913.09	3055
913.204	3123
913.318	3237
913.431	3336
913.545	3367
913.659	3340
913.772	3355
913.886	3214
914	3241
914.113	3386
914.226	3439
914.34	3348
914.453	3199
914.566	3424
914.68	3279
914.793	3329
914.906	3131
915.019	3093
915.132	3074
915.245	3146
915.358	3188
915.47	3230
915.583	3264
915.696	3310
915.809	3416
915.921	3405
916.034	3272
916.146	3253
916.259	3237
916.371	3378
916.483	3340
916.595	3260
916.708	3317
916.82	3332
916.932	3355
917.044	3340
917.156	3321
917.268	3256
917.38	3302
917.491	3306
917.603	3340
917.715	3428
917.826	3435
917.938	3367
918.049	3264
918.161	3409
918.272	3587
918.384	3564
918.495	3534
918.606	3329
918.717	3279
918.828	3370
918.939	3409
919.05	3287
919.161	3340
919.272	3195
919.383	3291
919.494	3511
919.604	3690
919.715	3488
919.826	3389
919.936	3439
920.047	3618
920.157	3549
920.267	3732
920.378	3606
920.488	3572
920.598	3812
920.708	3899
920.818	3808
920.928	3819
921.038	4002
921.148	3975
921.258	3705
921.368	3656
921.477	3557
921.587	3515
921.697	3409
921.806	3587
921.916	3523
922.025	3367
922.134	3332
922.244	3329
922.353	3409
922.462	3245
922.571	3233
922.68	3131
922.789	3077
922.898	3142
923.007	3093
923.116	3176
923.224	3203
923.333	3169
923.442	3074
923.55	3116
923.659	3146
923.767	3256
923.876	3131
923.984	3222
924.092	3116
924.201	3222
924.309	3207
924.417	3214
924.525	3207
924.633	3230
924.741	3998
924.849	3058
924.956	3302
925.064	3081
925.172	3020
925.279	3081
925.387	3165
925.494	3180
925.602	3351
925.709	3351
925.816	3199
925.924	3279
926.031	3382
926.138	3344
926.245	3393
926.352	3245
926.459	3409
926.566	3507
926.673	3279
926.779	3253
926.886	3226
926.993	3142
927.099	3123
927.206	3116
927.312	3138
927.419	3218
927.525	3188
927.631	3230
927.737	3127
927.843	3112
927.95	3039
928.056	3131
928.162	3161
928.267	3245
928.373	3861
928.479	3302
928.585	3058
928.69	3188
928.796	3256
928.901	3142
929.007	3074
929.112	3207
929.218	3192
929.323	3150
929.428	3180
929.533	3313
929.638	3089
929.743	3150
929.848	3283
929.953	3203
930.058	3127
930.163	2986
930.267	2994
930.372	3218
930.477	3020
930.581	3298
930.685	3142
930.79	3043
930.894	3184
930.998	3074
931.103	3291
931.207	3013
931.311	2929
931.415	2902
931.519	2781
931.623	2811
