Data from test_V78500241_1261.txt Node
Date: Fri Mar 25 16:23:56 CST 2022
User: usil
Spectrometer: V785-0024
Trigger mode: 0
Integration Time (sec): 4.000000E-1
Scans to average: 1
Nonlinearity correction enabled: false
Boxcar width: 0
Storing dark spectrum: false
XAxis mode: Wavelengths
Number of Pixels in Spectrum: 1024
>>>>>Begin Spectral Data<<<<<
801.071	2960
801.214	2982
801.356	2872
801.499	2876
801.641	2880
801.783	2937
801.926	3055
802.068	2979
802.211	3009
802.353	3032
802.496	2975
802.638	3013
802.78	3043
802.923	3085
803.065	3005
803.208	2952
803.35	2948
803.492	2948
803.635	2944
803.777	2785
803.919	2876
804.061	3173
804.204	2967
804.346	2925
804.488	2857
804.63	2990
804.773	2864
804.915	2895
805.057	3070
805.199	2944
805.341	2960
805.483	3055
805.626	3005
805.768	2952
805.91	3051
806.052	3070
806.194	3062
806.336	3245
806.478	3028
806.62	2929
806.762	2994
806.904	3066
807.046	3165
807.188	2994
807.33	2895
807.472	3020
807.614	2910
807.756	2990
807.898	2929
808.04	2925
808.182	3001
808.324	2937
808.465	2887
808.607	2899
808.749	2807
808.891	2857
809.033	2994
809.174	2982
809.316	2902
809.458	2902
809.6	2804
809.741	2781
809.883	2796
810.025	2853
810.166	2914
810.308	2861
810.45	2868
810.591	2762
810.733	2758
810.875	2883
811.016	2785
811.158	2754
811.299	2838
811.441	2933
811.582	2861
811.724	2834
811.865	2819
812.007	2906
812.148	2883
812.29	2853
812.431	2883
812.573	2941
812.714	2975
812.855	3074
812.997	3066
813.138	3157
813.279	3009
813.421	2971
813.562	2933
813.703	2864
813.845	2902
813.986	2819
814.127	2720
814.268	2834
814.41	2853
814.551	2815
814.692	2899
814.833	2826
814.974	2910
815.115	2944
815.256	2830
815.397	2807
815.539	2876
815.68	2804
815.821	2800
815.962	2990
816.103	2925
816.244	2925
816.385	2853
816.526	2967
816.666	2925
816.807	2785
816.948	2902
817.089	2899
817.23	2849
817.371	2800
817.512	2788
817.653	2857
817.793	2838
817.934	2899
818.075	2994
818.216	2986
818.356	3051
818.497	2883
818.638	2826
818.778	2823
818.919	2800
819.06	2735
819.2	2883
819.341	2838
819.481	2796
819.622	2960
819.762	3104
819.903	3036
820.043	2925
820.184	2910
820.324	2853
820.465	3036
820.605	3005
820.746	3009
820.886	2937
821.026	3123
821.167	3173
821.307	3245
821.447	3321
821.588	3241
821.728	3184
821.868	3180
822.008	3097
822.149	3199
822.289	3207
822.429	3070
822.569	3119
822.709	3192
822.849	3058
822.99	3051
823.13	3154
823.27	3203
823.41	3089
823.55	3146
823.69	3161
823.83	3199
823.97	3112
824.11	3005
824.25	2982
824.389	3089
824.529	3119
824.669	3074
824.809	3211
824.949	3264
825.089	3211
825.228	3150
825.368	2998
825.508	2990
825.648	2986
825.787	3017
825.927	2994
826.067	2975
826.206	2929
826.346	3043
826.485	3062
826.625	3146
826.765	3264
826.904	3184
827.044	2990
827.183	2944
827.323	2887
827.462	3020
827.601	2925
827.741	2941
827.88	2967
828.02	2842
828.159	2986
828.298	3005
828.437	3135
828.577	3066
828.716	3233
828.855	3077
828.994	2925
829.134	2895
829.273	2891
829.412	2880
829.551	2834
829.69	2902
829.829	2979
829.968	3169
830.107	3047
830.246	3032
830.385	2948
830.524	2914
830.663	2796
830.802	2743
830.941	2648
831.08	2648
831.219	2746
831.357	2746
831.496	2986
831.635	2727
831.774	2629
831.913	2659
832.051	2571
832.19	2564
832.329	2689
832.467	2522
832.606	2514
832.744	2621
832.883	2613
833.022	2610
833.16	2636
833.299	2636
833.437	2705
833.576	2724
833.714	2712
833.852	2746
833.991	2754
834.129	2845
834.267	2830
834.406	2769
834.544	2842
834.682	2861
834.821	2868
834.959	3093
835.097	2880
835.235	3066
835.373	3005
835.511	3020
835.65	2971
835.788	2960
835.926	2853
836.064	2796
836.202	2830
836.34	3097
836.478	3173
836.615	3077
836.753	3146
836.891	3192
837.029	3203
837.167	3131
837.305	3062
837.443	3062
837.58	2948
837.718	3146
837.856	3081
837.993	3062
838.131	3104
838.269	3085
838.406	3116
838.544	3100
838.681	2933
838.819	2929
838.956	2815
839.094	2819
839.231	2922
839.369	3005
839.506	3359
839.643	3241
839.781	3047
839.918	2944
840.055	3039
840.193	3036
840.33	3070
840.467	3093
840.604	3157
840.742	3382
840.879	3074
841.016	3074
841.153	3127
841.29	3329
841.427	3272
841.564	3233
841.701	3310
841.838	3233
841.975	3188
842.112	3214
842.249	3093
842.385	3043
842.522	3245
842.659	3074
842.796	3077
842.933	3085
843.069	3005
843.206	3047
843.343	3169
843.479	3116
843.616	3119
843.752	2872
843.889	2861
844.025	3070
844.162	2883
844.298	3062
844.435	2914
844.571	2925
844.708	3043
844.844	3199
844.98	3222
845.117	3195
845.253	3028
845.389	2986
845.525	3154
845.661	3097
845.798	2982
845.934	3077
846.07	3039
846.206	3237
846.342	3306
846.478	3230
846.614	3043
846.75	3085
846.886	3020
847.022	3233
847.158	3146
847.294	3214
847.429	3249
847.565	3226
847.701	3492
847.837	3032
847.972	3009
848.108	3135
848.244	3146
848.379	2982
848.515	2948
848.65	2948
848.786	2971
848.921	3020
849.057	3108
849.192	3131
849.328	3081
849.463	3116
849.598	3047
849.734	3047
849.869	2941
850.004	2918
850.14	2956
850.275	2929
850.41	2842
850.545	2880
850.68	2967
850.815	2929
850.95	2982
851.085	3192
851.22	3104
851.355	3047
851.49	2982
851.625	3028
851.76	3017
851.895	2922
852.03	2906
852.165	3009
852.299	3119
852.434	3207
852.569	3131
852.703	3157
852.838	3233
852.973	3306
853.107	3344
853.242	3142
853.376	3116
853.511	2937
853.645	3024
853.78	3230
853.914	3089
854.048	3070
854.183	3093
854.317	3138
854.451	3306
854.585	3123
854.72	3108
854.854	3207
854.988	3055
855.122	3077
855.256	2971
855.39	3131
855.524	3275
855.658	3165
855.792	3142
855.926	3192
856.06	3214
856.194	3226
856.327	3161
856.461	3062
856.595	3058
856.729	3074
856.862	3195
856.996	3150
857.13	3199
857.263	3233
857.397	3233
857.53	3154
857.664	3222
857.797	3237
857.931	3241
858.064	3142
858.197	3241
858.331	3131
858.464	3081
858.597	3036
858.731	3093
858.864	3112
858.997	3024
859.13	3161
859.263	3195
859.396	3199
859.529	3028
859.662	3104
859.795	3047
859.928	3104
860.061	3268
860.194	3237
860.327	3142
860.46	3066
860.592	3226
860.725	3260
860.858	3249
860.99	3085
861.123	3051
861.256	3074
861.388	3138
861.521	3713
861.653	3013
861.786	2982
861.918	3020
862.05	3089
862.183	3112
862.315	3154
862.447	3211
862.58	3077
862.712	2929
862.844	2872
862.976	3020
863.108	2990
863.24	3264
863.372	2861
863.504	2979
863.636	2982
863.768	3013
863.9	2990
864.032	2914
864.164	2952
864.296	3013
864.428	3085
864.559	3123
864.691	3112
864.823	3066
864.954	3028
865.086	3081
865.217	2990
865.349	2918
865.48	3032
865.612	3028
865.743	3127
865.875	2925
866.006	2941
866.137	2982
866.269	2960
866.4	2948
866.531	2922
866.662	2868
866.793	2887
866.924	2880
867.055	2941
867.186	2922
867.317	2895
867.448	2838
867.579	2830
867.71	2826
867.841	2796
867.972	2925
868.103	2899
868.233	2883
868.364	2891
868.495	2902
868.625	3058
868.756	3157
868.886	2990
869.017	3009
869.147	3176
869.278	3150
869.408	3074
869.539	3005
869.669	3074
869.799	3051
869.929	3123
870.06	3062
870.19	3386
870.32	3260
870.45	3294
870.58	3378
870.71	3386
870.84	3454
870.97	3283
871.1	3237
871.23	3507
871.36	3443
871.489	3351
871.619	3397
871.749	3382
871.879	3458
872.008	3458
872.138	3351
872.267	3260
872.397	3146
872.526	3077
872.656	3058
872.785	3085
872.915	3230
873.044	3260
873.173	3230
873.303	3214
873.432	3192
873.561	3192
873.69	3161
873.819	3154
873.948	3199
874.077	3089
874.206	3055
874.335	3077
874.464	3195
874.593	3370
874.722	3245
874.851	3378
874.979	3359
875.108	3302
875.237	3165
875.365	3112
875.494	3127
875.623	3279
875.751	3074
875.88	3097
876.008	3195
876.136	3222
876.265	3386
876.393	3500
876.521	3424
876.65	3393
876.778	3321
876.906	3237
877.034	3176
877.162	3184
877.29	3173
877.418	3260
877.546	3230
877.674	3192
877.802	3245
877.93	3249
878.058	3135
878.185	3097
878.313	3199
878.441	3180
878.568	3051
878.696	3176
878.824	3237
878.951	3287
879.079	3412
879.206	3591
879.333	3447
879.461	3348
879.588	3340
879.715	3466
879.842	3572
879.97	3370
880.097	3154
880.224	3150
880.351	3195
880.478	3214
880.605	3207
880.732	3165
880.859	3458
880.986	3291
881.112	3340
881.239	3192
881.366	3077
881.493	3039
881.619	3036
881.746	3066
881.872	3123
881.999	3108
882.125	3119
882.252	3226
882.378	3298
882.505	3405
882.631	3275
882.757	3146
882.883	3214
883.01	3249
883.136	3180
883.262	3112
883.388	3097
883.514	3317
883.64	3329
883.766	3294
883.892	3176
884.018	3230
884.143	3420
884.269	3492
884.395	3199
884.52	3165
884.646	3192
884.772	3097
884.897	3093
885.023	3192
885.148	3321
885.274	3428
885.399	3355
885.524	3279
885.65	3272
885.775	3279
885.9	3264
886.025	3393
886.15	3321
886.275	3306
886.4	3222
886.525	3275
886.65	3268
886.775	3302
886.9	3473
887.025	3633
887.149	3412
887.274	3253
887.399	3165
887.523	3176
887.648	3188
887.773	3180
887.897	3340
888.021	3355
888.146	3302
888.27	3424
888.395	3534
888.519	3424
888.643	3458
888.767	3458
888.891	3279
889.015	3226
889.139	3302
889.263	3264
889.387	3428
889.511	3492
889.635	3454
889.759	3283
889.883	3275
890.006	3325
890.13	3500
890.254	3275
890.377	3325
890.501	3207
890.624	3188
890.748	3279
890.871	3150
890.995	3135
891.118	3032
891.241	3176
891.364	3218
891.488	3287
891.611	3142
891.734	3230
891.857	3256
891.98	3249
892.103	3310
892.226	3241
892.349	3211
892.471	3093
892.594	3222
892.717	3256
892.839	3253
892.962	3272
893.085	3321
893.207	3268
893.33	3146
893.452	3211
893.575	3321
893.697	3264
893.819	3435
893.941	3496
894.064	3401
894.186	3279
894.308	3245
894.43	3431
894.552	3542
894.674	3481
894.796	3260
894.918	3321
895.04	3256
895.161	3424
895.283	3359
895.405	3287
895.526	3378
895.648	3416
895.769	3420
895.891	3481
896.012	3454
896.134	3473
896.255	3420
896.376	3351
896.498	3359
896.619	3439
896.74	3355
896.861	3370
896.982	3690
897.103	3804
897.224	3610
897.345	3515
897.466	3401
897.587	3526
897.708	3660
897.828	3561
897.949	3428
898.07	3325
898.19	3378
898.311	3568
898.431	3443
898.552	3481
898.672	3591
898.792	3599
898.913	3477
899.033	3416
899.153	3264
899.273	3226
899.393	3275
899.513	3291
899.633	3291
899.753	3344
899.873	3302
899.993	3340
900.113	3321
900.232	3374
900.352	3306
900.472	3310
900.591	3214
900.711	3272
900.83	3253
900.95	3466
901.069	3523
901.189	3344
901.308	3180
901.427	3150
901.546	3169
901.665	3291
901.784	3348
901.904	3211
902.023	3157
902.141	2998
902.26	2990
902.379	3165
902.498	3066
902.617	3074
902.735	3195
902.854	3233
902.973	3142
903.091	3062
903.21	3077
903.328	3108
903.446	3138
903.565	3074
903.683	3199
903.801	3093
903.919	3272
904.038	3287
904.156	3161
904.274	3272
904.392	3283
904.51	3237
904.627	3321
904.745	3431
904.863	3469
904.981	3233
905.098	3138
905.216	3184
905.334	3275
905.451	3287
905.569	3302
905.686	3424
905.803	3405
905.921	3260
906.038	3428
906.155	3382
906.272	3279
906.389	3325
906.506	3241
906.623	3207
906.74	3272
906.857	3214
906.974	3249
907.091	3469
907.208	3526
907.324	3454
907.441	3386
907.557	3226
907.674	3230
907.79	3230
907.907	3260
908.023	3370
908.139	3389
908.256	3351
908.372	3348
908.488	3367
908.604	3283
908.72	3260
908.836	3291
908.952	3302
909.068	3325
909.184	3511
909.3	3382
909.415	3496
909.531	3454
909.647	3287
909.762	3272
909.878	3222
909.993	3344
910.108	3310
910.224	3332
910.339	3374
910.454	3344
910.57	3306
910.685	3230
910.8	3561
910.915	3530
911.03	3450
911.145	3279
911.259	3283
911.374	3287
911.489	3180
911.604	3199
911.718	3138
911.833	3116
911.947	3043
912.062	2982
912.176	3188
912.291	3169
912.405	3199
912.519	3428
912.633	3447
912.748	3313
912.862	3268
912.976	3161
913.09	3043
913.204	3119
913.318	3214
913.431	3325
913.545	3306
913.659	3363
913.772	3287
913.886	3207
914	3207
914.113	3370
914.226	3344
914.34	3367
914.453	3222
914.566	3405
914.68	3275
914.793	3268
914.906	3142
915.019	3070
915.132	3047
915.245	3169
915.358	3180
915.47	3211
915.583	3241
915.696	3329
915.809	3393
915.921	3397
916.034	3268
916.146	3268
916.259	3207
916.371	3332
916.483	3367
916.595	3226
916.708	3325
916.82	3374
916.932	3367
917.044	3336
917.156	3367
917.268	3264
917.38	3294
917.491	3283
917.603	3405
917.715	3450
917.826	3462
917.938	3370
918.049	3294
918.161	3458
918.272	3580
918.384	3606
918.495	3473
918.606	3325
918.717	3222
918.828	3386
918.939	3401
919.05	3306
919.161	3355
919.272	3207
919.383	3253
919.494	3523
919.604	3679
919.715	3454
919.826	3428
919.936	3466
920.047	3584
920.157	3530
920.267	3774
920.378	3580
920.488	3561
920.598	3793
920.708	3945
920.818	3827
920.928	3876
921.038	4074
921.148	4029
921.258	3686
921.368	3622
921.477	3564
921.587	3534
921.697	3481
921.806	3648
921.916	3466
922.025	3382
922.134	3355
922.244	3344
922.353	3447
922.462	3241
922.571	3226
922.68	3093
922.789	3108
922.898	3165
923.007	3085
923.116	3207
923.224	3184
923.333	3203
923.442	3085
923.55	3085
923.659	3116
923.767	3233
923.876	3097
923.984	3256
924.092	3116
924.201	3237
924.309	3211
924.417	3264
924.525	3203
924.633	3218
924.741	4017
924.849	3032
924.956	3279
925.064	3093
925.172	3036
925.279	3062
925.387	3176
925.494	3203
925.602	3351
925.709	3367
925.816	3161
925.924	3272
926.031	3359
926.138	3306
926.245	3321
926.352	3275
926.459	3363
926.566	3481
926.673	3313
926.779	3264
926.886	3241
926.993	3161
927.099	3138
927.206	3150
927.312	3112
927.419	3222
927.525	3214
927.631	3256
927.737	3123
927.843	3123
927.95	2994
928.056	3127
928.162	3165
928.267	3275
928.373	3857
928.479	3321
928.585	3093
928.69	3214
928.796	3275
928.901	3146
929.007	3043
929.112	3188
929.218	3173
929.323	3119
929.428	3165
929.533	3321
929.638	3108
929.743	3176
929.848	3298
929.953	3157
930.058	3131
930.163	2982
930.267	3055
930.372	3218
930.477	3070
930.581	3336
930.685	3176
930.79	3051
930.894	3135
930.998	3097
931.103	3264
931.207	2979
931.311	2971
931.415	2952
931.519	2788
931.623	2800
