Data from test_V78500241_1087.txt Node
Date: Fri Mar 25 16:22:43 CST 2022
User: usil
Spectrometer: V785-0024
Trigger mode: 0
Integration Time (sec): 4.000000E-1
Scans to average: 1
Nonlinearity correction enabled: false
Boxcar width: 0
Storing dark spectrum: false
XAxis mode: Wavelengths
Number of Pixels in Spectrum: 1024
>>>>>Begin Spectral Data<<<<<
801.071	2925
801.214	2990
801.356	2864
801.499	2948
801.641	2902
801.783	2971
801.926	3074
802.068	2975
802.211	3013
802.353	3066
802.496	2975
802.638	2986
802.78	3077
802.923	3127
803.065	3036
803.208	2868
803.35	2971
803.492	2948
803.635	2975
803.777	2762
803.919	2853
804.061	3211
804.204	2960
804.346	2918
804.488	2842
804.63	3017
804.773	2883
804.915	2952
805.057	3104
805.199	2952
805.341	2963
805.483	3070
805.626	3024
805.768	2937
805.91	3100
806.052	3127
806.194	3043
806.336	3260
806.478	3020
806.62	2933
806.762	2982
806.904	3081
807.046	3161
807.188	2982
807.33	2937
807.472	3009
807.614	2937
807.756	3013
807.898	2914
808.04	2910
808.182	2979
808.324	2956
808.465	2887
808.607	2880
808.749	2823
808.891	2853
809.033	2982
809.174	2982
809.316	2899
809.458	2880
809.6	2758
809.741	2830
809.883	2762
810.025	2845
810.166	2853
810.308	2849
810.45	2864
810.591	2811
810.733	2766
810.875	2857
811.016	2769
811.158	2773
811.299	2830
811.441	2914
811.582	2933
811.724	2823
811.865	2815
812.007	2910
812.148	2872
812.29	2853
812.431	2895
812.573	2941
812.714	2994
812.855	3085
812.997	3051
813.138	3142
813.279	2994
813.421	2986
813.562	2990
813.703	2891
813.845	2895
813.986	2796
814.127	2712
814.268	2804
814.41	2826
814.551	2807
814.692	2891
814.833	2849
814.974	2933
815.115	2941
815.256	2804
815.397	2815
815.539	2857
815.68	2823
815.821	2800
815.962	2941
816.103	2925
816.244	2887
816.385	2845
816.526	3028
816.666	2929
816.807	2766
816.948	2880
817.089	2891
817.23	2861
817.371	2807
817.512	2796
817.653	2849
817.793	2849
817.934	2868
818.075	2960
818.216	2994
818.356	3066
818.497	2891
818.638	2819
818.778	2838
818.919	2785
819.06	2785
819.2	2891
819.341	2800
819.481	2823
819.622	2922
819.762	3131
819.903	3047
820.043	2914
820.184	2899
820.324	2910
820.465	3017
820.605	3005
820.746	3043
820.886	2910
821.026	3104
821.167	3161
821.307	3249
821.447	3298
821.588	3268
821.728	3184
821.868	3199
822.008	3081
822.149	3211
822.289	3218
822.429	3119
822.569	3093
822.709	3169
822.849	3047
822.99	3066
823.13	3165
823.27	3195
823.41	3142
823.55	3135
823.69	3127
823.83	3146
823.97	3119
824.11	3020
824.25	3032
824.389	3043
824.529	3112
824.669	3024
824.809	3226
824.949	3226
825.089	3230
825.228	3184
825.368	3024
825.508	2960
825.648	2941
825.787	3009
825.927	3013
826.067	2967
826.206	2963
826.346	3043
826.485	3104
826.625	3066
826.765	3287
826.904	3214
827.044	2979
827.183	2933
827.323	2849
827.462	2982
827.601	2891
827.741	2952
827.88	2960
828.02	2861
828.159	2944
828.298	3051
828.437	3070
828.577	3074
828.716	3256
828.855	3116
828.994	2910
829.134	2880
829.273	2914
829.412	2849
829.551	2857
829.69	2883
829.829	2990
829.968	3150
830.107	2979
830.246	3055
830.385	2956
830.524	2880
830.663	2815
830.802	2743
830.941	2659
831.08	2648
831.219	2769
831.357	2781
831.496	2952
831.635	2758
831.774	2651
831.913	2648
832.051	2583
832.19	2568
832.329	2724
832.467	2545
832.606	2488
832.744	2579
832.883	2602
833.022	2590
833.16	2651
833.299	2693
833.437	2705
833.576	2678
833.714	2739
833.852	2762
833.991	2754
834.129	2826
834.267	2845
834.406	2777
834.544	2838
834.682	2861
834.821	2864
834.959	3089
835.097	2902
835.235	3028
835.373	2982
835.511	3001
835.65	2956
835.788	2967
835.926	2830
836.064	2804
836.202	2849
836.34	3081
836.478	3161
836.615	3074
836.753	3116
836.891	3157
837.029	3176
837.167	3123
837.305	3058
837.443	3043
837.58	2963
837.718	3138
837.856	3070
837.993	3005
838.131	3138
838.269	3104
838.406	3116
838.544	3100
838.681	2944
838.819	2891
838.956	2788
839.094	2838
839.231	2922
839.369	3020
839.506	3336
839.643	3214
839.781	3013
839.918	2963
840.055	3024
840.193	3085
840.33	3104
840.467	3066
840.604	3161
840.742	3378
840.879	3032
841.016	3032
841.153	3097
841.29	3351
841.427	3294
841.564	3264
841.701	3332
841.838	3218
841.975	3161
842.112	3214
842.249	3077
842.385	3062
842.522	3272
842.659	3104
842.796	3070
842.933	3089
843.069	3062
843.206	3039
843.343	3195
843.479	3142
843.616	3127
843.752	2899
843.889	2849
844.025	3093
844.162	2876
844.298	3047
844.435	2944
844.571	2880
844.708	3093
844.844	3184
844.98	3222
845.117	3211
845.253	3066
845.389	3036
845.525	3097
845.661	3085
845.798	2982
845.934	3150
846.07	3055
846.206	3230
846.342	3317
846.478	3218
846.614	3100
846.75	3051
846.886	3024
847.022	3237
847.158	3180
847.294	3214
847.429	3237
847.565	3218
847.701	3462
847.837	3028
847.972	2982
848.108	3123
848.244	3127
848.379	3009
848.515	2937
848.65	2956
848.786	2956
848.921	2982
849.057	3104
849.192	3112
849.328	3043
849.463	3100
849.598	3039
849.734	3024
849.869	2925
850.004	2906
850.14	2960
850.275	2914
850.41	2834
850.545	2861
850.68	2944
850.815	2956
850.95	2941
851.085	3135
851.22	3108
851.355	3039
851.49	2982
851.625	2963
851.76	3051
851.895	2948
852.03	2922
852.165	3005
852.299	3116
852.434	3233
852.569	3127
852.703	3176
852.838	3233
852.973	3340
853.107	3283
853.242	3123
853.376	3100
853.511	2929
853.645	3032
853.78	3207
853.914	3116
854.048	3089
854.183	3047
854.317	3123
854.451	3275
854.585	3108
854.72	3070
854.854	3222
854.988	3077
855.122	3104
855.256	2975
855.39	3100
855.524	3260
855.658	3199
855.792	3150
855.926	3138
856.06	3218
856.194	3253
856.327	3142
856.461	3104
856.595	3093
856.729	3089
856.862	3192
856.996	3123
857.13	3195
857.263	3245
857.397	3298
857.53	3150
857.664	3176
857.797	3272
857.931	3241
858.064	3157
858.197	3226
858.331	3112
858.464	3093
858.597	3009
858.731	3131
858.864	3138
858.997	3077
859.13	3176
859.263	3142
859.396	3176
859.529	3104
859.662	3093
859.795	3062
859.928	3112
860.061	3283
860.194	3302
860.327	3146
860.46	3104
860.592	3203
860.725	3230
860.858	3222
860.99	3100
861.123	3013
861.256	3085
861.388	3127
861.521	3785
861.653	3036
861.786	2960
861.918	2979
862.05	3070
862.183	3089
862.315	3142
862.447	3176
862.58	3077
862.712	2933
862.844	2864
862.976	2994
863.108	2982
863.24	3416
863.372	2899
863.504	2975
863.636	2937
863.768	3013
863.9	2960
864.032	2899
864.164	2944
864.296	3009
864.428	3138
864.559	3081
864.691	3062
864.823	3039
864.954	3051
865.086	3055
865.217	2998
865.349	2933
865.48	2982
865.612	2998
865.743	3138
865.875	2944
866.006	2933
866.137	2998
866.269	2937
866.4	2941
866.531	2914
866.662	2910
866.793	2880
866.924	2929
867.055	2986
867.186	2944
867.317	2853
867.448	2857
867.579	2838
867.71	2861
867.841	2838
867.972	2918
868.103	2895
868.233	2906
868.364	2883
868.495	2922
868.625	3074
868.756	3165
868.886	2956
869.017	3005
869.147	3146
869.278	3138
869.408	3036
869.539	2975
869.669	3085
869.799	3028
869.929	3135
870.06	3123
870.19	3287
870.32	3272
870.45	3287
870.58	3367
870.71	3454
870.84	3454
870.97	3298
871.1	3264
871.23	3458
871.36	3439
871.489	3332
871.619	3416
871.749	3416
871.879	3450
872.008	3435
872.138	3348
872.267	3279
872.397	3127
872.526	3100
872.656	3017
872.785	3077
872.915	3237
873.044	3298
873.173	3226
873.303	3245
873.432	3275
873.561	3233
873.69	3188
873.819	3119
873.948	3188
874.077	3089
874.206	3039
874.335	3116
874.464	3184
874.593	3313
874.722	3203
874.851	3412
874.979	3340
875.108	3325
875.237	3188
875.365	3138
875.494	3146
875.623	3233
875.751	3093
875.88	3161
876.008	3207
876.136	3226
876.265	3378
876.393	3496
876.521	3447
876.65	3378
876.778	3264
876.906	3253
877.034	3222
877.162	3253
877.29	3188
877.418	3214
877.546	3233
877.674	3203
877.802	3218
877.93	3245
878.058	3123
878.185	3104
878.313	3245
878.441	3203
878.568	3066
878.696	3169
878.824	3264
878.951	3298
879.079	3450
879.206	3591
879.333	3458
879.461	3298
879.588	3348
879.715	3466
879.842	3545
879.97	3378
880.097	3154
880.224	3161
880.351	3165
880.478	3207
880.605	3180
880.732	3173
880.859	3504
880.986	3317
881.112	3317
881.239	3230
881.366	3093
881.493	3039
881.619	3024
881.746	3036
881.872	3066
881.999	3085
882.125	3154
882.252	3233
882.378	3256
882.505	3367
882.631	3272
882.757	3173
882.883	3218
883.01	3211
883.136	3108
883.262	3097
883.388	3131
883.514	3306
883.64	3359
883.766	3302
883.892	3214
884.018	3218
884.143	3386
884.269	3553
884.395	3222
884.52	3161
884.646	3176
884.772	3116
884.897	3097
885.023	3188
885.148	3321
885.274	3412
885.399	3359
885.524	3268
885.65	3226
885.775	3298
885.9	3279
886.025	3439
886.15	3386
886.275	3302
886.4	3249
886.525	3291
886.65	3256
886.775	3249
886.9	3462
887.025	3584
887.149	3382
887.274	3260
887.399	3226
887.523	3192
887.648	3150
887.773	3199
887.897	3367
888.021	3367
888.146	3298
888.27	3412
888.395	3485
888.519	3416
888.643	3412
888.767	3469
888.891	3306
889.015	3233
889.139	3294
889.263	3214
889.387	3374
889.511	3526
889.635	3462
889.759	3275
889.883	3264
890.006	3370
890.13	3492
890.254	3264
890.377	3332
890.501	3192
890.624	3176
890.748	3268
890.871	3173
890.995	3085
891.118	3047
891.241	3173
891.364	3253
891.488	3275
891.611	3154
891.734	3241
891.857	3245
891.98	3199
892.103	3310
892.226	3283
892.349	3207
892.471	3093
892.594	3226
892.717	3214
892.839	3298
892.962	3279
893.085	3351
893.207	3313
893.33	3165
893.452	3173
893.575	3359
893.697	3256
893.819	3462
893.941	3500
894.064	3435
894.186	3260
894.308	3275
894.43	3428
894.552	3545
894.674	3443
894.796	3230
894.918	3310
895.04	3253
895.161	3412
895.283	3389
895.405	3272
895.526	3363
895.648	3367
895.769	3389
895.891	3443
896.012	3443
896.134	3447
896.255	3412
896.376	3363
896.498	3348
896.619	3401
896.74	3351
896.861	3416
896.982	3686
897.103	3819
897.224	3622
897.345	3504
897.466	3450
897.587	3507
897.708	3618
897.828	3534
897.949	3477
898.07	3386
898.19	3370
898.311	3591
898.431	3431
898.552	3511
898.672	3599
898.792	3542
898.913	3500
899.033	3393
899.153	3283
899.273	3237
899.393	3298
899.513	3332
899.633	3313
899.753	3359
899.873	3344
899.993	3370
900.113	3298
900.232	3363
900.352	3348
900.472	3325
900.591	3184
900.711	3294
900.83	3249
900.95	3439
901.069	3515
901.189	3329
901.308	3165
901.427	3097
901.546	3195
901.665	3287
901.784	3348
901.904	3192
902.023	3135
902.141	3009
902.26	2994
902.379	3093
902.498	3051
902.617	3047
902.735	3203
902.854	3211
902.973	3154
903.091	3024
903.21	3097
903.328	3135
903.446	3108
903.565	3119
903.683	3226
903.801	3135
903.919	3264
904.038	3275
904.156	3146
904.274	3272
904.392	3237
904.51	3291
904.627	3329
904.745	3458
904.863	3500
904.981	3241
905.098	3169
905.216	3184
905.334	3253
905.451	3313
905.569	3294
905.686	3382
905.803	3428
905.921	3291
906.038	3405
906.155	3336
906.272	3306
906.389	3344
906.506	3233
906.623	3275
906.74	3249
906.857	3165
906.974	3237
907.091	3454
907.208	3523
907.324	3473
907.441	3351
907.557	3237
907.674	3211
907.79	3195
907.907	3237
908.023	3374
908.139	3389
908.256	3310
908.372	3359
908.488	3332
908.604	3253
908.72	3222
908.836	3260
908.952	3249
909.068	3336
909.184	3450
909.3	3329
909.415	3454
909.531	3466
909.647	3283
909.762	3306
909.878	3233
909.993	3332
910.108	3355
910.224	3317
910.339	3393
910.454	3325
910.57	3298
910.685	3256
910.8	3564
910.915	3511
911.03	3393
911.145	3287
911.259	3272
911.374	3310
911.489	3253
911.604	3203
911.718	3116
911.833	3127
911.947	3051
912.062	2998
912.176	3161
912.291	3195
912.405	3211
912.519	3405
912.633	3435
912.748	3336
912.862	3245
912.976	3154
913.09	3047
913.204	3127
913.318	3146
913.431	3310
913.545	3359
913.659	3370
913.772	3313
913.886	3226
914	3188
914.113	3355
914.226	3405
914.34	3317
914.453	3245
914.566	3397
914.68	3264
914.793	3298
914.906	3161
915.019	3119
915.132	3085
915.245	3165
915.358	3214
915.47	3226
915.583	3268
915.696	3306
915.809	3412
915.921	3420
916.034	3245
916.146	3249
916.259	3249
916.371	3401
916.483	3374
916.595	3306
916.708	3336
916.82	3344
916.932	3351
917.044	3389
917.156	3386
917.268	3272
917.38	3313
917.491	3336
917.603	3409
917.715	3481
917.826	3492
917.938	3393
918.049	3302
918.161	3496
918.272	3599
918.384	3610
918.495	3523
918.606	3340
918.717	3313
918.828	3447
918.939	3447
919.05	3302
919.161	3374
919.272	3195
919.383	3317
919.494	3519
919.604	3740
919.715	3534
919.826	3439
919.936	3504
920.047	3625
920.157	3584
920.267	3781
920.378	3656
920.488	3561
920.598	3804
920.708	3983
920.818	3869
920.928	3876
921.038	4067
921.148	4051
921.258	3759
921.368	3679
921.477	3641
921.587	3587
921.697	3507
921.806	3641
921.916	3564
922.025	3412
922.134	3397
922.244	3355
922.353	3473
922.462	3329
922.571	3260
922.68	3123
922.789	3108
922.898	3165
923.007	3161
923.116	3222
923.224	3169
923.333	3188
923.442	3161
923.55	3131
923.659	3169
923.767	3241
923.876	3154
923.984	3294
924.092	3207
924.201	3264
924.309	3283
924.417	3268
924.525	3218
924.633	3245
924.741	4017
924.849	3081
924.956	3310
925.064	3146
925.172	3070
925.279	3127
925.387	3230
925.494	3256
925.602	3370
925.709	3393
925.816	3199
925.924	3325
926.031	3367
926.138	3378
926.245	3393
926.352	3287
926.459	3439
926.566	3488
926.673	3336
926.779	3260
926.886	3272
926.993	3188
927.099	3165
927.206	3108
927.312	3161
927.419	3291
927.525	3226
927.631	3310
927.737	3154
927.843	3142
927.95	3070
928.056	3150
928.162	3214
928.267	3253
928.373	3888
928.479	3351
928.585	3104
928.69	3253
928.796	3302
928.901	3180
929.007	3100
929.112	3245
929.218	3226
929.323	3180
929.428	3154
929.533	3351
929.638	3131
929.743	3214
929.848	3302
929.953	3245
930.058	3214
930.163	3062
930.267	3032
930.372	3214
930.477	3093
930.581	3355
930.685	3169
930.79	3097
930.894	3157
930.998	3135
931.103	3306
931.207	2971
931.311	2963
931.415	2960
931.519	2826
931.623	2834
