Data from test_V78500241_442.txt Node
Date: Fri Mar 25 16:18:15 CST 2022
User: usil
Spectrometer: V785-0024
Trigger mode: 0
Integration Time (sec): 4.000000E-1
Scans to average: 1
Nonlinearity correction enabled: false
Boxcar width: 0
Storing dark spectrum: false
XAxis mode: Wavelengths
Number of Pixels in Spectrum: 1024
>>>>>Begin Spectral Data<<<<<
801.071	2956
801.214	2967
801.356	2910
801.499	2960
801.641	2910
801.783	2967
801.926	3081
802.068	3051
802.211	3043
802.353	3104
802.496	3036
802.638	3097
802.78	3119
802.923	3116
803.065	3055
803.208	2944
803.35	2956
803.492	2956
803.635	2960
803.777	2807
803.919	2902
804.061	3226
804.204	2975
804.346	2918
804.488	2880
804.63	3020
804.773	2918
804.915	2887
805.057	3135
805.199	2960
805.341	2994
805.483	3058
805.626	3024
805.768	2971
805.91	3116
806.052	3127
806.194	3097
806.336	3237
806.478	3036
806.62	2925
806.762	3036
806.904	3081
807.046	3237
807.188	3017
807.33	2918
807.472	3017
807.614	2948
807.756	3028
807.898	2941
808.04	2922
808.182	3032
808.324	2994
808.465	2925
808.607	2891
808.749	2842
808.891	2861
809.033	2967
809.174	2979
809.316	2899
809.458	2906
809.6	2804
809.741	2807
809.883	2807
810.025	2868
810.166	2929
810.308	2868
810.45	2914
810.591	2800
810.733	2811
810.875	2857
811.016	2819
811.158	2773
811.299	2830
811.441	2929
811.582	2941
811.724	2899
811.865	2868
812.007	2948
812.148	2895
812.29	2876
812.431	2899
812.573	2979
812.714	2975
812.855	3062
812.997	3051
813.138	3165
813.279	3036
813.421	2982
813.562	2994
813.703	2918
813.845	2922
813.986	2781
814.127	2746
814.268	2819
814.41	2853
814.551	2845
814.692	2902
814.833	2842
814.974	2880
815.115	3001
815.256	2838
815.397	2826
815.539	2868
815.68	2807
815.821	2842
815.962	2952
816.103	2960
816.244	2910
816.385	2876
816.526	2971
816.666	2922
816.807	2781
816.948	2891
817.089	2925
817.23	2868
817.371	2823
817.512	2823
817.653	2876
817.793	2861
817.934	2925
818.075	2971
818.216	2979
818.356	3051
818.497	2887
818.638	2807
818.778	2823
818.919	2842
819.06	2804
819.2	2922
819.341	2845
819.481	2864
819.622	2948
819.762	3146
819.903	3058
820.043	2967
820.184	2918
820.324	2922
820.465	3062
820.605	3058
820.746	3028
820.886	2933
821.026	3116
821.167	3176
821.307	3268
821.447	3313
821.588	3237
821.728	3207
821.868	3211
822.008	3085
822.149	3184
822.289	3218
822.429	3119
822.569	3093
822.709	3188
822.849	3047
822.99	3047
823.13	3192
823.27	3222
823.41	3157
823.55	3131
823.69	3142
823.83	3214
823.97	3097
824.11	3013
824.25	3005
824.389	3093
824.529	3127
824.669	3093
824.809	3218
824.949	3249
825.089	3253
825.228	3169
825.368	3062
825.508	2994
825.648	3001
825.787	3036
825.927	3043
826.067	2998
826.206	2971
826.346	3077
826.485	3104
826.625	3108
826.765	3279
826.904	3199
827.044	3005
827.183	2918
827.323	2887
827.462	3009
827.601	2956
827.741	2990
827.88	2956
828.02	2861
828.159	2998
828.298	3047
828.437	3135
828.577	3066
828.716	3256
828.855	3135
828.994	2948
829.134	2918
829.273	2922
829.412	2902
829.551	2845
829.69	2914
829.829	2937
829.968	3142
830.107	3055
830.246	3020
830.385	2914
830.524	2887
830.663	2853
830.802	2754
830.941	2701
831.08	2651
831.219	2781
831.357	2777
831.496	2971
831.635	2727
831.774	2640
831.913	2701
832.051	2590
832.19	2587
832.329	2682
832.467	2522
832.606	2526
832.744	2613
832.883	2583
833.022	2587
833.16	2674
833.299	2693
833.437	2720
833.576	2712
833.714	2743
833.852	2754
833.991	2766
834.129	2880
834.267	2845
834.406	2834
834.544	2906
834.682	2857
834.821	2864
834.959	3108
835.097	2929
835.235	3062
835.373	3013
835.511	3009
835.65	2963
835.788	2994
835.926	2853
836.064	2830
836.202	2853
836.34	3104
836.478	3169
836.615	3039
836.753	3127
836.891	3233
837.029	3154
837.167	3108
837.305	3085
837.443	3055
837.58	2986
837.718	3131
837.856	3100
837.993	3043
838.131	3104
838.269	3116
838.406	3142
838.544	3077
838.681	2971
838.819	2887
838.956	2834
839.094	2861
839.231	2937
839.369	3097
839.506	3412
839.643	3203
839.781	2998
839.918	2960
840.055	3055
840.193	3058
840.33	3093
840.467	3104
840.604	3150
840.742	3397
840.879	3055
841.016	3062
841.153	3154
841.29	3317
841.427	3359
841.564	3279
841.701	3310
841.838	3253
841.975	3233
842.112	3199
842.249	3077
842.385	3043
842.522	3306
842.659	3097
842.796	3070
842.933	3119
843.069	3070
843.206	3062
843.343	3222
843.479	3093
843.616	3157
843.752	2914
843.889	2842
844.025	3097
844.162	2895
844.298	3093
844.435	2960
844.571	2880
844.708	3089
844.844	3218
844.98	3241
845.117	3195
845.253	3074
845.389	3036
845.525	3119
845.661	3123
845.798	3017
845.934	3161
846.07	3062
846.206	3253
846.342	3313
846.478	3230
846.614	3089
846.75	3055
846.886	3036
847.022	3253
847.158	3119
847.294	3203
847.429	3233
847.565	3192
847.701	3515
847.837	3066
847.972	3039
848.108	3195
848.244	3161
848.379	2975
848.515	2944
848.65	2944
848.786	2960
848.921	3017
849.057	3127
849.192	3161
849.328	3100
849.463	3150
849.598	3081
849.734	3051
849.869	2986
850.004	2925
850.14	2967
850.275	2910
850.41	2853
850.545	2868
850.68	2933
850.815	2990
850.95	2986
851.085	3211
851.22	3100
851.355	3039
851.49	2963
851.625	2990
851.76	3032
851.895	2971
852.03	2929
852.165	3024
852.299	3108
852.434	3188
852.569	3154
852.703	3173
852.838	3222
852.973	3367
853.107	3340
853.242	3173
853.376	3058
853.511	2979
853.645	3036
853.78	3245
853.914	3135
854.048	3131
854.183	3055
854.317	3154
854.451	3283
854.585	3116
854.72	3127
854.854	3199
854.988	3055
855.122	3100
855.256	2948
855.39	3127
855.524	3199
855.658	3157
855.792	3161
855.926	3165
856.06	3222
856.194	3272
856.327	3154
856.461	3051
856.595	3089
856.729	3108
856.862	3207
856.996	3150
857.13	3207
857.263	3233
857.397	3279
857.53	3112
857.664	3176
857.797	3241
857.931	3245
858.064	3192
858.197	3237
858.331	3089
858.464	3123
858.597	3005
858.731	3123
858.864	3146
858.997	3108
859.13	3154
859.263	3161
859.396	3173
859.529	3100
859.662	3085
859.795	3089
859.928	3119
860.061	3245
860.194	3275
860.327	3131
860.46	3104
860.592	3245
860.725	3253
860.858	3253
860.99	3138
861.123	3039
861.256	3043
861.388	3104
861.521	3979
861.653	3047
861.786	2971
861.918	3013
862.05	3058
862.183	3154
862.315	3142
862.447	3222
862.58	3085
862.712	2975
862.844	2895
862.976	3036
863.108	3001
863.24	3420
863.372	2880
863.504	2975
863.636	2952
863.768	3058
863.9	3001
864.032	2952
864.164	2948
864.296	3024
864.428	3066
864.559	3089
864.691	3089
864.823	3066
864.954	3039
865.086	3028
865.217	2990
865.349	2948
865.48	2963
865.612	3017
865.743	3169
865.875	2990
866.006	2910
866.137	2967
866.269	2952
866.4	2937
866.531	2925
866.662	2895
866.793	2868
866.924	2895
867.055	2956
867.186	2910
867.317	2887
867.448	2842
867.579	2853
867.71	2811
867.841	2811
867.972	2933
868.103	2895
868.233	2864
868.364	2910
868.495	2914
868.625	3093
868.756	3142
868.886	2986
869.017	3036
869.147	3150
869.278	3161
869.408	3051
869.539	3070
869.669	3108
869.799	3039
869.929	3146
870.06	3093
870.19	3336
870.32	3249
870.45	3279
870.58	3340
870.71	3409
870.84	3447
870.97	3298
871.1	3199
871.23	3500
871.36	3485
871.489	3370
871.619	3405
871.749	3370
871.879	3416
872.008	3462
872.138	3393
872.267	3264
872.397	3184
872.526	3085
872.656	3009
872.785	3097
872.915	3245
873.044	3321
873.173	3264
873.303	3222
873.432	3253
873.561	3230
873.69	3154
873.819	3161
873.948	3211
874.077	3135
874.206	3043
874.335	3081
874.464	3195
874.593	3378
874.722	3222
874.851	3336
874.979	3332
875.108	3325
875.237	3233
875.365	3165
875.494	3142
875.623	3237
875.751	3066
875.88	3119
876.008	3188
876.136	3218
876.265	3332
876.393	3507
876.521	3401
876.65	3397
876.778	3302
876.906	3241
877.034	3184
877.162	3256
877.29	3157
877.418	3237
877.546	3237
877.674	3241
877.802	3230
877.93	3233
878.058	3116
878.185	3055
878.313	3192
878.441	3192
878.568	3055
878.696	3173
878.824	3226
878.951	3275
879.079	3439
879.206	3576
879.333	3466
879.461	3329
879.588	3329
879.715	3469
879.842	3572
879.97	3378
880.097	3138
880.224	3142
880.351	3184
880.478	3203
880.605	3165
880.732	3195
880.859	3492
880.986	3325
881.112	3348
881.239	3203
881.366	3116
881.493	3028
881.619	3005
881.746	3055
881.872	3119
881.999	3097
882.125	3131
882.252	3237
882.378	3287
882.505	3462
882.631	3291
882.757	3138
882.883	3264
883.01	3211
883.136	3180
883.262	3081
883.388	3116
883.514	3344
883.64	3367
883.766	3287
883.892	3173
884.018	3214
884.143	3428
884.269	3549
884.395	3195
884.52	3195
884.646	3150
884.772	3081
884.897	3112
885.023	3176
885.148	3336
885.274	3401
885.399	3336
885.524	3237
885.65	3253
885.775	3310
885.9	3256
886.025	3386
886.15	3378
886.275	3302
886.4	3256
886.525	3340
886.65	3245
886.775	3253
886.9	3439
887.025	3610
887.149	3397
887.274	3241
887.399	3150
887.523	3192
887.648	3157
887.773	3176
887.897	3367
888.021	3439
888.146	3279
888.27	3424
888.395	3504
888.519	3431
888.643	3435
888.767	3431
888.891	3298
889.015	3256
889.139	3317
889.263	3237
889.387	3382
889.511	3500
889.635	3431
889.759	3313
889.883	3310
890.006	3386
890.13	3488
890.254	3294
890.377	3378
890.501	3207
890.624	3180
890.748	3310
890.871	3203
890.995	3119
891.118	3051
891.241	3180
891.364	3180
891.488	3310
891.611	3211
891.734	3192
891.857	3291
891.98	3237
892.103	3367
892.226	3260
892.349	3211
892.471	3093
892.594	3253
892.717	3313
892.839	3279
892.962	3340
893.085	3332
893.207	3298
893.33	3154
893.452	3173
893.575	3351
893.697	3272
893.819	3466
893.941	3515
894.064	3439
894.186	3256
894.308	3275
894.43	3401
894.552	3523
894.674	3458
894.796	3279
894.918	3310
895.04	3310
895.161	3401
895.283	3363
895.405	3321
895.526	3363
895.648	3393
895.769	3431
895.891	3458
896.012	3416
896.134	3492
896.255	3428
896.376	3374
896.498	3355
896.619	3424
896.74	3367
896.861	3378
896.982	3671
897.103	3808
897.224	3603
897.345	3530
897.466	3393
897.587	3504
897.708	3641
897.828	3515
897.949	3393
898.07	3340
898.19	3405
898.311	3610
898.431	3450
898.552	3519
898.672	3625
898.792	3549
898.913	3507
899.033	3420
899.153	3283
899.273	3249
899.393	3298
899.513	3317
899.633	3302
899.753	3359
899.873	3310
899.993	3363
900.113	3336
900.232	3389
900.352	3359
900.472	3310
900.591	3211
900.711	3306
900.83	3218
900.95	3389
901.069	3507
901.189	3351
901.308	3173
901.427	3119
901.546	3192
901.665	3313
901.784	3313
901.904	3233
902.023	3104
902.141	2998
902.26	2982
902.379	3070
902.498	3062
902.617	3070
902.735	3230
902.854	3233
902.973	3188
903.091	3058
903.21	3036
903.328	3123
903.446	3131
903.565	3074
903.683	3192
903.801	3077
903.919	3283
904.038	3230
904.156	3169
904.274	3313
904.392	3298
904.51	3283
904.627	3348
904.745	3454
904.863	3504
904.981	3272
905.098	3154
905.216	3222
905.334	3302
905.451	3283
905.569	3287
905.686	3420
905.803	3435
905.921	3317
906.038	3386
906.155	3378
906.272	3268
906.389	3317
906.506	3207
906.623	3279
906.74	3294
906.857	3192
906.974	3260
907.091	3454
907.208	3534
907.324	3481
907.441	3351
907.557	3218
907.674	3256
907.79	3226
907.907	3264
908.023	3374
908.139	3329
908.256	3313
908.372	3340
908.488	3351
908.604	3249
908.72	3218
908.836	3291
908.952	3294
909.068	3340
909.184	3458
909.3	3428
909.415	3515
909.531	3492
909.647	3283
909.762	3249
909.878	3256
909.993	3363
910.108	3317
910.224	3370
910.339	3397
910.454	3325
910.57	3313
910.685	3260
910.8	3542
910.915	3545
911.03	3412
911.145	3253
911.259	3245
911.374	3321
911.489	3260
911.604	3218
911.718	3150
911.833	3184
911.947	3032
912.062	2986
912.176	3142
912.291	3173
912.405	3256
912.519	3447
912.633	3435
912.748	3363
912.862	3287
912.976	3138
913.09	3043
913.204	3142
913.318	3184
913.431	3340
913.545	3340
913.659	3382
913.772	3359
913.886	3218
914	3169
914.113	3359
914.226	3397
914.34	3363
914.453	3195
914.566	3393
914.68	3272
914.793	3283
914.906	3169
915.019	3116
915.132	3085
915.245	3176
915.358	3192
915.47	3241
915.583	3230
915.696	3264
915.809	3389
915.921	3351
916.034	3264
916.146	3272
916.259	3211
916.371	3370
916.483	3336
916.595	3283
916.708	3355
916.82	3332
916.932	3336
917.044	3378
917.156	3351
917.268	3222
917.38	3321
917.491	3264
917.603	3340
917.715	3439
917.826	3488
917.938	3367
918.049	3294
918.161	3450
918.272	3580
918.384	3545
918.495	3492
918.606	3325
918.717	3279
918.828	3393
918.939	3424
919.05	3332
919.161	3306
919.272	3180
919.383	3264
919.494	3526
919.604	3671
919.715	3473
919.826	3412
919.936	3458
920.047	3580
920.157	3515
920.267	3789
920.378	3618
920.488	3549
920.598	3785
920.708	3945
920.818	3808
920.928	3823
921.038	4032
921.148	4021
921.258	3675
921.368	3603
921.477	3568
921.587	3564
921.697	3454
921.806	3656
921.916	3530
922.025	3340
922.134	3382
922.244	3287
922.353	3439
922.462	3275
922.571	3249
922.68	3131
922.789	3077
922.898	3123
923.007	3123
923.116	3192
923.224	3146
923.333	3154
923.442	3123
923.55	3081
923.659	3119
923.767	3169
923.876	3127
923.984	3237
924.092	3093
924.201	3195
924.309	3222
924.417	3245
924.525	3135
924.633	3245
924.741	4124
924.849	3032
924.956	3253
925.064	3077
925.172	3017
925.279	3127
925.387	3207
925.494	3233
925.602	3351
925.709	3332
925.816	3199
925.924	3245
926.031	3393
926.138	3310
926.245	3355
926.352	3233
926.459	3435
926.566	3458
926.673	3313
926.779	3279
926.886	3226
926.993	3131
927.099	3157
927.206	3081
927.312	3100
927.419	3275
927.525	3188
927.631	3253
927.737	3135
927.843	3127
927.95	3005
928.056	3135
928.162	3188
928.267	3233
928.373	3770
928.479	3272
928.585	3070
928.69	3161
928.796	3249
928.901	3154
929.007	3024
929.112	3176
929.218	3188
929.323	3131
929.428	3165
929.533	3325
929.638	3104
929.743	3150
929.848	3241
929.953	3176
930.058	3165
930.163	3005
930.267	3043
930.372	3211
930.477	2986
930.581	3302
930.685	3184
930.79	3036
930.894	3150
930.998	3089
931.103	3222
931.207	2990
931.311	2922
931.415	2941
931.519	2773
931.623	2807
