Data from test_V78500241_453.txt Node
Date: Fri Mar 25 16:18:20 CST 2022
User: usil
Spectrometer: V785-0024
Trigger mode: 0
Integration Time (sec): 4.000000E-1
Scans to average: 1
Nonlinearity correction enabled: false
Boxcar width: 0
Storing dark spectrum: false
XAxis mode: Wavelengths
Number of Pixels in Spectrum: 1024
>>>>>Begin Spectral Data<<<<<
801.071	2929
801.214	2929
801.356	2876
801.499	2895
801.641	2868
801.783	2918
801.926	3070
802.068	2941
802.211	2948
802.353	3009
802.496	2963
802.638	3013
802.78	3009
802.923	3047
803.065	3009
803.208	2902
803.35	2948
803.492	2925
803.635	2914
803.777	2724
803.919	2880
804.061	3188
804.204	2937
804.346	2906
804.488	2845
804.63	2986
804.773	2895
804.915	2902
805.057	3062
805.199	2929
805.341	2941
805.483	3005
805.626	2971
805.768	2975
805.91	3077
806.052	3104
806.194	2986
806.336	3222
806.478	2975
806.62	2952
806.762	2944
806.904	3036
807.046	3157
807.188	2979
807.33	2876
807.472	2979
807.614	2887
807.756	2979
807.898	2925
808.04	2872
808.182	2975
808.324	2941
808.465	2872
808.607	2880
808.749	2781
808.891	2815
809.033	2986
809.174	2952
809.316	2864
809.458	2876
809.6	2769
809.741	2758
809.883	2773
810.025	2826
810.166	2857
810.308	2819
810.45	2838
810.591	2731
810.733	2800
810.875	2815
811.016	2777
811.158	2769
811.299	2819
811.441	2902
811.582	2853
811.724	2842
811.865	2830
812.007	2891
812.148	2876
812.29	2853
812.431	2906
812.573	2937
812.714	2948
812.855	3028
812.997	3009
813.138	3074
813.279	2982
813.421	2971
813.562	2979
813.703	2857
813.845	2872
813.986	2792
814.127	2701
814.268	2762
814.41	2842
814.551	2815
814.692	2861
814.833	2823
814.974	2876
815.115	2914
815.256	2864
815.397	2807
815.539	2853
815.68	2769
815.821	2773
815.962	2933
816.103	2906
816.244	2876
816.385	2842
816.526	2944
816.666	2906
816.807	2731
816.948	2891
817.089	2872
817.23	2842
817.371	2781
817.512	2800
817.653	2823
817.793	2838
817.934	2872
818.075	2956
818.216	2941
818.356	3013
818.497	2880
818.638	2785
818.778	2807
818.919	2788
819.06	2754
819.2	2845
819.341	2796
819.481	2823
819.622	2960
819.762	3077
819.903	3047
820.043	2910
820.184	2887
820.324	2891
820.465	3009
820.605	3028
820.746	2994
820.886	2887
821.026	3062
821.167	3157
821.307	3249
821.447	3291
821.588	3253
821.728	3161
821.868	3195
822.008	3058
822.149	3165
822.289	3214
822.429	3070
822.569	3097
822.709	3173
822.849	3005
822.99	3062
823.13	3169
823.27	3173
823.41	3066
823.55	3138
823.69	3150
823.83	3192
823.97	3085
824.11	3028
824.25	3028
824.389	3074
824.529	3142
824.669	3085
824.809	3165
824.949	3268
825.089	3188
825.228	3085
825.368	2990
825.508	2914
825.648	2971
825.787	3013
825.927	3020
826.067	2963
826.206	2952
826.346	3001
826.485	3058
826.625	3062
826.765	3241
826.904	3207
827.044	2971
827.183	2933
827.323	2853
827.462	2944
827.601	2902
827.741	2899
827.88	2944
828.02	2842
828.159	2952
828.298	3039
828.437	3119
828.577	3036
828.716	3226
828.855	3085
828.994	2906
829.134	2880
829.273	2895
829.412	2864
829.551	2849
829.69	2872
829.829	3001
829.968	3108
830.107	2998
830.246	3028
830.385	2883
830.524	2857
830.663	2785
830.802	2727
830.941	2667
831.08	2632
831.219	2716
831.357	2746
831.496	2914
831.635	2686
831.774	2659
831.913	2632
832.051	2507
832.19	2549
832.329	2697
832.467	2526
832.606	2488
832.744	2564
832.883	2575
833.022	2594
833.16	2648
833.299	2667
833.437	2667
833.576	2659
833.714	2705
833.852	2705
833.991	2746
834.129	2800
834.267	2777
834.406	2769
834.544	2883
834.682	2838
834.821	2849
834.959	3020
835.097	2918
835.235	3055
835.373	2990
835.511	3009
835.65	2994
835.788	2952
835.926	2834
836.064	2845
836.202	2823
836.34	3066
836.478	3161
836.615	3066
836.753	3123
836.891	3203
837.029	3142
837.167	3123
837.305	3017
837.443	3020
837.58	2937
837.718	3135
837.856	3043
837.993	2967
838.131	3058
838.269	3100
838.406	3051
838.544	3058
838.681	2906
838.819	2925
838.956	2834
839.094	2830
839.231	2902
839.369	2994
839.506	3367
839.643	3203
839.781	2956
839.918	2933
840.055	3005
840.193	3032
840.33	3036
840.467	3085
840.604	3157
840.742	3389
840.879	3058
841.016	3058
841.153	3142
841.29	3287
841.427	3272
841.564	3260
841.701	3329
841.838	3188
841.975	3135
842.112	3226
842.249	3032
842.385	3001
842.522	3180
842.659	3097
842.796	2982
842.933	3089
843.069	3036
843.206	3005
843.343	3180
843.479	3077
843.616	3135
843.752	2868
843.889	2838
844.025	3100
844.162	2834
844.298	3074
844.435	2971
844.571	2895
844.708	3077
844.844	3161
844.98	3214
845.117	3146
845.253	3039
845.389	3005
845.525	3112
845.661	3047
845.798	2979
845.934	3112
846.07	3020
846.206	3188
846.342	3317
846.478	3203
846.614	3097
846.75	3032
846.886	3005
847.022	3184
847.158	3142
847.294	3176
847.429	3214
847.565	3211
847.701	3447
847.837	3039
847.972	2975
848.108	3161
848.244	3150
848.379	3009
848.515	2937
848.65	2948
848.786	2967
848.921	3001
849.057	3097
849.192	3127
849.328	3051
849.463	3108
849.598	3066
849.734	3058
849.869	2986
850.004	2929
850.14	3005
850.275	2944
850.41	2849
850.545	2868
850.68	3005
850.815	2952
850.95	2967
851.085	3218
851.22	3108
851.355	3036
851.49	2990
851.625	3028
851.76	3062
851.895	2971
852.03	2922
852.165	3081
852.299	3142
852.434	3226
852.569	3226
852.703	3195
852.838	3249
852.973	3340
853.107	3367
853.242	3214
853.376	3150
853.511	3058
853.645	3055
853.78	3283
853.914	3142
854.048	3146
854.183	3131
854.317	3218
854.451	3336
854.585	3188
854.72	3146
854.854	3253
854.988	3077
855.122	3112
855.256	2990
855.39	3138
855.524	3272
855.658	3184
855.792	3180
855.926	3214
856.06	3275
856.194	3287
856.327	3207
856.461	3157
856.595	3123
856.729	3169
856.862	3256
856.996	3173
857.13	3230
857.263	3256
857.397	3268
857.53	3127
857.664	3260
857.797	3313
857.931	3291
858.064	3222
858.197	3241
858.331	3207
858.464	3119
858.597	3039
858.731	3154
858.864	3173
858.997	3100
859.13	3176
859.263	3188
859.396	3230
859.529	3123
859.662	3116
859.795	3070
859.928	3146
860.061	3287
860.194	3306
860.327	3184
860.46	3093
860.592	3214
860.725	3268
860.858	3256
860.99	3131
861.123	3116
861.256	3100
861.388	3184
861.521	3956
861.653	3051
861.786	3001
861.918	3032
862.05	3077
862.183	3093
862.315	3180
862.447	3260
862.58	3135
862.712	2956
862.844	2910
862.976	3024
863.108	3039
863.24	3386
863.372	2891
863.504	2960
863.636	2990
863.768	3055
863.9	3005
864.032	2914
864.164	2963
864.296	3055
864.428	3119
864.559	3131
864.691	3089
864.823	3093
864.954	3013
865.086	3093
865.217	3009
865.349	3013
865.48	3009
865.612	3093
865.743	3180
865.875	3024
866.006	2956
866.137	3009
866.269	2918
866.4	2918
866.531	2937
866.662	2963
866.793	2925
866.924	2967
867.055	3024
867.186	2963
867.317	2918
867.448	2868
867.579	2838
867.71	2857
867.841	2853
867.972	2944
868.103	2952
868.233	2910
868.364	2895
868.495	2956
868.625	3085
868.756	3169
868.886	3001
869.017	3017
869.147	3211
869.278	3211
869.408	3051
869.539	3070
869.669	3138
869.799	3077
869.929	3199
870.06	3203
870.19	3359
870.32	3317
870.45	3336
870.58	3416
870.71	3477
870.84	3492
870.97	3348
871.1	3264
871.23	3519
871.36	3466
871.489	3374
871.619	3405
871.749	3447
871.879	3504
872.008	3462
872.138	3431
872.267	3336
872.397	3165
872.526	3116
872.656	3009
872.785	3131
872.915	3310
873.044	3325
873.173	3245
873.303	3283
873.432	3256
873.561	3287
873.69	3199
873.819	3161
873.948	3279
874.077	3192
874.206	3074
874.335	3131
874.464	3264
874.593	3393
874.722	3249
874.851	3405
874.979	3382
875.108	3340
875.237	3264
875.365	3192
875.494	3203
875.623	3275
875.751	3135
875.88	3150
876.008	3241
876.136	3245
876.265	3424
876.393	3553
876.521	3439
876.65	3435
876.778	3374
876.906	3291
877.034	3207
877.162	3237
877.29	3188
877.418	3264
877.546	3279
877.674	3287
877.802	3272
877.93	3253
878.058	3142
878.185	3161
878.313	3253
878.441	3184
878.568	3081
878.696	3176
878.824	3268
878.951	3302
879.079	3435
879.206	3625
879.333	3466
879.461	3389
879.588	3367
879.715	3519
879.842	3667
879.97	3412
880.097	3188
880.224	3150
880.351	3211
880.478	3264
880.605	3211
880.732	3203
880.859	3523
880.986	3329
881.112	3348
881.239	3184
881.366	3135
881.493	3070
881.619	3077
881.746	3077
881.872	3123
881.999	3135
882.125	3135
882.252	3287
882.378	3298
882.505	3443
882.631	3321
882.757	3192
882.883	3253
883.01	3260
883.136	3146
883.262	3097
883.388	3146
883.514	3317
883.64	3416
883.766	3321
883.892	3211
884.018	3272
884.143	3431
884.269	3534
884.395	3203
884.52	3226
884.646	3180
884.772	3116
884.897	3100
885.023	3226
885.148	3329
885.274	3424
885.399	3412
885.524	3332
885.65	3287
885.775	3306
885.9	3302
886.025	3435
886.15	3386
886.275	3310
886.4	3226
886.525	3336
886.65	3325
886.775	3306
886.9	3557
887.025	3656
887.149	3420
887.274	3279
887.399	3195
887.523	3226
887.648	3214
887.773	3218
887.897	3450
888.021	3412
888.146	3325
888.27	3477
888.395	3542
888.519	3462
888.643	3439
888.767	3511
888.891	3329
889.015	3268
889.139	3317
889.263	3253
889.387	3420
889.511	3549
889.635	3462
889.759	3325
889.883	3325
890.006	3405
890.13	3504
890.254	3329
890.377	3378
890.501	3211
890.624	3245
890.748	3344
890.871	3184
890.995	3112
891.118	3077
891.241	3214
891.364	3249
891.488	3332
891.611	3150
891.734	3222
891.857	3317
891.98	3302
892.103	3348
892.226	3313
892.349	3211
892.471	3138
892.594	3256
892.717	3302
892.839	3283
892.962	3317
893.085	3336
893.207	3302
893.33	3203
893.452	3249
893.575	3332
893.697	3260
893.819	3500
893.941	3511
894.064	3473
894.186	3279
894.308	3294
894.43	3466
894.552	3515
894.674	3481
894.796	3287
894.918	3367
895.04	3336
895.161	3428
895.283	3454
895.405	3310
895.526	3401
895.648	3477
895.769	3443
895.891	3473
896.012	3504
896.134	3511
896.255	3393
896.376	3382
896.498	3386
896.619	3454
896.74	3378
896.861	3370
896.982	3675
897.103	3850
897.224	3614
897.345	3572
897.466	3424
897.587	3492
897.708	3625
897.828	3553
897.949	3443
898.07	3351
898.19	3409
898.311	3595
898.431	3469
898.552	3469
898.672	3622
898.792	3637
898.913	3542
899.033	3450
899.153	3298
899.273	3245
899.393	3298
899.513	3291
899.633	3344
899.753	3348
899.873	3370
899.993	3412
900.113	3363
900.232	3386
900.352	3363
900.472	3275
900.591	3214
900.711	3336
900.83	3268
900.95	3401
901.069	3481
901.189	3389
901.308	3199
901.427	3184
901.546	3230
901.665	3287
901.784	3344
901.904	3211
902.023	3203
902.141	3047
902.26	3009
902.379	3135
902.498	3093
902.617	3074
902.735	3230
902.854	3253
902.973	3214
903.091	3047
903.21	3066
903.328	3150
903.446	3154
903.565	3154
903.683	3233
903.801	3116
903.919	3272
904.038	3268
904.156	3195
904.274	3329
904.392	3253
904.51	3302
904.627	3355
904.745	3458
904.863	3485
904.981	3287
905.098	3192
905.216	3218
905.334	3298
905.451	3287
905.569	3336
905.686	3458
905.803	3443
905.921	3313
906.038	3416
906.155	3355
906.272	3272
906.389	3359
906.506	3245
906.623	3287
906.74	3298
906.857	3184
906.974	3226
907.091	3485
907.208	3599
907.324	3447
907.441	3401
907.557	3268
907.674	3237
907.79	3237
907.907	3283
908.023	3386
908.139	3367
908.256	3367
908.372	3382
908.488	3386
908.604	3279
908.72	3253
908.836	3275
908.952	3298
909.068	3370
909.184	3511
909.3	3363
909.415	3515
909.531	3428
909.647	3306
909.762	3344
909.878	3283
909.993	3374
910.108	3340
910.224	3374
910.339	3443
910.454	3336
910.57	3294
910.685	3298
910.8	3637
910.915	3553
911.03	3428
911.145	3279
911.259	3245
911.374	3329
911.489	3241
911.604	3226
911.718	3127
911.833	3203
911.947	3024
912.062	2975
912.176	3176
912.291	3199
912.405	3226
912.519	3412
912.633	3473
912.748	3363
912.862	3294
912.976	3180
913.09	3062
913.204	3188
913.318	3203
913.431	3325
913.545	3332
913.659	3409
913.772	3332
913.886	3203
914	3192
914.113	3389
914.226	3412
914.34	3374
914.453	3230
914.566	3420
914.68	3306
914.793	3298
914.906	3150
915.019	3142
915.132	3066
915.245	3188
915.358	3192
915.47	3211
915.583	3275
915.696	3275
915.809	3431
915.921	3450
916.034	3260
916.146	3253
916.259	3256
916.371	3389
916.483	3355
916.595	3260
916.708	3344
916.82	3374
916.932	3374
917.044	3382
917.156	3325
917.268	3264
917.38	3317
917.491	3348
917.603	3424
917.715	3466
917.826	3507
917.938	3401
918.049	3321
918.161	3439
918.272	3606
918.384	3561
918.495	3530
918.606	3374
918.717	3298
918.828	3386
918.939	3462
919.05	3336
919.161	3412
919.272	3237
919.383	3321
919.494	3584
919.604	3709
919.715	3523
919.826	3488
919.936	3519
920.047	3618
920.157	3603
920.267	3831
920.378	3648
920.488	3618
920.598	3831
920.708	3972
920.818	3880
920.928	3918
921.038	4105
921.148	4017
921.258	3766
921.368	3694
921.477	3625
921.587	3629
921.697	3504
921.806	3717
921.916	3603
922.025	3386
922.134	3412
922.244	3325
922.353	3473
922.462	3272
922.571	3294
922.68	3146
922.789	3104
922.898	3199
923.007	3119
923.116	3253
923.224	3207
923.333	3226
923.442	3146
923.55	3157
923.659	3184
923.767	3256
923.876	3176
923.984	3275
924.092	3157
924.201	3260
924.309	3245
924.417	3302
924.525	3249
924.633	3253
924.741	4017
924.849	3089
924.956	3287
925.064	3123
925.172	3070
925.279	3119
925.387	3233
925.494	3214
925.602	3370
925.709	3336
925.816	3260
925.924	3344
926.031	3389
926.138	3370
926.245	3420
926.352	3287
926.459	3485
926.566	3580
926.673	3348
926.779	3291
926.886	3283
926.993	3173
927.099	3161
927.206	3176
927.312	3169
927.419	3275
927.525	3249
927.631	3310
927.737	3214
927.843	3173
927.95	3051
928.056	3173
928.162	3230
928.267	3294
928.373	3831
928.479	3313
928.585	3085
928.69	3287
928.796	3317
928.901	3226
929.007	3104
929.112	3256
929.218	3195
929.323	3218
929.428	3192
929.533	3351
929.638	3165
929.743	3230
929.848	3272
929.953	3272
930.058	3199
930.163	3032
930.267	3055
930.372	3222
930.477	3062
930.581	3325
930.685	3192
930.79	3051
930.894	3169
930.998	3138
931.103	3336
931.207	2963
931.311	2994
931.415	2979
931.519	2834
931.623	2880
