Data from test_V78500241_949.txt Node
Date: Fri Mar 25 16:21:46 CST 2022
User: usil
Spectrometer: V785-0024
Trigger mode: 0
Integration Time (sec): 4.000000E-1
Scans to average: 1
Nonlinearity correction enabled: false
Boxcar width: 0
Storing dark spectrum: false
XAxis mode: Wavelengths
Number of Pixels in Spectrum: 1024
>>>>>Begin Spectral Data<<<<<
801.071	2933
801.214	2929
801.356	2864
801.499	2895
801.641	2876
801.783	2929
801.926	3062
802.068	3013
802.211	2952
802.353	2998
802.496	2960
802.638	2971
802.78	3024
802.923	3074
803.065	2998
803.208	2849
803.35	2918
803.492	2925
803.635	2929
803.777	2735
803.919	2876
804.061	3207
804.204	2971
804.346	2914
804.488	2857
804.63	3001
804.773	2887
804.915	2872
805.057	3104
805.199	2895
805.341	2933
805.483	3028
805.626	3017
805.768	2937
805.91	3081
806.052	3123
806.194	3036
806.336	3237
806.478	3017
806.62	2941
806.762	2956
806.904	3043
807.046	3207
807.188	2979
807.33	2937
807.472	2967
807.614	2899
807.756	3017
807.898	2941
808.04	2891
808.182	3028
808.324	2963
808.465	2925
808.607	2891
808.749	2807
808.891	2880
809.033	3009
809.174	3005
809.316	2887
809.458	2868
809.6	2811
809.741	2754
809.883	2758
810.025	2811
810.166	2830
810.308	2826
810.45	2857
810.591	2785
810.733	2781
810.875	2853
811.016	2766
811.158	2750
811.299	2815
811.441	2925
811.582	2842
811.724	2857
811.865	2826
812.007	2925
812.148	2910
812.29	2845
812.431	2899
812.573	2914
812.714	2944
812.855	3062
812.997	3005
813.138	3131
813.279	2979
813.421	2963
813.562	2967
813.703	2861
813.845	2914
813.986	2785
814.127	2731
814.268	2819
814.41	2849
814.551	2830
814.692	2872
814.833	2807
814.974	2925
815.115	2979
815.256	2792
815.397	2788
815.539	2906
815.68	2769
815.821	2792
815.962	2941
816.103	2922
816.244	2861
816.385	2868
816.526	2944
816.666	2922
816.807	2708
816.948	2922
817.089	2902
817.23	2853
817.371	2724
817.512	2800
817.653	2815
817.793	2819
817.934	2853
818.075	2914
818.216	2994
818.356	3009
818.497	2895
818.638	2785
818.778	2834
818.919	2754
819.06	2758
819.2	2887
819.341	2815
819.481	2804
819.622	2929
819.762	3112
819.903	3058
820.043	2918
820.184	2910
820.324	2899
820.465	2994
820.605	3005
820.746	3005
820.886	2922
821.026	3085
821.167	3154
821.307	3275
821.447	3275
821.588	3230
821.728	3203
821.868	3188
822.008	3085
822.149	3169
822.289	3256
822.429	3058
822.569	3131
822.709	3184
822.849	3020
822.99	3116
823.13	3138
823.27	3199
823.41	3093
823.55	3127
823.69	3176
823.83	3176
823.97	3081
824.11	2963
824.25	3001
824.389	3074
824.529	3104
824.669	3097
824.809	3211
824.949	3233
825.089	3207
825.228	3131
825.368	3020
825.508	2918
825.648	2960
825.787	3032
825.927	3013
826.067	2944
826.206	2937
826.346	2994
826.485	3062
826.625	3074
826.765	3294
826.904	3169
827.044	2956
827.183	2941
827.323	2853
827.462	2986
827.601	2941
827.741	2922
827.88	2979
828.02	2861
828.159	2979
828.298	2998
828.437	3100
828.577	3009
828.716	3192
828.855	3089
828.994	2906
829.134	2902
829.273	2925
829.412	2895
829.551	2849
829.69	2857
829.829	3005
829.968	3104
830.107	3005
830.246	3017
830.385	2891
830.524	2838
830.663	2807
830.802	2716
830.941	2659
831.08	2632
831.219	2766
831.357	2750
831.496	2929
831.635	2720
831.774	2644
831.913	2682
832.051	2530
832.19	2571
832.329	2659
832.467	2541
832.606	2507
832.744	2552
832.883	2579
833.022	2571
833.16	2663
833.299	2670
833.437	2693
833.576	2712
833.714	2716
833.852	2731
833.991	2758
834.129	2826
834.267	2804
834.406	2773
834.544	2857
834.682	2864
834.821	2876
834.959	3089
835.097	2899
835.235	3058
835.373	3001
835.511	3005
835.65	2986
835.788	2944
835.926	2804
836.064	2804
836.202	2845
836.34	3097
836.478	3142
836.615	3066
836.753	3123
836.891	3184
837.029	3154
837.167	3112
837.305	3062
837.443	3028
837.58	2952
837.718	3116
837.856	3070
837.993	3058
838.131	3123
838.269	3123
838.406	3108
838.544	3036
838.681	2883
838.819	2933
838.956	2792
839.094	2823
839.231	2883
839.369	3028
839.506	3359
839.643	3211
839.781	3009
839.918	2971
840.055	3055
840.193	3036
840.33	3074
840.467	3089
840.604	3123
840.742	3382
840.879	3066
841.016	3047
841.153	3116
841.29	3283
841.427	3294
841.564	3310
841.701	3325
841.838	3230
841.975	3161
842.112	3226
842.249	3081
842.385	3036
842.522	3264
842.659	3081
842.796	3036
842.933	3047
843.069	3017
843.206	3047
843.343	3188
843.479	3093
843.616	3165
843.752	2922
843.889	2857
844.025	3066
844.162	2899
844.298	3058
844.435	2952
844.571	2929
844.708	3074
844.844	3176
844.98	3211
845.117	3195
845.253	3032
845.389	3005
845.525	3077
845.661	3093
845.798	2990
845.934	3138
846.07	3051
846.206	3233
846.342	3325
846.478	3218
846.614	3108
846.75	3089
846.886	3001
847.022	3230
847.158	3127
847.294	3173
847.429	3253
847.565	3176
847.701	3504
847.837	3024
847.972	3001
848.108	3138
848.244	3165
848.379	2982
848.515	2937
848.65	2918
848.786	2952
848.921	3013
849.057	3116
849.192	3135
849.328	3062
849.463	3108
849.598	3089
849.734	3074
849.869	2960
850.004	2872
850.14	2948
850.275	2944
850.41	2800
850.545	2887
850.68	2895
850.815	2952
850.95	2967
851.085	3176
851.22	3074
851.355	3013
851.49	2975
851.625	3001
851.76	2998
851.895	2914
852.03	2899
852.165	2998
852.299	3081
852.434	3154
852.569	3127
852.703	3154
852.838	3237
852.973	3351
853.107	3310
853.242	3131
853.376	3062
853.511	2944
853.645	3051
853.78	3233
853.914	3081
854.048	3097
854.183	3051
854.317	3070
854.451	3283
854.585	3135
854.72	3100
854.854	3211
854.988	3074
855.122	3100
855.256	2994
855.39	3108
855.524	3245
855.658	3192
855.792	3138
855.926	3165
856.06	3211
856.194	3279
856.327	3119
856.461	3051
856.595	3062
856.729	3081
856.862	3176
856.996	3169
857.13	3146
857.263	3222
857.397	3256
857.53	3081
857.664	3192
857.797	3214
857.931	3256
858.064	3195
858.197	3211
858.331	3165
858.464	3066
858.597	3005
858.731	3138
858.864	3131
858.997	3039
859.13	3150
859.263	3165
859.396	3150
859.529	3085
859.662	3051
859.795	3043
859.928	3123
860.061	3279
860.194	3298
860.327	3150
860.46	3058
860.592	3241
860.725	3253
860.858	3264
860.99	3066
861.123	3024
861.256	3055
861.388	3169
861.521	3823
861.653	2979
861.786	2982
861.918	2990
862.05	3070
862.183	3066
862.315	3119
862.447	3150
862.58	3104
862.712	2937
862.844	2868
862.976	3020
863.108	2979
863.24	3401
863.372	2872
863.504	2967
863.636	2925
863.768	3009
863.9	2967
864.032	2929
864.164	2929
864.296	2994
864.428	3077
864.559	3070
864.691	3036
864.823	3036
864.954	3009
865.086	3020
865.217	2982
865.349	2933
865.48	2967
865.612	2994
865.743	3138
865.875	2982
866.006	2948
866.137	2937
866.269	2929
866.4	2899
866.531	2937
866.662	2895
866.793	2891
866.924	2876
867.055	2971
867.186	2895
867.317	2883
867.448	2811
867.579	2811
867.71	2815
867.841	2845
867.972	2922
868.103	2872
868.233	2883
868.364	2876
868.495	2929
868.625	3062
868.756	3188
868.886	2944
869.017	2990
869.147	3157
869.278	3154
869.408	3013
869.539	3055
869.669	3104
869.799	2994
869.929	3112
870.06	3097
870.19	3313
870.32	3294
870.45	3302
870.58	3363
870.71	3420
870.84	3401
870.97	3306
871.1	3233
871.23	3458
871.36	3439
871.489	3363
871.619	3431
871.749	3435
871.879	3458
872.008	3443
872.138	3355
872.267	3249
872.397	3135
872.526	3097
872.656	3009
872.785	3104
872.915	3199
873.044	3336
873.173	3245
873.303	3256
873.432	3230
873.561	3211
873.69	3173
873.819	3165
873.948	3192
874.077	3131
874.206	3032
874.335	3093
874.464	3230
874.593	3313
874.722	3249
874.851	3382
874.979	3363
875.108	3283
875.237	3165
875.365	3150
875.494	3173
875.623	3214
875.751	3081
875.88	3104
876.008	3207
876.136	3245
876.265	3363
876.393	3523
876.521	3435
876.65	3420
876.778	3317
876.906	3233
877.034	3169
877.162	3253
877.29	3142
877.418	3241
877.546	3245
877.674	3230
877.802	3233
877.93	3230
878.058	3161
878.185	3081
878.313	3211
878.441	3214
878.568	3028
878.696	3169
878.824	3264
878.951	3298
879.079	3428
879.206	3629
879.333	3435
879.461	3332
879.588	3340
879.715	3462
879.842	3584
879.97	3336
880.097	3142
880.224	3116
880.351	3195
880.478	3245
880.605	3161
880.732	3195
880.859	3462
880.986	3279
881.112	3298
881.239	3199
881.366	3066
881.493	3009
881.619	3047
881.746	3066
881.872	3062
881.999	3100
882.125	3154
882.252	3264
882.378	3245
882.505	3378
882.631	3287
882.757	3142
882.883	3211
883.01	3184
883.136	3161
883.262	3047
883.388	3116
883.514	3287
883.64	3348
883.766	3294
883.892	3176
884.018	3245
884.143	3401
884.269	3504
884.395	3199
884.52	3154
884.646	3173
884.772	3119
884.897	3161
885.023	3180
885.148	3310
885.274	3416
885.399	3363
885.524	3283
885.65	3306
885.775	3329
885.9	3310
886.025	3409
886.15	3370
886.275	3317
886.4	3211
886.525	3283
886.65	3279
886.775	3272
886.9	3523
887.025	3625
887.149	3409
887.274	3272
887.399	3169
887.523	3199
887.648	3150
887.773	3195
887.897	3363
888.021	3386
888.146	3283
888.27	3450
888.395	3534
888.519	3389
888.643	3462
888.767	3443
888.891	3294
889.015	3218
889.139	3291
889.263	3207
889.387	3412
889.511	3538
889.635	3466
889.759	3268
889.883	3275
890.006	3348
890.13	3458
890.254	3272
890.377	3317
890.501	3165
890.624	3176
890.748	3268
890.871	3214
890.995	3097
891.118	3112
891.241	3195
891.364	3241
891.488	3294
891.611	3165
891.734	3207
891.857	3332
891.98	3211
892.103	3340
892.226	3291
892.349	3157
892.471	3131
892.594	3203
892.717	3260
892.839	3241
892.962	3310
893.085	3363
893.207	3279
893.33	3146
893.452	3180
893.575	3313
893.697	3230
893.819	3469
893.941	3545
894.064	3428
894.186	3294
894.308	3260
894.43	3424
894.552	3545
894.674	3424
894.796	3256
894.918	3260
895.04	3294
895.161	3439
895.283	3317
895.405	3302
895.526	3409
895.648	3416
895.769	3389
895.891	3458
896.012	3477
896.134	3469
896.255	3393
896.376	3389
896.498	3382
896.619	3412
896.74	3355
896.861	3435
896.982	3671
897.103	3835
897.224	3591
897.345	3519
897.466	3389
897.587	3492
897.708	3587
897.828	3504
897.949	3431
898.07	3313
898.19	3443
898.311	3587
898.431	3447
898.552	3488
898.672	3644
898.792	3538
898.913	3462
899.033	3397
899.153	3291
899.273	3180
899.393	3268
899.513	3310
899.633	3332
899.753	3348
899.873	3302
899.993	3370
900.113	3272
900.232	3386
900.352	3336
900.472	3332
900.591	3207
900.711	3329
900.83	3256
900.95	3386
901.069	3469
901.189	3374
901.308	3211
901.427	3097
901.546	3207
901.665	3253
901.784	3336
901.904	3180
902.023	3142
902.141	3017
902.26	2960
902.379	3131
902.498	3077
902.617	3070
902.735	3195
902.854	3253
902.973	3142
903.091	2990
903.21	3047
903.328	3116
903.446	3108
903.565	3104
903.683	3211
903.801	3131
903.919	3241
904.038	3279
904.156	3150
904.274	3313
904.392	3233
904.51	3268
904.627	3313
904.745	3428
904.863	3519
904.981	3264
905.098	3150
905.216	3218
905.334	3287
905.451	3302
905.569	3302
905.686	3386
905.803	3462
905.921	3283
906.038	3416
906.155	3351
906.272	3294
906.389	3359
906.506	3260
906.623	3241
906.74	3287
906.857	3165
906.974	3260
907.091	3416
907.208	3538
907.324	3450
907.441	3378
907.557	3230
907.674	3237
907.79	3176
907.907	3291
908.023	3363
908.139	3367
908.256	3325
908.372	3355
908.488	3340
908.604	3237
908.72	3233
908.836	3260
908.952	3249
909.068	3306
909.184	3507
909.3	3386
909.415	3515
909.531	3466
909.647	3249
909.762	3298
909.878	3279
909.993	3340
910.108	3367
910.224	3332
910.339	3416
910.454	3317
910.57	3310
910.685	3226
910.8	3587
910.915	3530
911.03	3443
911.145	3287
911.259	3253
911.374	3306
911.489	3272
911.604	3169
911.718	3112
911.833	3161
911.947	3020
912.062	2990
912.176	3161
912.291	3195
912.405	3218
912.519	3416
912.633	3477
912.748	3325
912.862	3233
912.976	3157
913.09	3093
913.204	3146
913.318	3249
913.431	3321
913.545	3344
913.659	3370
913.772	3348
913.886	3176
914	3203
914.113	3302
914.226	3389
914.34	3348
914.453	3218
914.566	3397
914.68	3260
914.793	3359
914.906	3123
915.019	3135
915.132	3024
915.245	3169
915.358	3214
915.47	3211
915.583	3249
915.696	3245
915.809	3428
915.921	3397
916.034	3241
916.146	3268
916.259	3222
916.371	3344
916.483	3367
916.595	3260
916.708	3313
916.82	3321
916.932	3306
917.044	3370
917.156	3329
917.268	3226
917.38	3283
917.491	3313
917.603	3336
917.715	3454
917.826	3454
917.938	3409
918.049	3264
918.161	3370
918.272	3580
918.384	3564
918.495	3462
918.606	3329
918.717	3302
918.828	3378
918.939	3397
919.05	3283
919.161	3344
919.272	3176
919.383	3249
919.494	3462
919.604	3625
919.715	3507
919.826	3378
919.936	3469
920.047	3576
920.157	3576
920.267	3774
920.378	3557
920.488	3523
920.598	3778
920.708	3918
920.818	3774
920.928	3804
921.038	4010
921.148	3964
921.258	3686
921.368	3622
921.477	3572
921.587	3504
921.697	3462
921.806	3660
921.916	3523
922.025	3329
922.134	3317
922.244	3298
922.353	3428
922.462	3287
922.571	3207
922.68	3070
922.789	3089
922.898	3131
923.007	3062
923.116	3176
923.224	3165
923.333	3154
923.442	3104
923.55	3108
923.659	3138
923.767	3226
923.876	3108
923.984	3233
924.092	3108
924.201	3173
924.309	3199
924.417	3249
924.525	3146
924.633	3264
924.741	4173
924.849	3013
924.956	3233
925.064	3135
925.172	3051
925.279	3127
925.387	3184
925.494	3173
925.602	3378
925.709	3310
925.816	3154
925.924	3298
926.031	3412
926.138	3332
926.245	3351
926.352	3264
926.459	3405
926.566	3462
926.673	3329
926.779	3260
926.886	3253
926.993	3142
927.099	3138
927.206	3097
927.312	3112
927.419	3222
927.525	3173
927.631	3249
927.737	3119
927.843	3131
927.95	3013
928.056	3081
928.162	3188
928.267	3226
928.373	3865
928.479	3298
928.585	3032
928.69	3226
928.796	3294
928.901	3112
929.007	3028
929.112	3214
929.218	3192
929.323	3146
929.428	3138
929.533	3294
929.638	3100
929.743	3165
929.848	3272
929.953	3214
930.058	3131
930.163	2986
930.267	3024
930.372	3211
930.477	3013
930.581	3302
930.685	3165
930.79	3047
930.894	3100
930.998	3100
931.103	3264
931.207	2982
931.311	2937
931.415	2910
931.519	2754
931.623	2792
