Data from test_V78500241_1762.txt Node
Date: Fri Mar 25 16:27:24 CST 2022
User: usil
Spectrometer: V785-0024
Trigger mode: 0
Integration Time (sec): 4.000000E-1
Scans to average: 1
Nonlinearity correction enabled: false
Boxcar width: 0
Storing dark spectrum: false
XAxis mode: Wavelengths
Number of Pixels in Spectrum: 1024
>>>>>Begin Spectral Data<<<<<
801.071	2906
801.214	2925
801.356	2864
801.499	2864
801.641	2857
801.783	2899
801.926	3039
802.068	2941
802.211	2986
802.353	2986
802.496	2975
802.638	2982
802.78	3036
802.923	3097
803.065	3020
803.208	2849
803.35	2933
803.492	2925
803.635	2948
803.777	2769
803.919	2857
804.061	3195
804.204	2910
804.346	2891
804.488	2845
804.63	2960
804.773	2845
804.915	2887
805.057	3081
805.199	2883
805.341	2963
805.483	3036
805.626	2982
805.768	2979
805.91	3085
806.052	3112
806.194	3032
806.336	3180
806.478	3005
806.62	2910
806.762	2990
806.904	3020
807.046	3165
807.188	2982
807.33	2902
807.472	3001
807.614	2902
807.756	2986
807.898	2937
808.04	2906
808.182	2963
808.324	2952
808.465	2845
808.607	2868
808.749	2819
808.891	2819
809.033	2986
809.174	2967
809.316	2902
809.458	2887
809.6	2804
809.741	2727
809.883	2800
810.025	2861
810.166	2864
810.308	2842
810.45	2826
810.591	2750
810.733	2762
810.875	2849
811.016	2781
811.158	2785
811.299	2807
811.441	2937
811.582	2899
811.724	2845
811.865	2834
812.007	2937
812.148	2849
812.29	2845
812.431	2918
812.573	2948
812.714	2975
812.855	3005
812.997	3081
813.138	3112
813.279	2982
813.421	2982
813.562	2963
813.703	2876
813.845	2842
813.986	2788
814.127	2754
814.268	2849
814.41	2838
814.551	2823
814.692	2857
814.833	2800
814.974	2902
815.115	2956
815.256	2842
815.397	2830
815.539	2861
815.68	2773
815.821	2766
815.962	2925
816.103	2891
816.244	2876
816.385	2842
816.526	2956
816.666	2864
816.807	2777
816.948	2887
817.089	2914
817.23	2845
817.371	2773
817.512	2796
817.653	2857
817.793	2861
817.934	2864
818.075	2941
818.216	2990
818.356	2971
818.497	2902
818.638	2800
818.778	2792
818.919	2819
819.06	2746
819.2	2864
819.341	2807
819.481	2792
819.622	2918
819.762	3093
819.903	3024
820.043	2883
820.184	2925
820.324	2895
820.465	2986
820.605	3020
820.746	2994
820.886	2925
821.026	3074
821.167	3157
821.307	3253
821.447	3306
821.588	3214
821.728	3233
821.868	3173
822.008	3119
822.149	3146
822.289	3199
822.429	3097
822.569	3047
822.709	3154
822.849	2998
822.99	3074
823.13	3127
823.27	3176
823.41	3100
823.55	3165
823.69	3173
823.83	3230
823.97	3066
824.11	2982
824.25	2986
824.389	3081
824.529	3089
824.669	3074
824.809	3165
824.949	3249
825.089	3233
825.228	3173
825.368	2963
825.508	2971
825.648	2975
825.787	3005
825.927	3047
826.067	2967
826.206	2975
826.346	3024
826.485	3093
826.625	3085
826.765	3241
826.904	3184
827.044	2998
827.183	2910
827.323	2864
827.462	2975
827.601	2918
827.741	2906
827.88	2948
828.02	2868
828.159	2971
828.298	3028
828.437	3116
828.577	3005
828.716	3256
828.855	3062
828.994	2933
829.134	2876
829.273	2918
829.412	2834
829.551	2853
829.69	2899
829.829	2975
829.968	3116
830.107	3020
830.246	3032
830.385	2906
830.524	2887
830.663	2826
830.802	2724
830.941	2629
831.08	2663
831.219	2785
831.357	2769
831.496	2952
831.635	2693
831.774	2678
831.913	2625
832.051	2549
832.19	2606
832.329	2670
832.467	2533
832.606	2461
832.744	2564
832.883	2575
833.022	2560
833.16	2648
833.299	2663
833.437	2697
833.576	2708
833.714	2697
833.852	2724
833.991	2762
834.129	2830
834.267	2815
834.406	2800
834.544	2845
834.682	2895
834.821	2872
834.959	3093
835.097	2910
835.235	3077
835.373	2979
835.511	3013
835.65	2941
835.788	2963
835.926	2830
836.064	2800
836.202	2834
836.34	3119
836.478	3135
836.615	3039
836.753	3100
836.891	3249
837.029	3195
837.167	3100
837.305	3017
837.443	2986
837.58	2982
837.718	3165
837.856	3074
837.993	3017
838.131	3097
838.269	3085
838.406	3100
838.544	3089
838.681	2895
838.819	2933
838.956	2785
839.094	2811
839.231	2891
839.369	3009
839.506	3370
839.643	3218
839.781	3020
839.918	2982
840.055	3039
840.193	3039
840.33	3066
840.467	3081
840.604	3116
840.742	3363
840.879	3047
841.016	3017
841.153	3108
841.29	3294
841.427	3302
841.564	3222
841.701	3306
841.838	3226
841.975	3150
842.112	3192
842.249	3089
842.385	3051
842.522	3237
842.659	3085
842.796	3028
842.933	3089
843.069	3039
843.206	3055
843.343	3195
843.479	3112
843.616	3089
843.752	2883
843.889	2864
844.025	3051
844.162	2861
844.298	3039
844.435	2948
844.571	2937
844.708	3062
844.844	3157
844.98	3245
845.117	3173
845.253	3077
845.389	3028
845.525	3070
845.661	3074
845.798	3017
845.934	3108
846.07	3047
846.206	3180
846.342	3298
846.478	3230
846.614	3077
846.75	3039
846.886	3032
847.022	3249
847.158	3138
847.294	3218
847.429	3184
847.565	3203
847.701	3519
847.837	3009
847.972	3005
848.108	3211
848.244	3157
848.379	3001
848.515	2937
848.65	2910
848.786	2956
848.921	3017
849.057	3051
849.192	3161
849.328	3058
849.463	3146
849.598	3058
849.734	3028
849.869	2986
850.004	2887
850.14	2941
850.275	2899
850.41	2842
850.545	2895
850.68	2910
850.815	2929
850.95	2979
851.085	3203
851.22	3062
851.355	3058
851.49	2956
851.625	2975
851.76	3020
851.895	2910
852.03	2880
852.165	3032
852.299	3154
852.434	3180
852.569	3142
852.703	3195
852.838	3192
852.973	3317
853.107	3317
853.242	3116
853.376	3108
853.511	2967
853.645	3005
853.78	3226
853.914	3127
854.048	3119
854.183	3081
854.317	3119
854.451	3302
854.585	3131
854.72	3100
854.854	3138
854.988	3089
855.122	3077
855.256	2975
855.39	3131
855.524	3203
855.658	3157
855.792	3176
855.926	3207
856.06	3192
856.194	3241
856.327	3135
856.461	3116
856.595	3074
856.729	3070
856.862	3222
856.996	3180
857.13	3214
857.263	3211
857.397	3287
857.53	3116
857.664	3165
857.797	3199
857.931	3256
858.064	3173
858.197	3214
858.331	3119
858.464	3081
858.597	2986
858.731	3077
858.864	3097
858.997	3097
859.13	3150
859.263	3138
859.396	3180
859.529	3085
859.662	3058
859.795	3055
859.928	3100
860.061	3306
860.194	3260
860.327	3123
860.46	3093
860.592	3237
860.725	3195
860.858	3260
860.99	3070
861.123	3032
861.256	3058
861.388	3123
861.521	3899
861.653	3009
861.786	2998
861.918	2986
862.05	3085
862.183	3112
862.315	3138
862.447	3173
862.58	3062
862.712	2937
862.844	2899
862.976	3024
863.108	2994
863.24	3294
863.372	2826
863.504	2967
863.636	2929
863.768	3024
863.9	2963
864.032	2914
864.164	2941
864.296	3032
864.428	3100
864.559	3097
864.691	3070
864.823	3058
864.954	3047
865.086	3036
865.217	3005
865.349	2971
865.48	2971
865.612	3013
865.743	3146
865.875	2963
866.006	2948
866.137	2963
866.269	2941
866.4	2922
866.531	2914
866.662	2849
866.793	2891
866.924	2918
867.055	2941
867.186	2861
867.317	2872
867.448	2849
867.579	2834
867.71	2842
867.841	2788
867.972	2887
868.103	2891
868.233	2853
868.364	2861
868.495	2891
868.625	3093
868.756	3184
868.886	2971
869.017	3017
869.147	3157
869.278	3161
869.408	3047
869.539	3032
869.669	3100
869.799	3047
869.929	3146
870.06	3097
870.19	3321
870.32	3275
870.45	3287
870.58	3382
870.71	3431
870.84	3447
870.97	3291
871.1	3211
871.23	3504
871.36	3469
871.489	3306
871.619	3363
871.749	3367
871.879	3412
872.008	3519
872.138	3336
872.267	3256
872.397	3161
872.526	3093
872.656	2990
872.785	3097
872.915	3226
873.044	3306
873.173	3214
873.303	3260
873.432	3211
873.561	3218
873.69	3188
873.819	3169
873.948	3173
874.077	3123
874.206	3020
874.335	3074
874.464	3176
874.593	3317
874.722	3222
874.851	3374
874.979	3348
875.108	3344
875.237	3184
875.365	3135
875.494	3157
875.623	3253
875.751	3112
875.88	3097
876.008	3184
876.136	3218
876.265	3340
876.393	3466
876.521	3370
876.65	3370
876.778	3306
876.906	3253
877.034	3211
877.162	3249
877.29	3157
877.418	3218
877.546	3237
877.674	3264
877.802	3169
877.93	3222
878.058	3146
878.185	3100
878.313	3199
878.441	3207
878.568	3085
878.696	3165
878.824	3241
878.951	3306
879.079	3458
879.206	3584
879.333	3431
879.461	3275
879.588	3310
879.715	3462
879.842	3599
879.97	3382
880.097	3135
880.224	3081
880.351	3131
880.478	3214
880.605	3173
880.732	3173
880.859	3466
880.986	3291
881.112	3298
881.239	3184
881.366	3066
881.493	3032
881.619	3005
881.746	3104
881.872	3055
881.999	3119
882.125	3097
882.252	3283
882.378	3283
882.505	3424
882.631	3317
882.757	3154
882.883	3211
883.01	3199
883.136	3123
883.262	3116
883.388	3131
883.514	3317
883.64	3374
883.766	3283
883.892	3199
884.018	3241
884.143	3401
884.269	3526
884.395	3241
884.52	3146
884.646	3180
884.772	3108
884.897	3100
885.023	3214
885.148	3367
885.274	3409
885.399	3336
885.524	3298
885.65	3260
885.775	3298
885.9	3287
886.025	3439
886.15	3355
886.275	3298
886.4	3237
886.525	3351
886.65	3279
886.775	3264
886.9	3496
887.025	3637
887.149	3389
887.274	3268
887.399	3192
887.523	3233
887.648	3176
887.773	3211
887.897	3363
888.021	3393
888.146	3298
888.27	3428
888.395	3507
888.519	3428
888.643	3454
888.767	3466
888.891	3294
889.015	3245
889.139	3268
889.263	3245
889.387	3409
889.511	3538
889.635	3401
889.759	3268
889.883	3256
890.006	3401
890.13	3462
890.254	3283
890.377	3317
890.501	3192
890.624	3180
890.748	3298
890.871	3173
890.995	3093
891.118	3055
891.241	3184
891.364	3203
891.488	3367
891.611	3180
891.734	3169
891.857	3268
891.98	3245
892.103	3306
892.226	3260
892.349	3226
892.471	3104
892.594	3245
892.717	3260
892.839	3272
892.962	3272
893.085	3382
893.207	3306
893.33	3112
893.452	3218
893.575	3313
893.697	3230
893.819	3428
893.941	3492
894.064	3447
894.186	3272
894.308	3253
894.43	3458
894.552	3538
894.674	3454
894.796	3241
894.918	3321
895.04	3272
895.161	3431
895.283	3409
895.405	3336
895.526	3382
895.648	3416
895.769	3412
895.891	3454
896.012	3466
896.134	3454
896.255	3401
896.376	3367
896.498	3393
896.619	3431
896.74	3340
896.861	3355
896.982	3675
897.103	3835
897.224	3557
897.345	3542
897.466	3409
897.587	3447
897.708	3648
897.828	3534
897.949	3450
898.07	3321
898.19	3393
898.311	3595
898.431	3428
898.552	3534
898.672	3595
898.792	3576
898.913	3526
899.033	3412
899.153	3279
899.273	3241
899.393	3253
899.513	3355
899.633	3275
899.753	3332
899.873	3291
899.993	3351
900.113	3291
900.232	3367
900.352	3359
900.472	3298
900.591	3203
900.711	3344
900.83	3249
900.95	3409
901.069	3466
901.189	3378
901.308	3192
901.427	3123
901.546	3195
901.665	3310
901.784	3370
901.904	3184
902.023	3131
902.141	2998
902.26	2990
902.379	3154
902.498	3047
902.617	3043
902.735	3188
902.854	3237
902.973	3138
903.091	3062
903.21	3043
903.328	3108
903.446	3104
903.565	3093
903.683	3211
903.801	3100
903.919	3245
904.038	3279
904.156	3157
904.274	3298
904.392	3294
904.51	3245
904.627	3321
904.745	3412
904.863	3538
904.981	3253
905.098	3165
905.216	3226
905.334	3298
905.451	3287
905.569	3302
905.686	3389
905.803	3431
905.921	3291
906.038	3424
906.155	3348
906.272	3313
906.389	3351
906.506	3199
906.623	3268
906.74	3302
906.857	3161
906.974	3230
907.091	3405
907.208	3542
907.324	3462
907.441	3435
907.557	3253
907.674	3237
907.79	3199
907.907	3283
908.023	3370
908.139	3340
908.256	3336
908.372	3374
908.488	3332
908.604	3272
908.72	3230
908.836	3294
908.952	3279
909.068	3332
909.184	3519
909.3	3420
909.415	3477
909.531	3458
909.647	3294
909.762	3302
909.878	3279
909.993	3355
910.108	3336
910.224	3340
910.339	3401
910.454	3321
910.57	3256
910.685	3233
910.8	3561
910.915	3519
911.03	3420
911.145	3256
911.259	3230
911.374	3329
911.489	3237
911.604	3226
911.718	3093
911.833	3146
911.947	2990
912.062	2975
912.176	3180
912.291	3157
912.405	3169
912.519	3416
912.633	3431
912.748	3332
912.862	3264
912.976	3157
913.09	3058
913.204	3108
913.318	3230
913.431	3374
913.545	3313
913.659	3405
913.772	3321
913.886	3222
914	3195
914.113	3336
914.226	3409
914.34	3386
914.453	3214
914.566	3405
914.68	3275
914.793	3336
914.906	3123
915.019	3116
915.132	3097
915.245	3169
915.358	3237
915.47	3199
915.583	3283
915.696	3302
915.809	3393
915.921	3409
916.034	3237
916.146	3214
916.259	3203
916.371	3359
916.483	3355
916.595	3256
916.708	3336
916.82	3351
916.932	3348
917.044	3344
917.156	3348
917.268	3214
917.38	3325
917.491	3325
917.603	3351
917.715	3473
917.826	3469
917.938	3386
918.049	3218
918.161	3450
918.272	3603
918.384	3568
918.495	3507
918.606	3313
918.717	3245
918.828	3378
918.939	3393
919.05	3256
919.161	3393
919.272	3173
919.383	3302
919.494	3519
919.604	3701
919.715	3504
919.826	3409
919.936	3447
920.047	3614
920.157	3584
920.267	3720
920.378	3625
920.488	3545
920.598	3747
920.708	3926
920.818	3823
920.928	3831
921.038	4017
921.148	3968
921.258	3713
921.368	3644
921.477	3584
921.587	3542
921.697	3450
921.806	3625
921.916	3507
922.025	3325
922.134	3355
922.244	3340
922.353	3416
922.462	3279
922.571	3241
922.68	3119
922.789	3062
922.898	3176
923.007	3093
923.116	3207
923.224	3150
923.333	3207
923.442	3062
923.55	3089
923.659	3146
923.767	3207
923.876	3150
923.984	3226
924.092	3108
924.201	3218
924.309	3211
924.417	3268
924.525	3199
924.633	3214
924.741	4002
924.849	3039
924.956	3279
925.064	3081
925.172	3028
925.279	3085
925.387	3218
925.494	3165
925.602	3344
925.709	3313
925.816	3207
925.924	3260
926.031	3401
926.138	3329
926.245	3389
926.352	3256
926.459	3424
926.566	3481
926.673	3306
926.779	3260
926.886	3283
926.993	3154
927.099	3127
927.206	3100
927.312	3123
927.419	3199
927.525	3214
927.631	3256
927.737	3157
927.843	3142
927.95	3028
928.056	3131
928.162	3180
928.267	3226
928.373	3861
928.479	3310
928.585	3058
928.69	3222
928.796	3230
928.901	3188
929.007	3028
929.112	3207
929.218	3195
929.323	3135
929.428	3157
929.533	3351
929.638	3127
929.743	3188
929.848	3256
929.953	3207
930.058	3142
930.163	2982
930.267	3062
930.372	3195
930.477	3036
930.581	3317
930.685	3233
930.79	3058
930.894	3104
930.998	3085
931.103	3272
931.207	2960
931.311	2952
931.415	2899
931.519	2773
931.623	2788
