Data from test_V78500241_1919.txt Node
Date: Fri Mar 25 16:28:29 CST 2022
User: usil
Spectrometer: V785-0024
Trigger mode: 0
Integration Time (sec): 4.000000E-1
Scans to average: 1
Nonlinearity correction enabled: false
Boxcar width: 0
Storing dark spectrum: false
XAxis mode: Wavelengths
Number of Pixels in Spectrum: 1024
>>>>>Begin Spectral Data<<<<<
801.071	2891
801.214	2948
801.356	2868
801.499	2887
801.641	2845
801.783	2937
801.926	3020
802.068	2952
802.211	3001
802.353	3032
802.496	2960
802.638	3036
802.78	3024
802.923	3081
803.065	2982
803.208	2899
803.35	2899
803.492	2902
803.635	2918
803.777	2777
803.919	2853
804.061	3188
804.204	2952
804.346	2910
804.488	2834
804.63	2948
804.773	2823
804.915	2918
805.057	3085
805.199	2925
805.341	2998
805.483	3028
805.626	3009
805.768	2918
805.91	3074
806.052	3089
806.194	3043
806.336	3245
806.478	3028
806.62	2948
806.762	2960
806.904	3039
807.046	3161
807.188	2990
807.33	2899
807.472	2975
807.614	2941
807.756	3024
807.898	2956
808.04	2891
808.182	2994
808.324	2960
808.465	2914
808.607	2895
808.749	2788
808.891	2849
809.033	2979
809.174	2986
809.316	2861
809.458	2883
809.6	2781
809.741	2762
809.883	2777
810.025	2868
810.166	2838
810.308	2807
810.45	2864
810.591	2773
810.733	2777
810.875	2826
811.016	2792
811.158	2750
811.299	2807
811.441	2906
811.582	2891
811.724	2842
811.865	2868
812.007	2899
812.148	2902
812.29	2819
812.431	2902
812.573	2929
812.714	2963
812.855	3032
812.997	3062
813.138	3104
813.279	3020
813.421	2986
813.562	2952
813.703	2937
813.845	2868
813.986	2781
814.127	2739
814.268	2788
814.41	2868
814.551	2800
814.692	2838
814.833	2796
814.974	2895
815.115	2918
815.256	2842
815.397	2819
815.539	2849
815.68	2762
815.821	2792
815.962	2952
816.103	2933
816.244	2872
816.385	2868
816.526	2979
816.666	2906
816.807	2731
816.948	2887
817.089	2910
817.23	2842
817.371	2819
817.512	2815
817.653	2838
817.793	2788
817.934	2906
818.075	2941
818.216	2937
818.356	3032
818.497	2876
818.638	2815
818.778	2842
818.919	2796
819.06	2754
819.2	2876
819.341	2785
819.481	2811
819.622	2891
819.762	3051
819.903	3062
820.043	2902
820.184	2883
820.324	2914
820.465	3013
820.605	3024
820.746	3032
820.886	2941
821.026	3070
821.167	3150
821.307	3253
821.447	3260
821.588	3233
821.728	3211
821.868	3180
822.008	3081
822.149	3169
822.289	3256
822.429	3081
822.569	3089
822.709	3192
822.849	3005
822.99	3077
823.13	3169
823.27	3192
823.41	3127
823.55	3142
823.69	3176
823.83	3207
823.97	3112
824.11	3005
824.25	2998
824.389	3058
824.529	3085
824.669	3077
824.809	3169
824.949	3268
825.089	3192
825.228	3154
825.368	3005
825.508	2967
825.648	2956
825.787	3009
825.927	2998
826.067	3001
826.206	2933
826.346	3020
826.485	3077
826.625	3104
826.765	3260
826.904	3207
827.044	2990
827.183	2929
827.323	2887
827.462	3020
827.601	2929
827.741	2948
827.88	2929
828.02	2868
828.159	2998
828.298	3028
828.437	3093
828.577	3039
828.716	3237
828.855	3070
828.994	2876
829.134	2906
829.273	2910
829.412	2826
829.551	2868
829.69	2883
829.829	2960
829.968	3131
830.107	2990
830.246	3043
830.385	2906
830.524	2864
830.663	2785
830.802	2693
830.941	2640
831.08	2655
831.219	2766
831.357	2754
831.496	2963
831.635	2705
831.774	2636
831.913	2663
832.051	2533
832.19	2598
832.329	2663
832.467	2533
832.606	2484
832.744	2541
832.883	2602
833.022	2629
833.16	2613
833.299	2689
833.437	2701
833.576	2716
833.714	2712
833.852	2716
833.991	2743
834.129	2838
834.267	2807
834.406	2800
834.544	2868
834.682	2887
834.821	2849
834.959	3039
835.097	2868
835.235	3032
835.373	2956
835.511	2986
835.65	2975
835.788	2914
835.926	2830
836.064	2796
836.202	2834
836.34	3093
836.478	3135
836.615	3062
836.753	3100
836.891	3199
837.029	3161
837.167	3138
837.305	3077
837.443	3036
837.58	2960
837.718	3116
837.856	3051
837.993	3013
838.131	3104
838.269	3085
838.406	3119
838.544	3074
838.681	2891
838.819	2925
838.956	2826
839.094	2880
839.231	2910
839.369	2982
839.506	3409
839.643	3222
839.781	3005
839.918	2937
840.055	3047
840.193	3036
840.33	3051
840.467	3081
840.604	3165
840.742	3416
840.879	3074
841.016	3043
841.153	3119
841.29	3340
841.427	3306
841.564	3275
841.701	3291
841.838	3188
841.975	3142
842.112	3188
842.249	3070
842.385	3032
842.522	3226
842.659	3070
842.796	3043
842.933	3077
843.069	3058
843.206	3055
843.343	3142
843.479	3112
843.616	3150
843.752	2899
843.889	2849
844.025	3085
844.162	2876
844.298	3093
844.435	2933
844.571	2895
844.708	3081
844.844	3176
844.98	3268
845.117	3165
845.253	3055
845.389	2998
845.525	3108
845.661	3058
845.798	3020
845.934	3123
846.07	3039
846.206	3176
846.342	3313
846.478	3253
846.614	3093
846.75	3032
846.886	3020
847.022	3188
847.158	3112
847.294	3211
847.429	3226
847.565	3192
847.701	3488
847.837	3009
847.972	2967
848.108	3188
848.244	3135
848.379	2963
848.515	2910
848.65	2960
848.786	2941
848.921	3013
849.057	3108
849.192	3123
849.328	3024
849.463	3081
849.598	3043
849.734	3066
849.869	2994
850.004	2883
850.14	2941
850.275	2891
850.41	2838
850.545	2902
850.68	2944
850.815	2956
850.95	2929
851.085	3207
851.22	3116
851.355	3055
851.49	2956
851.625	2990
851.76	3020
851.895	2967
852.03	2891
852.165	3066
852.299	3077
852.434	3127
852.569	3157
852.703	3184
852.838	3279
852.973	3310
853.107	3298
853.242	3100
853.376	3074
853.511	2948
853.645	3043
853.78	3203
853.914	3085
854.048	3081
854.183	3085
854.317	3150
854.451	3302
854.585	3138
854.72	3081
854.854	3233
854.988	3020
855.122	3093
855.256	2971
855.39	3100
855.524	3218
855.658	3169
855.792	3131
855.926	3146
856.06	3211
856.194	3279
856.327	3138
856.461	3089
856.595	3112
856.729	3093
856.862	3226
856.996	3161
857.13	3176
857.263	3211
857.397	3272
857.53	3127
857.664	3146
857.797	3237
857.931	3237
858.064	3123
858.197	3230
858.331	3154
858.464	3089
858.597	3024
858.731	3123
858.864	3104
858.997	3062
859.13	3108
859.263	3161
859.396	3233
859.529	3066
859.662	3043
859.795	3047
859.928	3138
860.061	3302
860.194	3306
860.327	3131
860.46	3070
860.592	3256
860.725	3218
860.858	3253
860.99	3077
861.123	3028
861.256	3036
861.388	3135
861.521	3789
861.653	3043
861.786	2979
861.918	3020
862.05	3085
862.183	3104
862.315	3154
862.447	3173
862.58	3116
862.712	2933
862.844	2842
862.976	3032
863.108	2963
863.24	3272
863.372	2922
863.504	2937
863.636	2956
863.768	3036
863.9	2956
864.032	2910
864.164	2914
864.296	3024
864.428	3077
864.559	3097
864.691	3070
864.823	3017
864.954	3024
865.086	3070
865.217	2986
865.349	2956
865.48	2944
865.612	3001
865.743	3161
865.875	2994
866.006	2967
866.137	2979
866.269	2933
866.4	2948
866.531	2899
866.662	2891
866.793	2883
866.924	2868
867.055	2971
867.186	2891
867.317	2872
867.448	2834
867.579	2845
867.71	2830
867.841	2819
867.972	2883
868.103	2910
868.233	2918
868.364	2902
868.495	2899
868.625	3081
868.756	3146
868.886	2967
869.017	3005
869.147	3165
869.278	3173
869.408	3047
869.539	3001
869.669	3077
869.799	3047
869.929	3119
870.06	3058
870.19	3325
870.32	3279
870.45	3268
870.58	3351
870.71	3454
870.84	3454
870.97	3317
871.1	3241
871.23	3519
871.36	3447
871.489	3329
871.619	3412
871.749	3397
871.879	3435
872.008	3481
872.138	3370
872.267	3268
872.397	3154
872.526	3081
872.656	3032
872.785	3108
872.915	3214
873.044	3264
873.173	3211
873.303	3249
873.432	3245
873.561	3184
873.69	3154
873.819	3123
873.948	3146
874.077	3123
874.206	2998
874.335	3093
874.464	3214
874.593	3378
874.722	3256
874.851	3409
874.979	3340
875.108	3329
875.237	3207
875.365	3142
875.494	3146
875.623	3241
875.751	3077
875.88	3100
876.008	3173
876.136	3233
876.265	3386
876.393	3481
876.521	3428
876.65	3374
876.778	3355
876.906	3211
877.034	3176
877.162	3195
877.29	3161
877.418	3241
877.546	3249
877.674	3249
877.802	3203
877.93	3233
878.058	3176
878.185	3116
878.313	3207
878.441	3165
878.568	3074
878.696	3157
878.824	3233
878.951	3256
879.079	3428
879.206	3603
879.333	3420
879.461	3336
879.588	3382
879.715	3450
879.842	3580
879.97	3382
880.097	3154
880.224	3119
880.351	3218
880.478	3218
880.605	3180
880.732	3161
880.859	3496
880.986	3283
881.112	3329
881.239	3207
881.366	3116
881.493	3081
881.619	3009
881.746	3074
881.872	3089
881.999	3039
882.125	3127
882.252	3241
882.378	3306
882.505	3428
882.631	3302
882.757	3180
882.883	3195
883.01	3199
883.136	3138
883.262	3131
883.388	3070
883.514	3336
883.64	3370
883.766	3321
883.892	3157
884.018	3214
884.143	3389
884.269	3526
884.395	3199
884.52	3199
884.646	3199
884.772	3154
884.897	3058
885.023	3157
885.148	3306
885.274	3431
885.399	3374
885.524	3245
885.65	3283
885.775	3321
885.9	3321
886.025	3439
886.15	3367
886.275	3256
886.4	3256
886.525	3287
886.65	3260
886.775	3283
886.9	3454
887.025	3614
887.149	3382
887.274	3275
887.399	3169
887.523	3233
887.648	3222
887.773	3192
887.897	3348
888.021	3405
888.146	3298
888.27	3393
888.395	3549
888.519	3428
888.643	3462
888.767	3462
888.891	3306
889.015	3233
889.139	3260
889.263	3188
889.387	3382
889.511	3500
889.635	3439
889.759	3298
889.883	3256
890.006	3409
890.13	3511
890.254	3264
890.377	3344
890.501	3214
890.624	3195
890.748	3310
890.871	3127
890.995	3097
891.118	3066
891.241	3214
891.364	3233
891.488	3329
891.611	3192
891.734	3218
891.857	3283
891.98	3218
892.103	3325
892.226	3272
892.349	3173
892.471	3066
892.594	3226
892.717	3291
892.839	3253
892.962	3302
893.085	3351
893.207	3264
893.33	3127
893.452	3203
893.575	3348
893.697	3218
893.819	3462
893.941	3534
894.064	3485
894.186	3268
894.308	3287
894.43	3431
894.552	3515
894.674	3424
894.796	3268
894.918	3321
895.04	3294
895.161	3405
895.283	3382
895.405	3291
895.526	3363
895.648	3412
895.769	3450
895.891	3458
896.012	3424
896.134	3454
896.255	3370
896.376	3351
896.498	3370
896.619	3462
896.74	3355
896.861	3393
896.982	3663
897.103	3831
897.224	3572
897.345	3462
897.466	3458
897.587	3473
897.708	3618
897.828	3549
897.949	3412
898.07	3321
898.19	3401
898.311	3557
898.431	3450
898.552	3496
898.672	3641
898.792	3599
898.913	3538
899.033	3386
899.153	3272
899.273	3195
899.393	3249
899.513	3256
899.633	3321
899.753	3340
899.873	3321
899.993	3378
900.113	3340
900.232	3416
900.352	3363
900.472	3268
900.591	3176
900.711	3317
900.83	3214
900.95	3367
901.069	3469
901.189	3344
901.308	3180
901.427	3142
901.546	3165
901.665	3302
901.784	3336
901.904	3203
902.023	3150
902.141	3020
902.26	3005
902.379	3119
902.498	3074
902.617	3066
902.735	3203
902.854	3245
902.973	3188
903.091	2998
903.21	3036
903.328	3142
903.446	3104
903.565	3112
903.683	3211
903.801	3123
903.919	3218
904.038	3355
904.156	3180
904.274	3279
904.392	3230
904.51	3283
904.627	3332
904.745	3431
904.863	3496
904.981	3264
905.098	3142
905.216	3256
905.334	3287
905.451	3272
905.569	3287
905.686	3397
905.803	3412
905.921	3260
906.038	3435
906.155	3348
906.272	3291
906.389	3351
906.506	3199
906.623	3226
906.74	3230
906.857	3188
906.974	3264
907.091	3424
907.208	3576
907.324	3481
907.441	3393
907.557	3260
907.674	3226
907.79	3203
907.907	3256
908.023	3389
908.139	3389
908.256	3298
908.372	3348
908.488	3348
908.604	3249
908.72	3214
908.836	3272
908.952	3287
909.068	3325
909.184	3496
909.3	3397
909.415	3481
909.531	3500
909.647	3253
909.762	3287
909.878	3279
909.993	3367
910.108	3310
910.224	3310
910.339	3409
910.454	3370
910.57	3321
910.685	3222
910.8	3606
910.915	3553
911.03	3428
911.145	3268
911.259	3283
911.374	3302
911.489	3222
911.604	3199
911.718	3123
911.833	3135
911.947	3043
912.062	2998
912.176	3150
912.291	3180
912.405	3226
912.519	3454
912.633	3450
912.748	3325
912.862	3260
912.976	3180
913.09	3047
913.204	3119
913.318	3237
913.431	3321
913.545	3325
913.659	3447
913.772	3317
913.886	3199
914	3199
914.113	3321
914.226	3416
914.34	3355
914.453	3211
914.566	3416
914.68	3279
914.793	3332
914.906	3199
915.019	3173
915.132	3074
915.245	3146
915.358	3249
915.47	3237
915.583	3264
915.696	3294
915.809	3409
915.921	3412
916.034	3264
916.146	3260
916.259	3245
916.371	3428
916.483	3386
916.595	3245
916.708	3382
916.82	3336
916.932	3336
917.044	3332
917.156	3351
917.268	3279
917.38	3317
917.491	3306
917.603	3367
917.715	3416
917.826	3500
917.938	3363
918.049	3287
918.161	3420
918.272	3561
918.384	3561
918.495	3511
918.606	3306
918.717	3233
918.828	3363
918.939	3431
919.05	3279
919.161	3412
919.272	3211
919.383	3256
919.494	3515
919.604	3656
919.715	3500
919.826	3420
919.936	3462
920.047	3576
920.157	3534
920.267	3781
920.378	3603
920.488	3564
920.598	3842
920.708	3960
920.818	3831
920.928	3827
921.038	4013
921.148	3991
921.258	3705
921.368	3599
921.477	3603
921.587	3538
921.697	3481
921.806	3675
921.916	3485
922.025	3321
922.134	3310
922.244	3340
922.353	3401
922.462	3256
922.571	3272
922.68	3131
922.789	3047
922.898	3142
923.007	3097
923.116	3131
923.224	3211
923.333	3245
923.442	3066
923.55	3081
923.659	3135
923.767	3199
923.876	3127
923.984	3180
924.092	3119
924.201	3226
924.309	3203
924.417	3272
924.525	3169
924.633	3226
924.741	4131
924.849	3051
924.956	3256
925.064	3097
925.172	3028
925.279	3123
925.387	3192
925.494	3207
925.602	3344
925.709	3344
925.816	3173
925.924	3275
926.031	3424
926.138	3355
926.245	3393
926.352	3226
926.459	3389
926.566	3462
926.673	3344
926.779	3230
926.886	3245
926.993	3146
927.099	3093
927.206	3116
927.312	3123
927.419	3207
927.525	3214
927.631	3279
927.737	3119
927.843	3146
927.95	3001
928.056	3135
928.162	3184
928.267	3253
928.373	3850
928.479	3272
928.585	3051
928.69	3195
928.796	3283
928.901	3192
929.007	3074
929.112	3195
929.218	3169
929.323	3127
929.428	3112
929.533	3302
929.638	3070
929.743	3188
929.848	3233
929.953	3188
930.058	3127
930.163	3001
930.267	3055
930.372	3184
930.477	3032
930.581	3256
930.685	3188
930.79	3039
930.894	3112
930.998	3104
931.103	3249
931.207	2967
931.311	2941
931.415	2925
931.519	2800
931.623	2834
