Data from test_V78500241_1622.txt Node
Date: Fri Mar 25 16:26:26 CST 2022
User: usil
Spectrometer: V785-0024
Trigger mode: 0
Integration Time (sec): 4.000000E-1
Scans to average: 1
Nonlinearity correction enabled: false
Boxcar width: 0
Storing dark spectrum: false
XAxis mode: Wavelengths
Number of Pixels in Spectrum: 1024
>>>>>Begin Spectral Data<<<<<
801.071	2895
801.214	2887
801.356	2868
801.499	2914
801.641	2864
801.783	2948
801.926	3066
802.068	2944
802.211	3017
802.353	3020
802.496	2937
802.638	3017
802.78	3028
802.923	3089
803.065	3051
803.208	2918
803.35	2914
803.492	2933
803.635	2941
803.777	2785
803.919	2876
804.061	3222
804.204	2933
804.346	2864
804.488	2845
804.63	2975
804.773	2864
804.915	2933
805.057	3081
805.199	2937
805.341	3017
805.483	3036
805.626	2971
805.768	2956
805.91	3066
806.052	3112
806.194	3066
806.336	3275
806.478	3039
806.62	2986
806.762	2960
806.904	3039
807.046	3176
807.188	3009
807.33	2906
807.472	2986
807.614	2925
807.756	2963
807.898	2929
808.04	2868
808.182	2948
808.324	2986
808.465	2868
808.607	2845
808.749	2781
808.891	2872
809.033	2982
809.174	2990
809.316	2929
809.458	2868
809.6	2781
809.741	2804
809.883	2758
810.025	2876
810.166	2849
810.308	2849
810.45	2868
810.591	2826
810.733	2750
810.875	2861
811.016	2785
811.158	2750
811.299	2823
811.441	2918
811.582	2925
811.724	2842
811.865	2834
812.007	2906
812.148	2826
812.29	2830
812.431	2868
812.573	2944
812.714	2967
812.855	3058
812.997	3047
813.138	3146
813.279	2998
813.421	2998
813.562	2960
813.703	2880
813.845	2902
813.986	2785
814.127	2712
814.268	2815
814.41	2864
814.551	2800
814.692	2853
814.833	2864
814.974	2910
815.115	2971
815.256	2838
815.397	2781
815.539	2868
815.68	2762
815.821	2811
815.962	2944
816.103	2925
816.244	2887
816.385	2853
816.526	2979
816.666	2933
816.807	2727
816.948	2876
817.089	2899
817.23	2864
817.371	2800
817.512	2804
817.653	2815
817.793	2853
817.934	2883
818.075	2994
818.216	2990
818.356	3066
818.497	2861
818.638	2792
818.778	2788
818.919	2800
819.06	2766
819.2	2849
819.341	2788
819.481	2804
819.622	2944
819.762	3112
819.903	3005
820.043	2944
820.184	2880
820.324	2902
820.465	3020
820.605	3024
820.746	3039
820.886	2925
821.026	3081
821.167	3123
821.307	3253
821.447	3268
821.588	3195
821.728	3176
821.868	3184
822.008	3108
822.149	3157
822.289	3226
822.429	3070
822.569	3093
822.709	3180
822.849	2998
822.99	3051
823.13	3138
823.27	3199
823.41	3123
823.55	3127
823.69	3180
823.83	3184
823.97	3116
824.11	3028
824.25	2990
824.389	3081
824.529	3116
824.669	3020
824.809	3222
824.949	3230
825.089	3249
825.228	3146
825.368	2967
825.508	2952
825.648	2975
825.787	3005
825.927	3005
826.067	2960
826.206	2960
826.346	3047
826.485	3070
826.625	3119
826.765	3313
826.904	3237
827.044	2994
827.183	2925
827.323	2849
827.462	2967
827.601	2948
827.741	2902
827.88	2956
828.02	2842
828.159	2979
828.298	3024
828.437	3123
828.577	3028
828.716	3214
828.855	3066
828.994	2914
829.134	2857
829.273	2899
829.412	2861
829.551	2845
829.69	2861
829.829	3001
829.968	3119
830.107	3039
830.246	3039
830.385	2902
830.524	2861
830.663	2842
830.802	2762
830.941	2667
831.08	2651
831.219	2785
831.357	2754
831.496	2922
831.635	2701
831.774	2617
831.913	2644
832.051	2571
832.19	2568
832.329	2697
832.467	2461
832.606	2488
832.744	2583
832.883	2587
833.022	2560
833.16	2678
833.299	2667
833.437	2682
833.576	2705
833.714	2705
833.852	2727
833.991	2750
834.129	2826
834.267	2853
834.406	2788
834.544	2876
834.682	2902
834.821	2872
834.959	3062
835.097	2933
835.235	3055
835.373	2986
835.511	3005
835.65	2914
835.788	2956
835.926	2807
836.064	2845
836.202	2826
836.34	3077
836.478	3138
836.615	3051
836.753	3112
836.891	3226
837.029	3180
837.167	3089
837.305	3077
837.443	3047
837.58	2963
837.718	3123
837.856	3047
837.993	3020
838.131	3127
838.269	3097
838.406	3104
838.544	3055
838.681	2933
838.819	2914
838.956	2815
839.094	2815
839.231	2880
839.369	3020
839.506	3370
839.643	3207
839.781	3028
839.918	2956
840.055	3039
840.193	3036
840.33	3081
840.467	3081
840.604	3138
840.742	3378
840.879	3039
841.016	3085
841.153	3131
841.29	3340
841.427	3279
841.564	3249
841.701	3294
841.838	3233
841.975	3138
842.112	3233
842.249	3085
842.385	3047
842.522	3230
842.659	3055
842.796	3028
842.933	3100
843.069	3051
843.206	3085
843.343	3169
843.479	3108
843.616	3116
843.752	2899
843.889	2880
844.025	3066
844.162	2849
844.298	3108
844.435	2975
844.571	2925
844.708	3108
844.844	3226
844.98	3222
845.117	3176
845.253	3043
845.389	3009
845.525	3081
845.661	3070
845.798	3020
845.934	3116
846.07	3024
846.206	3233
846.342	3302
846.478	3211
846.614	3077
846.75	3043
846.886	3020
847.022	3268
847.158	3138
847.294	3188
847.429	3233
847.565	3154
847.701	3477
847.837	3047
847.972	3043
848.108	3207
848.244	3108
848.379	2986
848.515	2944
848.65	2929
848.786	2990
848.921	3013
849.057	3127
849.192	3161
849.328	3058
849.463	3138
849.598	3051
849.734	3066
849.869	3001
850.004	2910
850.14	2941
850.275	2895
850.41	2861
850.545	2902
850.68	2929
850.815	2971
850.95	2944
851.085	3207
851.22	3135
851.355	3028
851.49	3001
851.625	3009
851.76	3001
851.895	2944
852.03	2891
852.165	3028
852.299	3093
852.434	3184
852.569	3135
852.703	3165
852.838	3241
852.973	3329
853.107	3298
853.242	3135
853.376	3100
853.511	2956
853.645	3036
853.78	3199
853.914	3135
854.048	3097
854.183	3093
854.317	3138
854.451	3249
854.585	3138
854.72	3089
854.854	3214
854.988	3062
855.122	3051
855.256	2986
855.39	3112
855.524	3253
855.658	3142
855.792	3142
855.926	3165
856.06	3256
856.194	3260
856.327	3154
856.461	3058
856.595	3051
856.729	3043
856.862	3222
856.996	3150
857.13	3218
857.263	3207
857.397	3230
857.53	3097
857.664	3161
857.797	3203
857.931	3283
858.064	3165
858.197	3199
858.331	3142
858.464	3085
858.597	2994
858.731	3089
858.864	3142
858.997	3112
859.13	3188
859.263	3142
859.396	3241
859.529	3081
859.662	3043
859.795	3009
859.928	3123
860.061	3256
860.194	3253
860.327	3104
860.46	3108
860.592	3222
860.725	3264
860.858	3249
860.99	3066
861.123	3066
861.256	3024
861.388	3146
861.521	3884
861.653	3028
861.786	3013
861.918	2986
862.05	3039
862.183	3108
862.315	3135
862.447	3173
862.58	3066
862.712	2937
862.844	2868
862.976	2963
863.108	2994
863.24	3302
863.372	2880
863.504	2975
863.636	2933
863.768	3024
863.9	2960
864.032	2918
864.164	2944
864.296	3028
864.428	3070
864.559	3077
864.691	3058
864.823	3051
864.954	3013
865.086	3024
865.217	3013
865.349	2937
865.48	2998
865.612	3039
865.743	3157
865.875	2975
866.006	2902
866.137	2975
866.269	2971
866.4	2902
866.531	2914
866.662	2883
866.793	2906
866.924	2864
867.055	2990
867.186	2922
867.317	2868
867.448	2823
867.579	2868
867.71	2845
867.841	2830
867.972	2910
868.103	2891
868.233	2872
868.364	2864
868.495	2937
868.625	3039
868.756	3154
868.886	2956
869.017	3009
869.147	3165
869.278	3165
869.408	3024
869.539	3001
869.669	3100
869.799	3013
869.929	3142
870.06	3093
870.19	3329
870.32	3294
870.45	3279
870.58	3374
870.71	3447
870.84	3454
870.97	3268
871.1	3230
871.23	3439
871.36	3454
871.489	3348
871.619	3397
871.749	3374
871.879	3416
872.008	3477
872.138	3317
872.267	3275
872.397	3146
872.526	3097
872.656	3001
872.785	3097
872.915	3264
873.044	3298
873.173	3211
873.303	3226
873.432	3279
873.561	3245
873.69	3127
873.819	3161
873.948	3184
874.077	3127
874.206	3028
874.335	3074
874.464	3199
874.593	3321
874.722	3226
874.851	3386
874.979	3329
875.108	3283
875.237	3169
875.365	3180
875.494	3150
875.623	3233
875.751	3089
875.88	3138
876.008	3184
876.136	3237
876.265	3370
876.393	3473
876.521	3412
876.65	3382
876.778	3363
876.906	3264
877.034	3203
877.162	3241
877.29	3176
877.418	3245
877.546	3241
877.674	3268
877.802	3291
877.93	3222
878.058	3157
878.185	3097
878.313	3195
878.441	3222
878.568	3070
878.696	3112
878.824	3211
878.951	3279
879.079	3405
879.206	3618
879.333	3466
879.461	3348
879.588	3397
879.715	3481
879.842	3584
879.97	3397
880.097	3169
880.224	3104
880.351	3199
880.478	3222
880.605	3195
880.732	3180
880.859	3504
880.986	3325
881.112	3351
881.239	3195
881.366	3135
881.493	3058
881.619	2982
881.746	3062
881.872	3066
881.999	3066
882.125	3123
882.252	3260
882.378	3260
882.505	3397
882.631	3275
882.757	3135
882.883	3203
883.01	3207
883.136	3154
883.262	3081
883.388	3062
883.514	3348
883.64	3336
883.766	3264
883.892	3180
884.018	3218
884.143	3397
884.269	3549
884.395	3188
884.52	3165
884.646	3154
884.772	3123
884.897	3150
885.023	3165
885.148	3348
885.274	3412
885.399	3355
885.524	3245
885.65	3192
885.775	3317
885.9	3253
886.025	3416
886.15	3374
886.275	3298
886.4	3230
886.525	3302
886.65	3237
886.775	3291
886.9	3496
887.025	3652
887.149	3401
887.274	3241
887.399	3154
887.523	3188
887.648	3165
887.773	3214
887.897	3367
888.021	3359
888.146	3313
888.27	3412
888.395	3515
888.519	3450
888.643	3450
888.767	3462
888.891	3302
889.015	3275
889.139	3272
889.263	3260
889.387	3405
889.511	3507
889.635	3424
889.759	3298
889.883	3268
890.006	3405
890.13	3511
890.254	3245
890.377	3321
890.501	3214
890.624	3184
890.748	3310
890.871	3176
890.995	3116
891.118	3066
891.241	3188
891.364	3207
891.488	3306
891.611	3241
891.734	3195
891.857	3310
891.98	3264
892.103	3306
892.226	3256
892.349	3230
892.471	3123
892.594	3256
892.717	3272
892.839	3291
892.962	3275
893.085	3348
893.207	3294
893.33	3131
893.452	3233
893.575	3329
893.697	3207
893.819	3462
893.941	3488
894.064	3424
894.186	3222
894.308	3275
894.43	3397
894.552	3534
894.674	3450
894.796	3241
894.918	3291
895.04	3306
895.161	3435
895.283	3393
895.405	3287
895.526	3382
895.648	3405
895.769	3431
895.891	3424
896.012	3485
896.134	3439
896.255	3386
896.376	3420
896.498	3367
896.619	3428
896.74	3332
896.861	3393
896.982	3671
897.103	3831
897.224	3610
897.345	3534
897.466	3439
897.587	3458
897.708	3564
897.828	3523
897.949	3420
898.07	3336
898.19	3420
898.311	3584
898.431	3458
898.552	3538
898.672	3557
898.792	3561
898.913	3526
899.033	3393
899.153	3279
899.273	3211
899.393	3256
899.513	3298
899.633	3306
899.753	3340
899.873	3302
899.993	3367
900.113	3348
900.232	3412
900.352	3317
900.472	3253
900.591	3214
900.711	3313
900.83	3226
900.95	3416
901.069	3481
901.189	3321
901.308	3173
901.427	3180
901.546	3207
901.665	3317
901.784	3325
901.904	3184
902.023	3116
902.141	2994
902.26	2986
902.379	3127
902.498	3055
902.617	3066
902.735	3233
902.854	3222
902.973	3165
903.091	3055
903.21	3062
903.328	3138
903.446	3104
903.565	3077
903.683	3195
903.801	3104
903.919	3199
904.038	3264
904.156	3135
904.274	3294
904.392	3226
904.51	3260
904.627	3351
904.745	3420
904.863	3485
904.981	3230
905.098	3157
905.216	3241
905.334	3313
905.451	3298
905.569	3291
905.686	3458
905.803	3450
905.921	3298
906.038	3443
906.155	3389
906.272	3294
906.389	3336
906.506	3207
906.623	3199
906.74	3283
906.857	3199
906.974	3294
907.091	3462
907.208	3542
907.324	3424
907.441	3389
907.557	3195
907.674	3237
907.79	3192
907.907	3241
908.023	3389
908.139	3378
908.256	3317
908.372	3401
908.488	3340
908.604	3279
908.72	3237
908.836	3275
908.952	3279
909.068	3359
909.184	3420
909.3	3378
909.415	3488
909.531	3469
909.647	3268
909.762	3279
909.878	3256
909.993	3332
910.108	3359
910.224	3291
910.339	3412
910.454	3329
910.57	3264
910.685	3241
910.8	3584
910.915	3553
911.03	3435
911.145	3268
911.259	3317
911.374	3294
911.489	3233
911.604	3207
911.718	3085
911.833	3165
911.947	3039
912.062	2975
912.176	3173
912.291	3203
912.405	3203
912.519	3382
912.633	3454
912.748	3336
912.862	3260
912.976	3195
913.09	3081
913.204	3169
913.318	3226
913.431	3310
913.545	3317
913.659	3416
913.772	3317
913.886	3184
914	3188
914.113	3370
914.226	3412
914.34	3382
914.453	3233
914.566	3416
914.68	3283
914.793	3291
914.906	3127
915.019	3123
915.132	3081
915.245	3169
915.358	3241
915.47	3214
915.583	3253
915.696	3287
915.809	3428
915.921	3431
916.034	3268
916.146	3287
916.259	3199
916.371	3389
916.483	3329
916.595	3287
916.708	3355
916.82	3336
916.932	3336
917.044	3355
917.156	3306
917.268	3230
917.38	3302
917.491	3283
917.603	3351
917.715	3431
917.826	3447
917.938	3393
918.049	3268
918.161	3389
918.272	3545
918.384	3549
918.495	3507
918.606	3313
918.717	3256
918.828	3370
918.939	3393
919.05	3313
919.161	3386
919.272	3211
919.383	3287
919.494	3481
919.604	3667
919.715	3462
919.826	3439
919.936	3481
920.047	3587
920.157	3553
920.267	3743
920.378	3625
920.488	3557
920.598	3755
920.708	3922
920.818	3861
920.928	3800
921.038	4013
921.148	4021
921.258	3667
921.368	3675
921.477	3603
921.587	3492
921.697	3466
921.806	3625
921.916	3526
922.025	3355
922.134	3332
922.244	3329
922.353	3401
922.462	3260
922.571	3199
922.68	3131
922.789	3077
922.898	3169
923.007	3081
923.116	3195
923.224	3176
923.333	3173
923.442	3108
923.55	3074
923.659	3142
923.767	3237
923.876	3135
923.984	3230
924.092	3146
924.201	3188
924.309	3203
924.417	3264
924.525	3184
924.633	3237
924.741	4234
924.849	3047
924.956	3283
925.064	3058
925.172	3032
925.279	3104
925.387	3161
925.494	3222
925.602	3367
925.709	3302
925.816	3241
925.924	3283
926.031	3397
926.138	3340
926.245	3351
926.352	3222
926.459	3420
926.566	3428
926.673	3287
926.779	3230
926.886	3241
926.993	3180
927.099	3127
927.206	3104
927.312	3108
927.419	3226
927.525	3199
927.631	3287
927.737	3165
927.843	3100
927.95	3013
928.056	3142
928.162	3184
928.267	3249
928.373	3835
928.479	3344
928.585	3039
928.69	3165
928.796	3253
928.901	3173
929.007	3058
929.112	3211
929.218	3188
929.323	3180
929.428	3123
929.533	3275
929.638	3127
929.743	3176
929.848	3249
929.953	3203
930.058	3119
930.163	3028
930.267	3028
930.372	3176
930.477	3055
930.581	3348
930.685	3173
930.79	3058
930.894	3116
930.998	3089
931.103	3317
931.207	2956
931.311	2967
931.415	2910
931.519	2766
931.623	2781
