Data from test_V78500241_1979.txt Node
Date: Fri Mar 25 16:28:54 CST 2022
User: usil
Spectrometer: V785-0024
Trigger mode: 0
Integration Time (sec): 4.000000E-1
Scans to average: 1
Nonlinearity correction enabled: false
Boxcar width: 0
Storing dark spectrum: false
XAxis mode: Wavelengths
Number of Pixels in Spectrum: 1024
>>>>>Begin Spectral Data<<<<<
801.071	2944
801.214	2895
801.356	2853
801.499	2929
801.641	2902
801.783	2956
801.926	3032
802.068	2994
802.211	2998
802.353	3036
802.496	2986
802.638	2963
802.78	3013
802.923	3062
803.065	2990
803.208	2849
803.35	2941
803.492	2952
803.635	2956
803.777	2750
803.919	2838
804.061	3211
804.204	2948
804.346	2883
804.488	2887
804.63	2979
804.773	2815
804.915	2906
805.057	3070
805.199	2880
805.341	2990
805.483	3009
805.626	3013
805.768	2941
805.91	3062
806.052	3142
806.194	3013
806.336	3226
806.478	3062
806.62	2922
806.762	2967
806.904	3043
807.046	3142
807.188	3024
807.33	2899
807.472	2990
807.614	2853
807.756	2963
807.898	2937
808.04	2895
808.182	2956
808.324	2956
808.465	2891
808.607	2906
808.749	2800
808.891	2826
809.033	2979
809.174	2998
809.316	2853
809.458	2899
809.6	2773
809.741	2743
809.883	2769
810.025	2815
810.166	2823
810.308	2842
810.45	2811
810.591	2788
810.733	2754
810.875	2830
811.016	2769
811.158	2773
811.299	2773
811.441	2914
811.582	2891
811.724	2857
811.865	2819
812.007	2910
812.148	2872
812.29	2834
812.431	2902
812.573	2941
812.714	2944
812.855	3028
812.997	3074
813.138	3135
813.279	3013
813.421	2998
813.562	2941
813.703	2830
813.845	2891
813.986	2769
814.127	2708
814.268	2807
814.41	2826
814.551	2800
814.692	2876
814.833	2807
814.974	2864
815.115	2937
815.256	2830
815.397	2804
815.539	2861
815.68	2769
815.821	2807
815.962	2895
816.103	2918
816.244	2876
816.385	2845
816.526	2933
816.666	2922
816.807	2762
816.948	2880
817.089	2914
817.23	2823
817.371	2762
817.512	2777
817.653	2872
817.793	2823
817.934	2853
818.075	2933
818.216	2933
818.356	2994
818.497	2887
818.638	2792
818.778	2800
818.919	2792
819.06	2731
819.2	2842
819.341	2823
819.481	2785
819.622	2963
819.762	3104
819.903	3077
820.043	2929
820.184	2887
820.324	2876
820.465	3036
820.605	2990
820.746	3001
820.886	2937
821.026	3112
821.167	3176
821.307	3222
821.447	3218
821.588	3233
821.728	3192
821.868	3150
822.008	3062
822.149	3146
822.289	3230
822.429	3074
822.569	3093
822.709	3154
822.849	3013
822.99	3074
823.13	3150
823.27	3207
823.41	3112
823.55	3173
823.69	3135
823.83	3169
823.97	3085
824.11	2971
824.25	2967
824.389	3036
824.529	3112
824.669	3077
824.809	3108
824.949	3256
825.089	3211
825.228	3135
825.368	3013
825.508	2994
825.648	2982
825.787	2982
825.927	3013
826.067	2929
826.206	2952
826.346	3043
826.485	3123
826.625	3097
826.765	3241
826.904	3233
827.044	3028
827.183	2952
827.323	2857
827.462	2975
827.601	2929
827.741	2887
827.88	2956
828.02	2834
828.159	2967
828.298	3055
828.437	3119
828.577	3058
828.716	3218
828.855	3062
828.994	2872
829.134	2872
829.273	2914
829.412	2834
829.551	2842
829.69	2883
829.829	3005
829.968	3093
830.107	2998
830.246	3009
830.385	2872
830.524	2883
830.663	2819
830.802	2705
830.941	2640
831.08	2648
831.219	2746
831.357	2731
831.496	2937
831.635	2705
831.774	2648
831.913	2651
832.051	2560
832.19	2568
832.329	2693
832.467	2541
832.606	2473
832.744	2598
832.883	2587
833.022	2602
833.16	2644
833.299	2659
833.437	2674
833.576	2663
833.714	2727
833.852	2731
833.991	2777
834.129	2834
834.267	2792
834.406	2815
834.544	2868
834.682	2891
834.821	2857
834.959	3051
835.097	2883
835.235	3043
835.373	2975
835.511	2982
835.65	2948
835.788	2929
835.926	2777
836.064	2781
836.202	2853
836.34	3093
836.478	3127
836.615	3039
836.753	3138
836.891	3161
837.029	3146
837.167	3077
837.305	3055
837.443	3024
837.58	2956
837.718	3138
837.856	3085
837.993	2975
838.131	3116
838.269	3112
838.406	3051
838.544	3070
838.681	2948
838.819	2922
838.956	2766
839.094	2815
839.231	2906
839.369	3009
839.506	3378
839.643	3184
839.781	3020
839.918	2933
840.055	3024
840.193	3039
840.33	3066
840.467	3066
840.604	3165
840.742	3397
840.879	3009
841.016	3070
841.153	3108
841.29	3340
841.427	3302
841.564	3279
841.701	3336
841.838	3195
841.975	3192
842.112	3188
842.249	3055
842.385	3070
842.522	3245
842.659	3104
842.796	3043
842.933	3051
843.069	3020
843.206	3036
843.343	3169
843.479	3112
843.616	3119
843.752	2918
843.889	2872
844.025	3081
844.162	2864
844.298	3081
844.435	2963
844.571	2910
844.708	3077
844.844	3230
844.98	3214
845.117	3192
845.253	3039
845.389	2990
845.525	3051
845.661	3100
845.798	3009
845.934	3127
846.07	3028
846.206	3260
846.342	3313
846.478	3199
846.614	3077
846.75	3077
846.886	3017
847.022	3237
847.158	3119
847.294	3176
847.429	3226
847.565	3237
847.701	3458
847.837	3043
847.972	2967
848.108	3138
848.244	3119
848.379	2986
848.515	2941
848.65	2929
848.786	2960
848.921	3024
849.057	3093
849.192	3131
849.328	3077
849.463	3097
849.598	3055
849.734	3055
849.869	2971
850.004	2899
850.14	2918
850.275	2899
850.41	2842
850.545	2876
850.68	2929
850.815	2986
850.95	2933
851.085	3161
851.22	3123
851.355	3009
851.49	2929
851.625	3001
851.76	3001
851.895	2960
852.03	2883
852.165	3017
852.299	3100
852.434	3169
852.569	3123
852.703	3165
852.838	3260
852.973	3294
853.107	3336
853.242	3150
853.376	3081
853.511	2963
853.645	3020
853.78	3272
853.914	3097
854.048	3135
854.183	3055
854.317	3192
854.451	3298
854.585	3119
854.72	3081
854.854	3222
854.988	3077
855.122	3093
855.256	2963
855.39	3135
855.524	3249
855.658	3180
855.792	3169
855.926	3199
856.06	3192
856.194	3260
856.327	3150
856.461	3077
856.595	3085
856.729	3085
856.862	3188
856.996	3119
857.13	3180
857.263	3211
857.397	3264
857.53	3104
857.664	3211
857.797	3222
857.931	3218
858.064	3146
858.197	3195
858.331	3108
858.464	3089
858.597	2944
858.731	3127
858.864	3127
858.997	3104
859.13	3138
859.263	3161
859.396	3230
859.529	3089
859.662	3028
859.795	3024
859.928	3116
860.061	3283
860.194	3275
860.327	3127
860.46	3089
860.592	3203
860.725	3268
860.858	3272
860.99	3116
861.123	3036
861.256	3058
861.388	3157
861.521	3857
861.653	2994
861.786	2971
861.918	2994
862.05	3077
862.183	3077
862.315	3176
862.447	3218
862.58	3108
862.712	2982
862.844	2891
862.976	3009
863.108	2986
863.24	3420
863.372	2864
863.504	2975
863.636	2918
863.768	3017
863.9	2963
864.032	2922
864.164	2944
864.296	3036
864.428	3058
864.559	3097
864.691	3055
864.823	3028
864.954	3043
865.086	3032
865.217	3001
865.349	2975
865.48	3009
865.612	3001
865.743	3135
865.875	2944
866.006	2925
866.137	2922
866.269	2929
866.4	2922
866.531	2914
866.662	2914
866.793	2899
866.924	2902
867.055	2960
867.186	2922
867.317	2883
867.448	2853
867.579	2853
867.71	2834
867.841	2838
867.972	2876
868.103	2883
868.233	2872
868.364	2876
868.495	2918
868.625	3058
868.756	3131
868.886	2933
869.017	3024
869.147	3176
869.278	3154
869.408	3055
869.539	3005
869.669	3070
869.799	3005
869.929	3097
870.06	3093
870.19	3317
870.32	3253
870.45	3329
870.58	3351
870.71	3473
870.84	3485
870.97	3321
871.1	3233
871.23	3473
871.36	3492
871.489	3374
871.619	3389
871.749	3382
871.879	3412
872.008	3507
872.138	3344
872.267	3268
872.397	3146
872.526	3093
872.656	2986
872.785	3062
872.915	3245
873.044	3332
873.173	3245
873.303	3211
873.432	3233
873.561	3207
873.69	3112
873.819	3135
873.948	3184
874.077	3100
874.206	3066
874.335	3081
874.464	3199
874.593	3344
874.722	3233
874.851	3412
874.979	3313
875.108	3336
875.237	3211
875.365	3123
875.494	3112
875.623	3260
875.751	3055
875.88	3104
876.008	3138
876.136	3169
876.265	3359
876.393	3473
876.521	3409
876.65	3382
876.778	3363
876.906	3268
877.034	3226
877.162	3207
877.29	3150
877.418	3226
877.546	3214
877.674	3226
877.802	3218
877.93	3249
878.058	3135
878.185	3119
878.313	3188
878.441	3218
878.568	3013
878.696	3146
878.824	3207
878.951	3332
879.079	3439
879.206	3580
879.333	3389
879.461	3359
879.588	3367
879.715	3496
879.842	3572
879.97	3374
880.097	3154
880.224	3116
880.351	3192
880.478	3176
880.605	3195
880.732	3169
880.859	3477
880.986	3279
881.112	3344
881.239	3154
881.366	3051
881.493	3051
881.619	2998
881.746	3097
881.872	3081
881.999	3131
882.125	3123
882.252	3226
882.378	3291
882.505	3439
882.631	3272
882.757	3138
882.883	3233
883.01	3188
883.136	3138
883.262	3093
883.388	3074
883.514	3275
883.64	3374
883.766	3313
883.892	3169
884.018	3245
884.143	3412
884.269	3534
884.395	3203
884.52	3104
884.646	3184
884.772	3127
884.897	3108
885.023	3176
885.148	3344
885.274	3393
885.399	3355
885.524	3317
885.65	3268
885.775	3363
885.9	3241
886.025	3435
886.15	3348
886.275	3260
886.4	3207
886.525	3313
886.65	3253
886.775	3294
886.9	3488
887.025	3644
887.149	3393
887.274	3226
887.399	3169
887.523	3180
887.648	3192
887.773	3192
887.897	3363
888.021	3401
888.146	3272
888.27	3439
888.395	3511
888.519	3405
888.643	3409
888.767	3473
888.891	3321
889.015	3211
889.139	3279
889.263	3268
889.387	3363
889.511	3519
889.635	3469
889.759	3272
889.883	3306
890.006	3389
890.13	3469
890.254	3253
890.377	3374
890.501	3214
890.624	3195
890.748	3317
890.871	3176
890.995	3089
891.118	3032
891.241	3154
891.364	3188
891.488	3317
891.611	3180
891.734	3226
891.857	3256
891.98	3211
892.103	3321
892.226	3272
892.349	3169
892.471	3093
892.594	3218
892.717	3260
892.839	3283
892.962	3329
893.085	3378
893.207	3310
893.33	3142
893.452	3199
893.575	3340
893.697	3237
893.819	3485
893.941	3515
894.064	3397
894.186	3291
894.308	3245
894.43	3428
894.552	3580
894.674	3420
894.796	3256
894.918	3298
895.04	3256
895.161	3454
895.283	3401
895.405	3260
895.526	3370
895.648	3416
895.769	3416
895.891	3428
896.012	3458
896.134	3458
896.255	3389
896.376	3348
896.498	3378
896.619	3405
896.74	3351
896.861	3389
896.982	3671
897.103	3838
897.224	3595
897.345	3515
897.466	3428
897.587	3469
897.708	3603
897.828	3526
897.949	3439
898.07	3317
898.19	3389
898.311	3606
898.431	3409
898.552	3500
898.672	3610
898.792	3584
898.913	3485
899.033	3401
899.153	3283
899.273	3192
899.393	3287
899.513	3283
899.633	3325
899.753	3321
899.873	3275
899.993	3393
900.113	3344
900.232	3367
900.352	3321
900.472	3260
900.591	3237
900.711	3317
900.83	3237
900.95	3405
901.069	3450
901.189	3363
901.308	3180
901.427	3097
901.546	3157
901.665	3264
901.784	3329
901.904	3226
902.023	3123
902.141	3024
902.26	2963
902.379	3112
902.498	3058
902.617	3074
902.735	3165
902.854	3233
902.973	3195
903.091	3047
903.21	3051
903.328	3097
903.446	3070
903.565	3104
903.683	3188
903.801	3100
903.919	3241
904.038	3279
904.156	3146
904.274	3268
904.392	3253
904.51	3294
904.627	3306
904.745	3412
904.863	3447
904.981	3222
905.098	3157
905.216	3211
905.334	3355
905.451	3298
905.569	3283
905.686	3401
905.803	3393
905.921	3321
906.038	3416
906.155	3363
906.272	3226
906.389	3310
906.506	3211
906.623	3218
906.74	3279
906.857	3176
906.974	3253
907.091	3466
907.208	3568
907.324	3485
907.441	3389
907.557	3233
907.674	3256
907.79	3161
907.907	3268
908.023	3416
908.139	3363
908.256	3325
908.372	3351
908.488	3351
908.604	3237
908.72	3214
908.836	3283
908.952	3268
909.068	3329
909.184	3496
909.3	3393
909.415	3515
909.531	3504
909.647	3222
909.762	3317
909.878	3245
909.993	3348
910.108	3332
910.224	3386
910.339	3420
910.454	3363
910.57	3310
910.685	3230
910.8	3622
910.915	3534
911.03	3496
911.145	3294
911.259	3313
911.374	3340
911.489	3283
911.604	3275
911.718	3161
911.833	3169
911.947	3047
912.062	2982
912.176	3195
912.291	3237
912.405	3253
912.519	3496
912.633	3534
912.748	3355
912.862	3317
912.976	3218
913.09	3093
913.204	3207
913.318	3264
913.431	3412
913.545	3378
913.659	3420
913.772	3355
913.886	3260
914	3256
914.113	3397
914.226	3477
914.34	3416
914.453	3253
914.566	3443
914.68	3340
914.793	3359
914.906	3180
915.019	3131
915.132	3074
915.245	3211
915.358	3207
915.47	3279
915.583	3283
915.696	3340
915.809	3428
915.921	3481
916.034	3306
916.146	3283
916.259	3287
916.371	3389
916.483	3428
916.595	3306
916.708	3355
916.82	3363
916.932	3378
917.044	3386
917.156	3393
917.268	3260
917.38	3291
917.491	3332
917.603	3370
917.715	3507
917.826	3469
917.938	3378
918.049	3291
918.161	3504
918.272	3564
918.384	3679
918.495	3523
918.606	3359
918.717	3344
918.828	3409
918.939	3447
919.05	3294
919.161	3420
919.272	3222
919.383	3287
919.494	3542
919.604	3717
919.715	3519
919.826	3439
919.936	3454
920.047	3625
920.157	3599
920.267	3812
920.378	3610
920.488	3606
920.598	3816
920.708	3987
920.818	3854
920.928	3865
921.038	4021
921.148	4036
921.258	3679
921.368	3679
921.477	3625
921.587	3568
921.697	3458
921.806	3671
921.916	3564
922.025	3351
922.134	3412
922.244	3344
922.353	3428
922.462	3294
922.571	3279
922.68	3142
922.789	3127
922.898	3165
923.007	3131
923.116	3222
923.224	3214
923.333	3218
923.442	3104
923.55	3116
923.659	3169
923.767	3272
923.876	3138
923.984	3230
924.092	3123
924.201	3279
924.309	3226
924.417	3272
924.525	3169
924.633	3253
924.741	4219
924.849	3077
924.956	3283
925.064	3081
925.172	3070
925.279	3112
925.387	3214
925.494	3214
925.602	3363
925.709	3321
925.816	3226
925.924	3306
926.031	3389
926.138	3363
926.245	3378
926.352	3268
926.459	3424
926.566	3519
926.673	3359
926.779	3279
926.886	3268
926.993	3195
927.099	3150
927.206	3154
927.312	3131
927.419	3294
927.525	3222
927.631	3272
927.737	3188
927.843	3165
927.95	3043
928.056	3165
928.162	3207
928.267	3310
928.373	3827
928.479	3348
928.585	3100
928.69	3253
928.796	3287
928.901	3192
929.007	3108
929.112	3211
929.218	3195
929.323	3154
929.428	3184
929.533	3321
929.638	3146
929.743	3218
929.848	3298
929.953	3249
930.058	3180
930.163	3051
930.267	3089
930.372	3192
930.477	3051
930.581	3374
930.685	3233
930.79	3074
930.894	3131
930.998	3138
931.103	3287
931.207	2986
931.311	2994
931.415	2979
931.519	2815
931.623	2861
