Data from test_V78500241_1369.txt Node
Date: Fri Mar 25 16:24:41 CST 2022
User: usil
Spectrometer: V785-0024
Trigger mode: 0
Integration Time (sec): 4.000000E-1
Scans to average: 1
Nonlinearity correction enabled: false
Boxcar width: 0
Storing dark spectrum: false
XAxis mode: Wavelengths
Number of Pixels in Spectrum: 1024
>>>>>Begin Spectral Data<<<<<
801.071	2902
801.214	2941
801.356	2883
801.499	2876
801.641	2899
801.783	2902
801.926	3009
802.068	3001
802.211	3001
802.353	3024
802.496	2933
802.638	2994
802.78	2994
802.923	3085
803.065	2998
803.208	2899
803.35	2933
803.492	2952
803.635	2918
803.777	2766
803.919	2842
804.061	3195
804.204	2941
804.346	2899
804.488	2842
804.63	3017
804.773	2857
804.915	2933
805.057	3020
805.199	2883
805.341	3001
805.483	3039
805.626	3005
805.768	2979
805.91	3066
806.052	3100
806.194	3047
806.336	3192
806.478	3047
806.62	2925
806.762	2941
806.904	3024
807.046	3165
807.188	2960
807.33	2891
807.472	2998
807.614	2918
807.756	2956
807.898	2910
808.04	2910
808.182	2975
808.324	2941
808.465	2868
808.607	2880
808.749	2800
808.891	2838
809.033	3017
809.174	2967
809.316	2887
809.458	2849
809.6	2743
809.741	2811
809.883	2769
810.025	2845
810.166	2853
810.308	2834
810.45	2834
810.591	2773
810.733	2773
810.875	2819
811.016	2773
811.158	2762
811.299	2785
811.441	2918
811.582	2895
811.724	2796
811.865	2819
812.007	2883
812.148	2918
812.29	2845
812.431	2918
812.573	2895
812.714	2975
812.855	3055
812.997	3032
813.138	3100
813.279	3001
813.421	2979
813.562	2960
813.703	2902
813.845	2880
813.986	2792
814.127	2705
814.268	2807
814.41	2842
814.551	2815
814.692	2895
814.833	2819
814.974	2906
815.115	2960
815.256	2815
815.397	2800
815.539	2826
815.68	2777
815.821	2800
815.962	2963
816.103	2937
816.244	2853
816.385	2849
816.526	2937
816.666	2883
816.807	2720
816.948	2891
817.089	2902
817.23	2876
817.371	2766
817.512	2819
817.653	2857
817.793	2845
817.934	2883
818.075	2944
818.216	2960
818.356	3009
818.497	2887
818.638	2796
818.778	2819
818.919	2819
819.06	2800
819.2	2887
819.341	2777
819.481	2754
819.622	2906
819.762	3043
819.903	3024
820.043	2914
820.184	2922
820.324	2880
820.465	2952
820.605	3024
820.746	3066
820.886	2925
821.026	3081
821.167	3138
821.307	3275
821.447	3294
821.588	3260
821.728	3222
821.868	3150
822.008	3062
822.149	3127
822.289	3241
822.429	3066
822.569	3112
822.709	3169
822.849	3020
822.99	3058
823.13	3157
823.27	3226
823.41	3108
823.55	3154
823.69	3146
823.83	3188
823.97	3093
824.11	3001
824.25	2998
824.389	3108
824.529	3093
824.669	3085
824.809	3173
824.949	3260
825.089	3195
825.228	3176
825.368	3013
825.508	2956
825.648	2990
825.787	3013
825.927	3013
826.067	2967
826.206	2937
826.346	3032
826.485	3074
826.625	3074
826.765	3272
826.904	3214
827.044	2986
827.183	2929
827.323	2842
827.462	2982
827.601	2941
827.741	2906
827.88	2975
828.02	2849
828.159	2929
828.298	3005
828.437	3089
828.577	3051
828.716	3241
828.855	3074
828.994	2933
829.134	2899
829.273	2952
829.412	2857
829.551	2864
829.69	2872
829.829	3017
829.968	3112
830.107	2967
830.246	3017
830.385	2948
830.524	2895
830.663	2834
830.802	2697
830.941	2659
831.08	2632
831.219	2754
831.357	2754
831.496	2948
831.635	2724
831.774	2644
831.913	2621
832.051	2560
832.19	2556
832.329	2663
832.467	2545
832.606	2492
832.744	2556
832.883	2613
833.022	2549
833.16	2651
833.299	2678
833.437	2678
833.576	2708
833.714	2678
833.852	2705
833.991	2735
834.129	2815
834.267	2819
834.406	2743
834.544	2857
834.682	2857
834.821	2838
834.959	3074
835.097	2899
835.235	3020
835.373	2982
835.511	3032
835.65	2937
835.788	2941
835.926	2781
836.064	2815
836.202	2853
836.34	3085
836.478	3119
836.615	3051
836.753	3131
836.891	3188
837.029	3146
837.167	3127
837.305	3032
837.443	3013
837.58	2986
837.718	3135
837.856	3066
837.993	3028
838.131	3093
838.269	3077
838.406	3085
838.544	3093
838.681	2941
838.819	2933
838.956	2785
839.094	2830
839.231	2925
839.369	3028
839.506	3370
839.643	3226
839.781	3028
839.918	2967
840.055	3055
840.193	3024
840.33	3024
840.467	3074
840.604	3184
840.742	3424
840.879	3047
841.016	3020
841.153	3131
841.29	3325
841.427	3294
841.564	3245
841.701	3279
841.838	3226
841.975	3184
842.112	3199
842.249	3062
842.385	3074
842.522	3275
842.659	3074
842.796	3058
842.933	3085
843.069	3070
843.206	3036
843.343	3199
843.479	3100
843.616	3123
843.752	2895
843.889	2868
844.025	3013
844.162	2853
844.298	3051
844.435	2933
844.571	2922
844.708	3070
844.844	3180
844.98	3237
845.117	3161
845.253	3062
845.389	3009
845.525	3081
845.661	3097
845.798	3017
845.934	3123
846.07	3024
846.206	3203
846.342	3317
846.478	3230
846.614	3074
846.75	3104
846.886	3036
847.022	3249
847.158	3108
847.294	3180
847.429	3218
847.565	3199
847.701	3485
847.837	3013
847.972	2990
848.108	3165
848.244	3119
848.379	2998
848.515	2952
848.65	2899
848.786	2952
848.921	2990
849.057	3119
849.192	3127
849.328	3119
849.463	3104
849.598	3043
849.734	3055
849.869	2967
850.004	2914
850.14	2956
850.275	2914
850.41	2826
850.545	2891
850.68	2910
850.815	2967
850.95	2971
851.085	3142
851.22	3093
851.355	3036
851.49	2963
851.625	3001
851.76	3017
851.895	2925
852.03	2914
852.165	3039
852.299	3119
852.434	3161
852.569	3127
852.703	3180
852.838	3249
852.973	3325
853.107	3336
853.242	3161
853.376	3112
853.511	2952
853.645	3020
853.78	3222
853.914	3123
854.048	3070
854.183	3066
854.317	3127
854.451	3310
854.585	3119
854.72	3085
854.854	3222
854.988	3039
855.122	3047
855.256	2975
855.39	3089
855.524	3199
855.658	3207
855.792	3138
855.926	3169
856.06	3169
856.194	3264
856.327	3123
856.461	3062
856.595	3077
856.729	3112
856.862	3218
856.996	3146
857.13	3211
857.263	3233
857.397	3268
857.53	3135
857.664	3214
857.797	3237
857.931	3256
858.064	3165
858.197	3192
858.331	3112
858.464	3066
858.597	2975
858.731	3119
858.864	3116
858.997	3058
859.13	3173
859.263	3127
859.396	3199
859.529	3051
859.662	3085
859.795	3024
859.928	3123
860.061	3268
860.194	3310
860.327	3116
860.46	3070
860.592	3275
860.725	3264
860.858	3249
860.99	3112
861.123	3070
861.256	3043
861.388	3146
861.521	3701
861.653	2979
861.786	2994
861.918	2994
862.05	3097
862.183	3135
862.315	3154
862.447	3214
862.58	3104
862.712	2963
862.844	2842
862.976	3032
863.108	3013
863.24	3279
863.372	2880
863.504	2952
863.636	2918
863.768	3017
863.9	2979
864.032	2895
864.164	2952
864.296	2982
864.428	3074
864.559	3097
864.691	3081
864.823	3074
864.954	3020
865.086	3032
865.217	2982
865.349	2933
865.48	2986
865.612	3020
865.743	3123
865.875	2952
866.006	2910
866.137	2948
866.269	2929
866.4	2914
866.531	2891
866.662	2918
866.793	2895
866.924	2891
867.055	2952
867.186	2925
867.317	2887
867.448	2887
867.579	2834
867.71	2834
867.841	2807
867.972	2887
868.103	2902
868.233	2910
868.364	2868
868.495	2933
868.625	3070
868.756	3173
868.886	2975
869.017	3020
869.147	3184
869.278	3142
869.408	3039
869.539	3017
869.669	3127
869.799	3058
869.929	3127
870.06	3108
870.19	3302
870.32	3294
870.45	3287
870.58	3351
870.71	3424
870.84	3450
870.97	3287
871.1	3249
871.23	3504
871.36	3496
871.489	3340
871.619	3367
871.749	3382
871.879	3409
872.008	3454
872.138	3378
872.267	3272
872.397	3116
872.526	3081
872.656	3013
872.785	3100
872.915	3230
873.044	3306
873.173	3230
873.303	3226
873.432	3214
873.561	3237
873.69	3169
873.819	3127
873.948	3173
874.077	3093
874.206	3020
874.335	3047
874.464	3207
874.593	3302
874.722	3249
874.851	3382
874.979	3348
875.108	3275
875.237	3207
875.365	3131
875.494	3138
875.623	3241
875.751	3066
875.88	3081
876.008	3176
876.136	3226
876.265	3386
876.393	3488
876.521	3412
876.65	3412
876.778	3306
876.906	3230
877.034	3214
877.162	3245
877.29	3131
877.418	3233
877.546	3241
877.674	3253
877.802	3218
877.93	3214
878.058	3161
878.185	3100
878.313	3241
878.441	3195
878.568	3058
878.696	3112
878.824	3275
878.951	3306
879.079	3439
879.206	3618
879.333	3428
879.461	3332
879.588	3336
879.715	3477
879.842	3553
879.97	3386
880.097	3157
880.224	3108
880.351	3195
880.478	3169
880.605	3180
880.732	3173
880.859	3496
880.986	3256
881.112	3317
881.239	3192
881.366	3085
881.493	3017
881.619	2979
881.746	3085
881.872	3089
881.999	3108
882.125	3150
882.252	3245
882.378	3275
882.505	3386
882.631	3253
882.757	3157
882.883	3226
883.01	3199
883.136	3138
883.262	3081
883.388	3104
883.514	3355
883.64	3386
883.766	3321
883.892	3165
884.018	3222
884.143	3405
884.269	3561
884.395	3203
884.52	3142
884.646	3157
884.772	3131
884.897	3119
885.023	3211
885.148	3336
885.274	3378
885.399	3348
885.524	3275
885.65	3245
885.775	3310
885.9	3233
886.025	3431
886.15	3393
886.275	3283
886.4	3180
886.525	3275
886.65	3241
886.775	3260
886.9	3477
887.025	3622
887.149	3374
887.274	3237
887.399	3188
887.523	3203
887.648	3150
887.773	3173
887.897	3397
888.021	3416
888.146	3283
888.27	3424
888.395	3515
888.519	3424
888.643	3466
888.767	3492
888.891	3306
889.015	3214
889.139	3294
889.263	3245
889.387	3412
889.511	3511
889.635	3443
889.759	3306
889.883	3302
890.006	3359
890.13	3485
890.254	3313
890.377	3332
890.501	3207
890.624	3195
890.748	3275
890.871	3199
890.995	3135
891.118	3032
891.241	3180
891.364	3218
891.488	3321
891.611	3146
891.734	3199
891.857	3325
891.98	3237
892.103	3336
892.226	3287
892.349	3188
892.471	3119
892.594	3230
892.717	3298
892.839	3237
892.962	3275
893.085	3370
893.207	3291
893.33	3131
893.452	3161
893.575	3306
893.697	3218
893.819	3443
893.941	3519
894.064	3458
894.186	3245
894.308	3294
894.43	3439
894.552	3538
894.674	3435
894.796	3241
894.918	3313
895.04	3241
895.161	3428
895.283	3382
895.405	3317
895.526	3348
895.648	3378
895.769	3420
895.891	3462
896.012	3488
896.134	3443
896.255	3431
896.376	3416
896.498	3374
896.619	3378
896.74	3344
896.861	3397
896.982	3663
897.103	3854
897.224	3580
897.345	3473
897.466	3443
897.587	3462
897.708	3587
897.828	3519
897.949	3431
898.07	3359
898.19	3412
898.311	3576
898.431	3447
898.552	3504
898.672	3576
898.792	3542
898.913	3511
899.033	3344
899.153	3275
899.273	3218
899.393	3260
899.513	3310
899.633	3310
899.753	3325
899.873	3336
899.993	3367
900.113	3348
900.232	3382
900.352	3325
900.472	3264
900.591	3222
900.711	3302
900.83	3230
900.95	3401
901.069	3488
901.189	3370
901.308	3150
901.427	3119
901.546	3176
901.665	3298
901.784	3332
901.904	3188
902.023	3119
902.141	3047
902.26	2986
902.379	3142
902.498	3051
902.617	3077
902.735	3176
902.854	3203
902.973	3180
903.091	3058
903.21	3036
903.328	3146
903.446	3085
903.565	3108
903.683	3211
903.801	3157
903.919	3214
904.038	3283
904.156	3142
904.274	3260
904.392	3264
904.51	3283
904.627	3298
904.745	3424
904.863	3511
904.981	3275
905.098	3180
905.216	3237
905.334	3279
905.451	3321
905.569	3253
905.686	3431
905.803	3458
905.921	3260
906.038	3450
906.155	3329
906.272	3264
906.389	3306
906.506	3230
906.623	3245
906.74	3249
906.857	3188
906.974	3268
907.091	3477
907.208	3561
907.324	3488
907.441	3374
907.557	3203
907.674	3207
907.79	3199
907.907	3287
908.023	3348
908.139	3367
908.256	3332
908.372	3344
908.488	3355
908.604	3226
908.72	3241
908.836	3272
908.952	3253
909.068	3291
909.184	3515
909.3	3355
909.415	3496
909.531	3447
909.647	3264
909.762	3306
909.878	3283
909.993	3317
910.108	3275
910.224	3336
910.339	3443
910.454	3329
910.57	3310
910.685	3268
910.8	3538
910.915	3538
911.03	3447
911.145	3272
911.259	3245
911.374	3279
911.489	3233
911.604	3214
911.718	3077
911.833	3173
911.947	3032
912.062	2986
912.176	3169
912.291	3184
912.405	3195
912.519	3443
912.633	3439
912.748	3287
912.862	3287
912.976	3169
913.09	3062
913.204	3154
913.318	3218
913.431	3344
913.545	3321
913.659	3389
913.772	3329
913.886	3233
914	3161
914.113	3370
914.226	3416
914.34	3389
914.453	3199
914.566	3378
914.68	3272
914.793	3359
914.906	3176
915.019	3108
915.132	3028
915.245	3161
915.358	3214
915.47	3226
915.583	3233
915.696	3275
915.809	3397
915.921	3435
916.034	3260
916.146	3294
916.259	3226
916.371	3367
916.483	3393
916.595	3241
916.708	3325
916.82	3336
916.932	3313
917.044	3332
917.156	3336
917.268	3256
917.38	3291
917.491	3313
917.603	3359
917.715	3462
917.826	3443
917.938	3336
918.049	3287
918.161	3428
918.272	3580
918.384	3572
918.495	3500
918.606	3367
918.717	3291
918.828	3367
918.939	3412
919.05	3291
919.161	3386
919.272	3195
919.383	3275
919.494	3492
919.604	3663
919.715	3504
919.826	3393
919.936	3458
920.047	3580
920.157	3561
920.267	3778
920.378	3625
920.488	3576
920.598	3785
920.708	3960
920.818	3850
920.928	3865
921.038	4044
921.148	4002
921.258	3671
921.368	3622
921.477	3584
921.587	3523
921.697	3397
921.806	3660
921.916	3492
922.025	3340
922.134	3336
922.244	3321
922.353	3401
922.462	3272
922.571	3214
922.68	3119
922.789	3066
922.898	3135
923.007	3100
923.116	3211
923.224	3180
923.333	3150
923.442	3108
923.55	3062
923.659	3161
923.767	3241
923.876	3093
923.984	3253
924.092	3100
924.201	3211
924.309	3195
924.417	3214
924.525	3192
924.633	3169
924.741	3994
924.849	3077
924.956	3245
925.064	3070
925.172	3062
925.279	3074
925.387	3195
925.494	3154
925.602	3340
925.709	3325
925.816	3214
925.924	3310
926.031	3363
926.138	3351
926.245	3363
926.352	3291
926.459	3420
926.566	3450
926.673	3344
926.779	3275
926.886	3222
926.993	3138
927.099	3112
927.206	3104
927.312	3127
927.419	3157
927.525	3184
927.631	3237
927.737	3104
927.843	3157
927.95	2994
928.056	3146
928.162	3161
928.267	3256
928.373	3819
928.479	3317
928.585	3032
928.69	3226
928.796	3291
928.901	3184
929.007	3051
929.112	3165
929.218	3150
929.323	3154
929.428	3142
929.533	3313
929.638	3089
929.743	3173
929.848	3253
929.953	3211
930.058	3119
930.163	3001
930.267	3028
930.372	3211
930.477	3032
930.581	3313
930.685	3161
930.79	3013
930.894	3138
930.998	3119
931.103	3256
931.207	2960
931.311	2952
931.415	2941
931.519	2781
931.623	2785
