Data from test_V78500241_20.txt Node
Date: Fri Mar 25 16:15:20 CST 2022
User: usil
Spectrometer: V785-0024
Trigger mode: 0
Integration Time (sec): 4.000000E-1
Scans to average: 1
Nonlinearity correction enabled: false
Boxcar width: 0
Storing dark spectrum: false
XAxis mode: Wavelengths
Number of Pixels in Spectrum: 1024
>>>>>Begin Spectral Data<<<<<
801.071	2960
801.214	2994
801.356	2914
801.499	2944
801.641	2876
801.783	2941
801.926	3070
802.068	2986
802.211	3051
802.353	3051
802.496	3017
802.638	3074
802.78	3074
802.923	3142
803.065	3047
803.208	2933
803.35	2975
803.492	2982
803.635	2979
803.777	2792
803.919	2914
804.061	3283
804.204	2994
804.346	2929
804.488	2895
804.63	3043
804.773	2944
804.915	3017
805.057	3154
805.199	2986
805.341	3013
805.483	3119
805.626	3032
805.768	3001
805.91	3131
806.052	3180
806.194	3089
806.336	3256
806.478	3036
806.62	2975
806.762	3001
806.904	3116
807.046	3188
807.188	3020
807.33	2941
807.472	3047
807.614	2960
807.756	2990
807.898	2956
808.04	2960
808.182	2990
808.324	3020
808.465	2922
808.607	2910
808.749	2826
808.891	2883
809.033	3036
809.174	3028
809.316	2918
809.458	2967
809.6	2838
809.741	2800
809.883	2830
810.025	2857
810.166	2872
810.308	2910
810.45	2891
810.591	2807
810.733	2819
810.875	2910
811.016	2811
811.158	2826
811.299	2887
811.441	2948
811.582	2922
811.724	2880
811.865	2899
812.007	2941
812.148	2918
812.29	2948
812.431	2925
812.573	2994
812.714	3058
812.855	3104
812.997	3112
813.138	3173
813.279	3074
813.421	3028
813.562	3036
813.703	2929
813.845	2941
813.986	2815
814.127	2731
814.268	2887
814.41	2861
814.551	2868
814.692	2899
814.833	2864
814.974	2922
815.115	3017
815.256	2861
815.397	2857
815.539	2948
815.68	2800
815.821	2861
815.962	2971
816.103	2975
816.244	2918
816.385	2899
816.526	3009
816.666	2986
816.807	2781
816.948	2941
817.089	2979
817.23	2849
817.371	2796
817.512	2834
817.653	2922
817.793	2845
817.934	2906
818.075	2998
818.216	2982
818.356	3055
818.497	2952
818.638	2834
818.778	2872
818.919	2842
819.06	2815
819.2	2944
819.341	2868
819.481	2853
819.622	2979
819.762	3123
819.903	3123
820.043	3001
820.184	2925
820.324	2960
820.465	3032
820.605	3085
820.746	3074
820.886	2990
821.026	3123
821.167	3211
821.307	3298
821.447	3370
821.588	3298
821.728	3317
821.868	3256
822.008	3119
822.149	3230
822.289	3268
822.429	3135
822.569	3119
822.709	3207
822.849	3047
822.99	3089
823.13	3165
823.27	3260
823.41	3161
823.55	3230
823.69	3214
823.83	3302
823.97	3146
824.11	3039
824.25	3017
824.389	3081
824.529	3154
824.669	3104
824.809	3245
824.949	3237
825.089	3272
825.228	3207
825.368	3039
825.508	3020
825.648	2998
825.787	3039
825.927	3066
826.067	3005
826.206	2986
826.346	3123
826.485	3116
826.625	3161
826.765	3351
826.904	3245
827.044	3077
827.183	2971
827.323	2899
827.462	3047
827.601	2941
827.741	2994
827.88	2982
828.02	2876
828.159	3020
828.298	3089
828.437	3146
828.577	3085
828.716	3275
828.855	3089
828.994	2948
829.134	2937
829.273	2956
829.412	2876
829.551	2891
829.69	2941
829.829	3024
829.968	3169
830.107	3043
830.246	3055
830.385	2925
830.524	2918
830.663	2826
830.802	2773
830.941	2678
831.08	2670
831.219	2788
831.357	2754
831.496	2986
831.635	2724
831.774	2701
831.913	2716
832.051	2575
832.19	2629
832.329	2708
832.467	2579
832.606	2514
832.744	2590
832.883	2598
833.022	2629
833.16	2697
833.299	2735
833.437	2724
833.576	2739
833.714	2746
833.852	2769
833.991	2811
834.129	2868
834.267	2914
834.406	2800
834.544	2883
834.682	2914
834.821	2910
834.959	3089
835.097	2899
835.235	3074
835.373	3039
835.511	3074
835.65	3001
835.788	2948
835.926	2899
836.064	2823
836.202	2918
836.34	3154
836.478	3180
836.615	3116
836.753	3214
836.891	3230
837.029	3192
837.167	3157
837.305	3104
837.443	3093
837.58	3020
837.718	3142
837.856	3112
837.993	3100
838.131	3150
838.269	3150
838.406	3146
838.544	3173
838.681	3009
838.819	2948
838.956	2872
839.094	2864
839.231	2952
839.369	3039
839.506	3420
839.643	3260
839.781	3051
839.918	3013
840.055	3108
840.193	3138
840.33	3119
840.467	3146
840.604	3184
840.742	3462
840.879	3150
841.016	3112
841.153	3169
841.29	3412
841.427	3355
841.564	3348
841.701	3363
841.838	3241
841.975	3256
842.112	3253
842.249	3127
842.385	3089
842.522	3310
842.659	3146
842.796	3100
842.933	3138
843.069	3074
843.206	3093
843.343	3188
843.479	3157
843.616	3233
843.752	2899
843.889	2899
844.025	3131
844.162	2899
844.298	3131
844.435	3028
844.571	2979
844.708	3131
844.844	3230
844.98	3253
845.117	3287
845.253	3135
845.389	3020
845.525	3135
845.661	3154
845.798	3066
845.934	3184
846.07	3085
846.206	3275
846.342	3344
846.478	3264
846.614	3184
846.75	3123
846.886	3066
847.022	3294
847.158	3199
847.294	3230
847.429	3294
847.565	3283
847.701	3519
847.837	3116
847.972	3013
848.108	3169
848.244	3176
848.379	3036
848.515	2986
848.65	2994
848.786	3001
848.921	3051
849.057	3157
849.192	3165
849.328	3085
849.463	3154
849.598	3093
849.734	3104
849.869	3055
850.004	2956
850.14	3028
850.275	2975
850.41	2895
850.545	2922
850.68	2979
850.815	2994
850.95	3009
851.085	3253
851.22	3157
851.355	3081
851.49	3043
851.625	3077
851.76	3039
851.895	3005
852.03	2941
852.165	3104
852.299	3165
852.434	3222
852.569	3188
852.703	3233
852.838	3298
852.973	3378
853.107	3344
853.242	3199
853.376	3131
853.511	3009
853.645	3100
853.78	3275
853.914	3135
854.048	3161
854.183	3142
854.317	3173
854.451	3378
854.585	3184
854.72	3127
854.854	3264
854.988	3070
855.122	3127
855.256	3024
855.39	3150
855.524	3306
855.658	3214
855.792	3176
855.926	3260
856.06	3264
856.194	3344
856.327	3180
856.461	3123
856.595	3127
856.729	3127
856.862	3264
856.996	3203
857.13	3249
857.263	3294
857.397	3336
857.53	3184
857.664	3222
857.797	3317
857.931	3302
858.064	3249
858.197	3253
858.331	3146
858.464	3161
858.597	3032
858.731	3154
858.864	3192
858.997	3135
859.13	3214
859.263	3199
859.396	3237
859.529	3150
859.662	3135
859.795	3097
859.928	3184
860.061	3298
860.194	3348
860.327	3176
860.46	3135
860.592	3272
860.725	3298
860.858	3294
860.99	3108
861.123	3127
861.256	3104
861.388	3203
861.521	3717
861.653	3043
861.786	3020
861.918	3009
862.05	3081
862.183	3123
862.315	3214
862.447	3249
862.58	3138
862.712	3024
862.844	2918
862.976	3070
863.108	3093
863.24	3447
863.372	2941
863.504	3005
863.636	2990
863.768	3024
863.9	3017
864.032	2979
864.164	2982
864.296	3047
864.428	3142
864.559	3150
864.691	3146
864.823	3089
864.954	3070
865.086	3074
865.217	3047
865.349	3001
865.48	3024
865.612	3104
865.743	3249
865.875	3009
866.006	2975
866.137	3009
866.269	3009
866.4	3013
866.531	2971
866.662	2899
866.793	2933
866.924	2944
867.055	3001
867.186	2990
867.317	2872
867.448	2853
867.579	2906
867.71	2880
867.841	2861
867.972	2941
868.103	2925
868.233	2922
868.364	2933
868.495	2925
868.625	3093
868.756	3180
868.886	3020
869.017	3051
869.147	3199
869.278	3199
869.408	3104
869.539	3051
869.669	3157
869.799	3104
869.929	3180
870.06	3150
870.19	3386
870.32	3321
870.45	3359
870.58	3435
870.71	3488
870.84	3538
870.97	3329
871.1	3287
871.23	3553
871.36	3519
871.489	3367
871.619	3435
871.749	3439
871.879	3443
872.008	3511
872.138	3428
872.267	3294
872.397	3192
872.526	3169
872.656	3039
872.785	3127
872.915	3283
873.044	3401
873.173	3279
873.303	3317
873.432	3283
873.561	3306
873.69	3184
873.819	3203
873.948	3230
874.077	3138
874.206	3119
874.335	3157
874.464	3230
874.593	3428
874.722	3275
874.851	3431
874.979	3420
875.108	3359
875.237	3264
875.365	3203
875.494	3203
875.623	3249
875.751	3108
875.88	3165
876.008	3245
876.136	3306
876.265	3409
876.393	3564
876.521	3488
876.65	3420
876.778	3374
876.906	3306
877.034	3245
877.162	3268
877.29	3207
877.418	3294
877.546	3317
877.674	3298
877.802	3272
877.93	3291
878.058	3173
878.185	3161
878.313	3260
878.441	3291
878.568	3142
878.696	3192
878.824	3329
878.951	3363
879.079	3507
879.206	3671
879.333	3504
879.461	3367
879.588	3393
879.715	3534
879.842	3614
879.97	3428
880.097	3241
880.224	3199
880.351	3226
880.478	3279
880.605	3260
880.732	3214
880.859	3545
880.986	3374
881.112	3348
881.239	3260
881.366	3142
881.493	3074
881.619	3062
881.746	3108
881.872	3116
881.999	3165
882.125	3211
882.252	3302
882.378	3325
882.505	3466
882.631	3344
882.757	3203
882.883	3195
883.01	3294
883.136	3192
883.262	3165
883.388	3157
883.514	3359
883.64	3473
883.766	3382
883.892	3211
884.018	3310
884.143	3466
884.269	3629
884.395	3272
884.52	3207
884.646	3237
884.772	3142
884.897	3161
885.023	3214
885.148	3416
885.274	3447
885.399	3439
885.524	3325
885.65	3310
885.775	3367
885.9	3329
886.025	3488
886.15	3416
886.275	3348
886.4	3283
886.525	3363
886.65	3325
886.775	3351
886.9	3511
887.025	3717
887.149	3420
887.274	3279
887.399	3237
887.523	3256
887.648	3211
887.773	3256
887.897	3401
888.021	3443
888.146	3336
888.27	3447
888.395	3603
888.519	3492
888.643	3462
888.767	3504
888.891	3336
889.015	3298
889.139	3344
889.263	3325
889.387	3458
889.511	3564
889.635	3481
889.759	3351
889.883	3317
890.006	3466
890.13	3553
890.254	3351
890.377	3409
890.501	3268
890.624	3222
890.748	3317
890.871	3222
890.995	3169
891.118	3123
891.241	3241
891.364	3291
891.488	3374
891.611	3253
891.734	3279
891.857	3348
891.98	3294
892.103	3405
892.226	3363
892.349	3256
892.471	3165
892.594	3275
892.717	3348
892.839	3344
892.962	3332
893.085	3401
893.207	3329
893.33	3199
893.452	3283
893.575	3409
893.697	3279
893.819	3538
893.941	3587
894.064	3496
894.186	3329
894.308	3306
894.43	3492
894.552	3572
894.674	3519
894.796	3325
894.918	3340
895.04	3329
895.161	3504
895.283	3409
895.405	3363
895.526	3405
895.648	3469
895.769	3469
895.891	3504
896.012	3519
896.134	3538
896.255	3485
896.376	3420
896.498	3420
896.619	3496
896.74	3409
896.861	3416
896.982	3797
897.103	3854
897.224	3629
897.345	3599
897.466	3545
897.587	3553
897.708	3701
897.828	3610
897.949	3485
898.07	3393
898.19	3458
898.311	3633
898.431	3523
898.552	3580
898.672	3652
898.792	3625
898.913	3564
899.033	3496
899.153	3355
899.273	3279
899.393	3310
899.513	3367
899.633	3382
899.753	3393
899.873	3382
899.993	3420
900.113	3386
900.232	3469
900.352	3386
900.472	3332
900.591	3241
900.711	3336
900.83	3283
900.95	3458
901.069	3587
901.189	3412
901.308	3237
901.427	3165
901.546	3222
901.665	3351
901.784	3370
901.904	3222
902.023	3264
902.141	3074
902.26	3070
902.379	3192
902.498	3131
902.617	3119
902.735	3253
902.854	3245
902.973	3245
903.091	3097
903.21	3089
903.328	3169
903.446	3165
903.565	3146
903.683	3272
903.801	3203
903.919	3313
904.038	3336
904.156	3199
904.274	3363
904.392	3321
904.51	3351
904.627	3374
904.745	3458
904.863	3545
904.981	3275
905.098	3218
905.216	3294
905.334	3321
905.451	3401
905.569	3344
905.686	3458
905.803	3473
905.921	3348
906.038	3466
906.155	3355
906.272	3336
906.389	3363
906.506	3283
906.623	3287
906.74	3325
906.857	3211
906.974	3287
907.091	3492
907.208	3629
907.324	3507
907.441	3401
907.557	3272
907.674	3256
907.79	3272
907.907	3317
908.023	3450
908.139	3405
908.256	3405
908.372	3424
908.488	3409
908.604	3313
908.72	3336
908.836	3321
908.952	3313
909.068	3416
909.184	3523
909.3	3454
909.415	3599
909.531	3492
909.647	3340
909.762	3348
909.878	3313
909.993	3447
910.108	3393
910.224	3397
910.339	3466
910.454	3382
910.57	3340
910.685	3298
910.8	3633
910.915	3606
911.03	3466
911.145	3336
911.259	3340
911.374	3325
911.489	3272
911.604	3249
911.718	3154
911.833	3199
911.947	3108
912.062	3032
912.176	3207
912.291	3245
912.405	3264
912.519	3485
912.633	3523
912.748	3378
912.862	3329
912.976	3184
913.09	3093
913.204	3146
913.318	3298
913.431	3401
913.545	3389
913.659	3454
913.772	3355
913.886	3272
914	3226
914.113	3409
914.226	3492
914.34	3428
914.453	3310
914.566	3477
914.68	3310
914.793	3329
914.906	3218
915.019	3119
915.132	3100
915.245	3218
915.358	3245
915.47	3253
915.583	3344
915.696	3329
915.809	3454
915.921	3458
916.034	3291
916.146	3306
916.259	3260
916.371	3477
916.483	3435
916.595	3344
916.708	3393
916.82	3378
916.932	3374
917.044	3420
917.156	3378
917.268	3287
917.38	3332
917.491	3370
917.603	3443
917.715	3492
917.826	3561
917.938	3435
918.049	3329
918.161	3488
918.272	3679
918.384	3629
918.495	3538
918.606	3370
918.717	3336
918.828	3412
918.939	3477
919.05	3405
919.161	3431
919.272	3241
919.383	3340
919.494	3561
919.604	3751
919.715	3587
919.826	3435
919.936	3523
920.047	3610
920.157	3625
920.267	3819
920.378	3686
920.488	3610
920.598	3861
920.708	4017
920.818	3888
920.928	3899
921.038	4071
921.148	4040
921.258	3747
921.368	3660
921.477	3622
921.587	3564
921.697	3481
921.806	3724
921.916	3622
922.025	3416
922.134	3382
922.244	3389
922.353	3485
922.462	3325
922.571	3287
922.68	3142
922.789	3116
922.898	3222
923.007	3138
923.116	3287
923.224	3222
923.333	3237
923.442	3142
923.55	3195
923.659	3214
923.767	3237
923.876	3157
923.984	3279
924.092	3176
924.201	3211
924.309	3245
924.417	3294
924.525	3233
924.633	3294
924.741	4287
924.849	3116
924.956	3332
925.064	3157
925.172	3108
925.279	3154
925.387	3253
925.494	3283
925.602	3443
925.709	3344
925.816	3226
925.924	3321
926.031	3393
926.138	3389
926.245	3462
926.352	3325
926.459	3435
926.566	3534
926.673	3363
926.779	3294
926.886	3321
926.993	3195
927.099	3176
927.206	3161
927.312	3150
927.419	3245
927.525	3245
927.631	3306
927.737	3199
927.843	3184
927.95	3058
928.056	3207
928.162	3264
928.267	3321
928.373	3869
928.479	3393
928.585	3127
928.69	3249
928.796	3287
928.901	3214
929.007	3108
929.112	3268
929.218	3211
929.323	3199
929.428	3188
929.533	3344
929.638	3157
929.743	3211
929.848	3340
929.953	3260
930.058	3199
930.163	3028
930.267	3123
930.372	3218
930.477	3077
930.581	3416
930.685	3272
930.79	3058
930.894	3195
930.998	3135
931.103	3332
931.207	3039
931.311	2990
931.415	2956
931.519	2819
931.623	2876
