Data from test_V78500241_587.txt Node
Date: Fri Mar 25 16:19:16 CST 2022
User: usil
Spectrometer: V785-0024
Trigger mode: 0
Integration Time (sec): 4.000000E-1
Scans to average: 1
Nonlinearity correction enabled: false
Boxcar width: 0
Storing dark spectrum: false
XAxis mode: Wavelengths
Number of Pixels in Spectrum: 1024
>>>>>Begin Spectral Data<<<<<
801.071	2895
801.214	2925
801.356	2872
801.499	2887
801.641	2845
801.783	2929
801.926	3036
802.068	2971
802.211	2990
802.353	3055
802.496	2948
802.638	3013
802.78	3055
802.923	3074
803.065	3005
803.208	2895
803.35	2944
803.492	2960
803.635	2891
803.777	2766
803.919	2861
804.061	3214
804.204	2899
804.346	2891
804.488	2857
804.63	2979
804.773	2857
804.915	2944
805.057	3085
805.199	2910
805.341	2960
805.483	3058
805.626	3020
805.768	2971
805.91	3077
806.052	3131
806.194	3043
806.336	3241
806.478	3001
806.62	2952
806.762	2982
806.904	3024
807.046	3161
807.188	2971
807.33	2902
807.472	3009
807.614	2952
807.756	2990
807.898	2918
808.04	2902
808.182	2952
808.324	2971
808.465	2899
808.607	2933
808.749	2796
808.891	2826
809.033	2967
809.174	2963
809.316	2899
809.458	2918
809.6	2781
809.741	2781
809.883	2785
810.025	2857
810.166	2853
810.308	2777
810.45	2864
810.591	2788
810.733	2769
810.875	2849
811.016	2800
811.158	2800
811.299	2785
811.441	2918
811.582	2883
811.724	2834
811.865	2830
812.007	2910
812.148	2857
812.29	2826
812.431	2868
812.573	2956
812.714	2948
812.855	3024
812.997	3077
813.138	3146
813.279	3009
813.421	3005
813.562	2963
813.703	2883
813.845	2891
813.986	2781
814.127	2727
814.268	2823
814.41	2864
814.551	2823
814.692	2899
814.833	2815
814.974	2845
815.115	2960
815.256	2830
815.397	2800
815.539	2876
815.68	2781
815.821	2796
815.962	2933
816.103	2952
816.244	2891
816.385	2861
816.526	2979
816.666	2922
816.807	2819
816.948	2902
817.089	2887
817.23	2834
817.371	2796
817.512	2788
817.653	2849
817.793	2823
817.934	2826
818.075	2937
818.216	2986
818.356	3047
818.497	2880
818.638	2792
818.778	2823
818.919	2754
819.06	2781
819.2	2895
819.341	2830
819.481	2781
819.622	2925
819.762	3104
819.903	3024
820.043	2880
820.184	2895
820.324	2864
820.465	3017
820.605	2986
820.746	3032
820.886	2944
821.026	3116
821.167	3169
821.307	3260
821.447	3256
821.588	3233
821.728	3195
821.868	3211
822.008	3081
822.149	3249
822.289	3218
822.429	3085
822.569	3097
822.709	3192
822.849	2994
822.99	3051
823.13	3180
823.27	3214
823.41	3108
823.55	3142
823.69	3150
823.83	3211
823.97	3123
824.11	2994
824.25	2967
824.389	3066
824.529	3116
824.669	3097
824.809	3192
824.949	3237
825.089	3226
825.228	3138
825.368	2990
825.508	2944
825.648	2982
825.787	3032
825.927	3020
826.067	2952
826.206	2960
826.346	3058
826.485	3077
826.625	3085
826.765	3268
826.904	3203
827.044	3024
827.183	2910
827.323	2876
827.462	3013
827.601	2910
827.741	2902
827.88	2948
828.02	2842
828.159	3001
828.298	3085
828.437	3123
828.577	3024
828.716	3241
828.855	3055
828.994	2834
829.134	2902
829.273	2899
829.412	2826
829.551	2830
829.69	2899
829.829	2986
829.968	3058
830.107	2982
830.246	3005
830.385	2910
830.524	2902
830.663	2807
830.802	2746
830.941	2674
831.08	2625
831.219	2750
831.357	2773
831.496	2922
831.635	2731
831.774	2644
831.913	2632
832.051	2541
832.19	2560
832.329	2648
832.467	2499
832.606	2518
832.744	2530
832.883	2594
833.022	2571
833.16	2659
833.299	2682
833.437	2674
833.576	2655
833.714	2727
833.852	2743
833.991	2773
834.129	2830
834.267	2823
834.406	2754
834.544	2826
834.682	2849
834.821	2849
834.959	3047
835.097	2910
835.235	3017
835.373	2990
835.511	3028
835.65	2963
835.788	2944
835.926	2849
836.064	2807
836.202	2842
836.34	3039
836.478	3157
836.615	3077
836.753	3112
836.891	3188
837.029	3157
837.167	3104
837.305	3089
837.443	3028
837.58	2948
837.718	3150
837.856	3070
837.993	3039
838.131	3112
838.269	3097
838.406	3131
838.544	3070
838.681	2941
838.819	2952
838.956	2823
839.094	2838
839.231	2895
839.369	3001
839.506	3370
839.643	3241
839.781	2979
839.918	2963
840.055	3051
840.193	3043
840.33	3112
840.467	3085
840.604	3154
840.742	3405
840.879	3089
841.016	3032
841.153	3108
841.29	3329
841.427	3298
841.564	3268
841.701	3325
841.838	3195
841.975	3138
842.112	3218
842.249	3077
842.385	3032
842.522	3256
842.659	3085
842.796	3047
842.933	3089
843.069	3028
843.206	3062
843.343	3207
843.479	3108
843.616	3154
843.752	2883
843.889	2883
844.025	3047
844.162	2872
844.298	3081
844.435	2967
844.571	2956
844.708	3058
844.844	3169
844.98	3241
845.117	3199
845.253	3074
845.389	3001
845.525	3062
845.661	3070
845.798	3051
845.934	3116
846.07	3028
846.206	3211
846.342	3279
846.478	3214
846.614	3066
846.75	3039
846.886	3017
847.022	3230
847.158	3135
847.294	3192
847.429	3233
847.565	3199
847.701	3447
847.837	3005
847.972	3001
848.108	3138
848.244	3173
848.379	2975
848.515	2933
848.65	2922
848.786	2967
848.921	2998
849.057	3089
849.192	3169
849.328	3058
849.463	3066
849.598	3100
849.734	3055
849.869	2963
850.004	2895
850.14	2937
850.275	2922
850.41	2838
850.545	2880
850.68	2929
850.815	2960
850.95	2982
851.085	3169
851.22	3104
851.355	3028
851.49	2956
851.625	2994
851.76	3017
851.895	2925
852.03	2895
852.165	3005
852.299	3066
852.434	3157
852.569	3150
852.703	3188
852.838	3218
852.973	3359
853.107	3313
853.242	3119
853.376	3058
853.511	3013
853.645	3009
853.78	3211
853.914	3123
854.048	3135
854.183	3070
854.317	3157
854.451	3264
854.585	3123
854.72	3055
854.854	3214
854.988	3051
855.122	3066
855.256	2963
855.39	3131
855.524	3260
855.658	3203
855.792	3138
855.926	3211
856.06	3207
856.194	3237
856.327	3195
856.461	3077
856.595	3058
856.729	3119
856.862	3222
856.996	3176
857.13	3169
857.263	3218
857.397	3317
857.53	3180
857.664	3176
857.797	3272
857.931	3237
858.064	3150
858.197	3214
858.331	3127
858.464	3085
858.597	3036
858.731	3119
858.864	3108
858.997	3093
859.13	3173
859.263	3146
859.396	3233
859.529	3062
859.662	3024
859.795	3070
859.928	3116
860.061	3222
860.194	3287
860.327	3089
860.46	3085
860.592	3233
860.725	3237
860.858	3233
860.99	3077
861.123	3028
861.256	3081
861.388	3169
861.521	3713
861.653	3017
861.786	2975
861.918	3009
862.05	3070
862.183	3097
862.315	3119
862.447	3253
862.58	3104
862.712	2952
862.844	2876
862.976	2960
863.108	2971
863.24	3420
863.372	2887
863.504	2941
863.636	2948
863.768	3062
863.9	3009
864.032	2899
864.164	2948
864.296	3024
864.428	3047
864.559	3066
864.691	3074
864.823	3028
864.954	3074
865.086	3074
865.217	2998
865.349	2941
865.48	3009
865.612	3020
865.743	3161
865.875	2963
866.006	2918
866.137	2960
866.269	2967
866.4	2933
866.531	2944
866.662	2895
866.793	2872
866.924	2906
867.055	2971
867.186	2910
867.317	2868
867.448	2849
867.579	2838
867.71	2857
867.841	2842
867.972	2849
868.103	2895
868.233	2853
868.364	2853
868.495	2887
868.625	3070
868.756	3176
868.886	2910
869.017	2990
869.147	3142
869.278	3165
869.408	3005
869.539	3013
869.669	3093
869.799	3043
869.929	3116
870.06	3104
870.19	3306
870.32	3275
870.45	3294
870.58	3389
870.71	3431
870.84	3466
870.97	3294
871.1	3260
871.23	3466
871.36	3424
871.489	3401
871.619	3386
871.749	3409
871.879	3412
872.008	3416
872.138	3374
872.267	3268
872.397	3146
872.526	3093
872.656	3009
872.785	3112
872.915	3237
873.044	3310
873.173	3264
873.303	3260
873.432	3249
873.561	3260
873.69	3138
873.819	3119
873.948	3237
874.077	3104
874.206	3070
874.335	3077
874.464	3222
874.593	3336
874.722	3230
874.851	3348
874.979	3332
875.108	3298
875.237	3230
875.365	3131
875.494	3146
875.623	3256
875.751	3093
875.88	3135
876.008	3192
876.136	3222
876.265	3367
876.393	3511
876.521	3397
876.65	3370
876.778	3348
876.906	3268
877.034	3203
877.162	3241
877.29	3214
877.418	3245
877.546	3230
877.674	3241
877.802	3226
877.93	3192
878.058	3127
878.185	3097
878.313	3222
878.441	3256
878.568	3089
878.696	3180
878.824	3222
878.951	3306
879.079	3409
879.206	3618
879.333	3412
879.461	3310
879.588	3374
879.715	3458
879.842	3580
879.97	3386
880.097	3169
880.224	3123
880.351	3192
880.478	3184
880.605	3184
880.732	3135
880.859	3507
880.986	3302
881.112	3313
881.239	3176
881.366	3112
881.493	3005
881.619	3009
881.746	3097
881.872	3047
881.999	3112
882.125	3146
882.252	3230
882.378	3275
882.505	3409
882.631	3294
882.757	3157
882.883	3199
883.01	3203
883.136	3150
883.262	3123
883.388	3116
883.514	3325
883.64	3370
883.766	3317
883.892	3180
884.018	3245
884.143	3382
884.269	3542
884.395	3207
884.52	3154
884.646	3176
884.772	3131
884.897	3112
885.023	3176
885.148	3321
885.274	3458
885.399	3344
885.524	3298
885.65	3253
885.775	3355
885.9	3260
886.025	3401
886.15	3363
886.275	3329
886.4	3218
886.525	3321
886.65	3287
886.775	3268
886.9	3473
887.025	3603
887.149	3393
887.274	3218
887.399	3169
887.523	3207
887.648	3218
887.773	3237
887.897	3344
888.021	3340
888.146	3291
888.27	3382
888.395	3534
888.519	3412
888.643	3405
888.767	3428
888.891	3302
889.015	3237
889.139	3279
889.263	3222
889.387	3405
889.511	3545
889.635	3428
889.759	3275
889.883	3367
890.006	3374
890.13	3507
890.254	3283
890.377	3321
890.501	3207
890.624	3173
890.748	3317
890.871	3199
890.995	3127
891.118	3089
891.241	3192
891.364	3226
891.488	3359
891.611	3184
891.734	3199
891.857	3283
891.98	3230
892.103	3287
892.226	3260
892.349	3207
892.471	3131
892.594	3218
892.717	3253
892.839	3245
892.962	3310
893.085	3313
893.207	3279
893.33	3154
893.452	3203
893.575	3317
893.697	3241
893.819	3454
893.941	3485
894.064	3462
894.186	3260
894.308	3268
894.43	3488
894.552	3530
894.674	3450
894.796	3283
894.918	3317
895.04	3306
895.161	3431
895.283	3382
895.405	3283
895.526	3355
895.648	3405
895.769	3420
895.891	3450
896.012	3450
896.134	3462
896.255	3424
896.376	3378
896.498	3378
896.619	3454
896.74	3363
896.861	3458
896.982	3690
897.103	3876
897.224	3606
897.345	3488
897.466	3416
897.587	3492
897.708	3610
897.828	3496
897.949	3458
898.07	3344
898.19	3389
898.311	3591
898.431	3443
898.552	3504
898.672	3568
898.792	3568
898.913	3500
899.033	3409
899.153	3317
899.273	3218
899.393	3294
899.513	3302
899.633	3287
899.753	3329
899.873	3336
899.993	3355
900.113	3336
900.232	3344
900.352	3378
900.472	3287
900.591	3184
900.711	3291
900.83	3237
900.95	3435
901.069	3511
901.189	3351
901.308	3169
901.427	3138
901.546	3207
901.665	3310
901.784	3340
901.904	3218
902.023	3131
902.141	3020
902.26	2994
902.379	3165
902.498	3062
902.617	3097
902.735	3218
902.854	3199
902.973	3150
903.091	3070
903.21	3009
903.328	3146
903.446	3093
903.565	3104
903.683	3184
903.801	3066
903.919	3253
904.038	3294
904.156	3169
904.274	3302
904.392	3233
904.51	3268
904.627	3329
904.745	3409
904.863	3488
904.981	3260
905.098	3195
905.216	3218
905.334	3313
905.451	3325
905.569	3275
905.686	3401
905.803	3420
905.921	3249
906.038	3409
906.155	3355
906.272	3249
906.389	3298
906.506	3264
906.623	3253
906.74	3302
906.857	3150
906.974	3287
907.091	3458
907.208	3580
907.324	3507
907.441	3420
907.557	3222
907.674	3218
907.79	3249
907.907	3268
908.023	3370
908.139	3359
908.256	3363
908.372	3397
908.488	3409
908.604	3275
908.72	3230
908.836	3260
908.952	3272
909.068	3344
909.184	3504
909.3	3447
909.415	3500
909.531	3462
909.647	3275
909.762	3313
909.878	3218
909.993	3351
910.108	3363
910.224	3313
910.339	3363
910.454	3359
910.57	3306
910.685	3233
910.8	3599
910.915	3530
911.03	3431
911.145	3253
911.259	3275
911.374	3310
911.489	3245
911.604	3222
911.718	3089
911.833	3142
911.947	3066
912.062	2963
912.176	3203
912.291	3150
912.405	3211
912.519	3416
912.633	3473
912.748	3325
912.862	3245
912.976	3123
913.09	3055
913.204	3135
913.318	3241
913.431	3332
913.545	3359
913.659	3428
913.772	3370
913.886	3203
914	3165
914.113	3332
914.226	3409
914.34	3325
914.453	3199
914.566	3428
914.68	3256
914.793	3291
914.906	3119
915.019	3127
915.132	3047
915.245	3154
915.358	3195
915.47	3237
915.583	3268
915.696	3313
915.809	3355
915.921	3393
916.034	3291
916.146	3268
916.259	3199
916.371	3401
916.483	3370
916.595	3241
916.708	3325
916.82	3325
916.932	3348
917.044	3325
917.156	3332
917.268	3287
917.38	3275
917.491	3298
917.603	3378
917.715	3428
917.826	3477
917.938	3367
918.049	3268
918.161	3405
918.272	3568
918.384	3580
918.495	3462
918.606	3325
918.717	3264
918.828	3401
918.939	3435
919.05	3310
919.161	3382
919.272	3192
919.383	3272
919.494	3500
919.604	3675
919.715	3507
919.826	3435
919.936	3443
920.047	3595
920.157	3549
920.267	3747
920.378	3591
920.488	3572
920.598	3823
920.708	4010
920.818	3835
920.928	3846
921.038	4029
921.148	3987
921.258	3713
921.368	3633
921.477	3572
921.587	3519
921.697	3458
921.806	3633
921.916	3488
922.025	3378
922.134	3374
922.244	3325
922.353	3397
922.462	3294
922.571	3253
922.68	3100
922.789	3131
922.898	3127
923.007	3070
923.116	3188
923.224	3203
923.333	3146
923.442	3138
923.55	3074
923.659	3116
923.767	3211
923.876	3104
923.984	3230
924.092	3127
924.201	3161
924.309	3203
924.417	3253
924.525	3218
924.633	3264
924.741	4036
924.849	3043
924.956	3272
925.064	3093
925.172	3051
925.279	3089
925.387	3180
925.494	3207
925.602	3329
925.709	3329
925.816	3192
925.924	3287
926.031	3370
926.138	3340
926.245	3336
926.352	3233
926.459	3374
926.566	3477
926.673	3348
926.779	3207
926.886	3256
926.993	3161
927.099	3112
927.206	3074
927.312	3093
927.419	3237
927.525	3150
927.631	3230
927.737	3169
927.843	3127
927.95	2979
928.056	3104
928.162	3138
928.267	3237
928.373	3808
928.479	3317
928.585	3032
928.69	3226
928.796	3264
928.901	3142
929.007	3028
929.112	3195
929.218	3176
929.323	3173
929.428	3169
929.533	3332
929.638	3104
929.743	3184
929.848	3249
929.953	3237
930.058	3146
930.163	3036
930.267	3024
930.372	3222
930.477	3028
930.581	3313
930.685	3150
930.79	3051
930.894	3173
930.998	3051
931.103	3298
931.207	2975
931.311	2918
931.415	2925
931.519	2739
931.623	2819
