Data from test_V78500241_1566.txt Node
Date: Fri Mar 25 16:26:03 CST 2022
User: usil
Spectrometer: V785-0024
Trigger mode: 0
Integration Time (sec): 4.000000E-1
Scans to average: 1
Nonlinearity correction enabled: false
Boxcar width: 0
Storing dark spectrum: false
XAxis mode: Wavelengths
Number of Pixels in Spectrum: 1024
>>>>>Begin Spectral Data<<<<<
801.071	2910
801.214	2971
801.356	2925
801.499	2887
801.641	2899
801.783	2922
801.926	3104
802.068	3009
802.211	3017
802.353	3024
802.496	2967
802.638	3032
802.78	3058
802.923	3104
803.065	3024
803.208	2914
803.35	2979
803.492	2944
803.635	2937
803.777	2758
803.919	2868
804.061	3211
804.204	2990
804.346	2906
804.488	2849
804.63	2986
804.773	2880
804.915	2922
805.057	3089
805.199	2975
805.341	2967
805.483	3074
805.626	2979
805.768	3001
805.91	3070
806.052	3108
806.194	3047
806.336	3230
806.478	3051
806.62	2998
806.762	2998
806.904	3074
807.046	3161
807.188	2994
807.33	2944
807.472	2986
807.614	2895
807.756	2994
807.898	2929
808.04	2906
808.182	2971
808.324	2925
808.465	2876
808.607	2868
808.749	2800
808.891	2857
809.033	2998
809.174	2990
809.316	2887
809.458	2899
809.6	2758
809.741	2792
809.883	2766
810.025	2842
810.166	2845
810.308	2853
810.45	2838
810.591	2781
810.733	2777
810.875	2842
811.016	2804
811.158	2788
811.299	2800
811.441	2937
811.582	2876
811.724	2853
811.865	2788
812.007	2891
812.148	2902
812.29	2845
812.431	2914
812.573	2929
812.714	2948
812.855	3017
812.997	3074
813.138	3116
813.279	3005
813.421	2986
813.562	2960
813.703	2834
813.845	2906
813.986	2762
814.127	2716
814.268	2823
814.41	2819
814.551	2796
814.692	2864
814.833	2826
814.974	2910
815.115	2902
815.256	2834
815.397	2842
815.539	2861
815.68	2796
815.821	2773
815.962	2902
816.103	2914
816.244	2868
816.385	2880
816.526	2948
816.666	2895
816.807	2754
816.948	2872
817.089	2918
817.23	2857
817.371	2785
817.512	2830
817.653	2807
817.793	2800
817.934	2849
818.075	2941
818.216	2986
818.356	3024
818.497	2872
818.638	2823
818.778	2834
818.919	2796
819.06	2788
819.2	2883
819.341	2811
819.481	2826
819.622	2899
819.762	3097
819.903	3058
820.043	2899
820.184	2914
820.324	2910
820.465	3047
820.605	3032
820.746	3043
820.886	2922
821.026	3043
821.167	3188
821.307	3268
821.447	3268
821.588	3272
821.728	3226
821.868	3203
822.008	3081
822.149	3203
822.289	3233
822.429	3104
822.569	3142
822.709	3192
822.849	3024
822.99	3077
823.13	3176
823.27	3180
823.41	3135
823.55	3169
823.69	3195
823.83	3199
823.97	3150
824.11	3024
824.25	3032
824.389	3146
824.529	3135
824.669	3165
824.809	3211
824.949	3302
825.089	3272
825.228	3214
825.368	3039
825.508	2975
825.648	2971
825.787	3032
825.927	3081
826.067	3017
826.206	2971
826.346	3077
826.485	3146
826.625	3135
826.765	3306
826.904	3233
827.044	3062
827.183	2998
827.323	2910
827.462	3043
827.601	2941
827.741	2994
827.88	2982
828.02	2891
828.159	3009
828.298	3104
828.437	3157
828.577	3074
828.716	3298
828.855	3150
828.994	2948
829.134	2910
829.273	2929
829.412	2906
829.551	2902
829.69	2933
829.829	3032
829.968	3176
830.107	3032
830.246	3081
830.385	2937
830.524	2925
830.663	2845
830.802	2800
830.941	2708
831.08	2686
831.219	2807
831.357	2838
831.496	2979
831.635	2788
831.774	2720
831.913	2689
832.051	2594
832.19	2629
832.329	2716
832.467	2613
832.606	2530
832.744	2613
832.883	2667
833.022	2606
833.16	2712
833.299	2689
833.437	2735
833.576	2743
833.714	2743
833.852	2743
833.991	2800
834.129	2937
834.267	2910
834.406	2796
834.544	2929
834.682	2891
834.821	2902
834.959	3116
835.097	2948
835.235	3119
835.373	3032
835.511	3051
835.65	2986
835.788	2979
835.926	2872
836.064	2849
836.202	2883
836.34	3127
836.478	3180
836.615	3097
836.753	3154
836.891	3218
837.029	3173
837.167	3123
837.305	3093
837.443	3058
837.58	3024
837.718	3165
837.856	3104
837.993	3062
838.131	3161
838.269	3131
838.406	3154
838.544	3135
838.681	2986
838.819	2967
838.956	2857
839.094	2902
839.231	2948
839.369	3100
839.506	3401
839.643	3222
839.781	3051
839.918	3001
840.055	3085
840.193	3066
840.33	3135
840.467	3142
840.604	3203
840.742	3439
840.879	3055
841.016	3062
841.153	3146
841.29	3348
841.427	3332
841.564	3287
841.701	3344
841.838	3230
841.975	3188
842.112	3233
842.249	3138
842.385	3085
842.522	3317
842.659	3150
842.796	3066
842.933	3100
843.069	3070
843.206	3058
843.343	3192
843.479	3123
843.616	3169
843.752	2914
843.889	2883
844.025	3104
844.162	2899
844.298	3108
844.435	2986
844.571	2963
844.708	3135
844.844	3230
844.98	3241
845.117	3214
845.253	3097
845.389	3066
845.525	3123
845.661	3100
845.798	3055
845.934	3146
846.07	3074
846.206	3260
846.342	3325
846.478	3241
846.614	3135
846.75	3066
846.886	3051
847.022	3298
847.158	3218
847.294	3245
847.429	3272
847.565	3249
847.701	3549
847.837	3066
847.972	3039
848.108	3195
848.244	3180
848.379	3036
848.515	2956
848.65	2956
848.786	2971
848.921	3024
849.057	3131
849.192	3195
849.328	3085
849.463	3154
849.598	3085
849.734	3066
849.869	2982
850.004	2956
850.14	3013
850.275	2963
850.41	2906
850.545	2952
850.68	2956
850.815	2967
850.95	2998
851.085	3192
851.22	3203
851.355	3036
851.49	3009
851.625	3036
851.76	3051
851.895	2986
852.03	2925
852.165	3058
852.299	3112
852.434	3195
852.569	3138
852.703	3233
852.838	3279
852.973	3355
853.107	3355
853.242	3169
853.376	3119
853.511	3032
853.645	3043
853.78	3249
853.914	3161
854.048	3176
854.183	3108
854.317	3180
854.451	3306
854.585	3119
854.72	3150
854.854	3245
854.988	3051
855.122	3119
855.256	2975
855.39	3119
855.524	3272
855.658	3241
855.792	3203
855.926	3249
856.06	3260
856.194	3268
856.327	3169
856.461	3097
856.595	3066
856.729	3119
856.862	3218
856.996	3157
857.13	3207
857.263	3237
857.397	3336
857.53	3142
857.664	3207
857.797	3275
857.931	3256
858.064	3207
858.197	3275
858.331	3161
858.464	3131
858.597	3020
858.731	3123
858.864	3116
858.997	3123
859.13	3214
859.263	3207
859.396	3214
859.529	3093
859.662	3093
859.795	3081
859.928	3180
860.061	3260
860.194	3317
860.327	3150
860.46	3146
860.592	3260
860.725	3279
860.858	3268
860.99	3138
861.123	3051
861.256	3085
861.388	3142
861.521	3873
861.653	3047
861.786	3047
861.918	3020
862.05	3062
862.183	3097
862.315	3146
862.447	3211
862.58	3081
862.712	2952
862.844	2876
862.976	3028
863.108	3028
863.24	3332
863.372	2861
863.504	3005
863.636	2986
863.768	3074
863.9	3028
864.032	2925
864.164	2925
864.296	3036
864.428	3119
864.559	3093
864.691	3089
864.823	3074
864.954	3058
865.086	3028
865.217	3024
865.349	2994
865.48	3032
865.612	3020
865.743	3184
865.875	3009
866.006	2944
866.137	3017
866.269	2948
866.4	2960
866.531	2963
866.662	2910
866.793	2891
866.924	2902
867.055	3013
867.186	2944
867.317	2922
867.448	2864
867.579	2815
867.71	2895
867.841	2853
867.972	2914
868.103	2922
868.233	2925
868.364	2899
868.495	2929
868.625	3116
868.756	3180
868.886	2990
869.017	3058
869.147	3211
869.278	3184
869.408	3074
869.539	3024
869.669	3116
869.799	3070
869.929	3188
870.06	3142
870.19	3344
870.32	3279
870.45	3344
870.58	3405
870.71	3526
870.84	3485
870.97	3351
871.1	3253
871.23	3481
871.36	3454
871.489	3355
871.619	3439
871.749	3409
871.879	3443
872.008	3507
872.138	3355
872.267	3275
872.397	3116
872.526	3119
872.656	3032
872.785	3104
872.915	3245
873.044	3332
873.173	3237
873.303	3291
873.432	3230
873.561	3253
873.69	3157
873.819	3169
873.948	3222
874.077	3135
874.206	3093
874.335	3093
874.464	3264
874.593	3405
874.722	3233
874.851	3450
874.979	3344
875.108	3336
875.237	3203
875.365	3211
875.494	3165
875.623	3275
875.751	3070
875.88	3123
876.008	3199
876.136	3241
876.265	3370
876.393	3500
876.521	3450
876.65	3416
876.778	3332
876.906	3306
877.034	3203
877.162	3275
877.29	3211
877.418	3245
877.546	3256
877.674	3275
877.802	3249
877.93	3222
878.058	3157
878.185	3108
878.313	3211
878.441	3222
878.568	3093
878.696	3180
878.824	3230
878.951	3336
879.079	3458
879.206	3606
879.333	3458
879.461	3367
879.588	3336
879.715	3507
879.842	3587
879.97	3412
880.097	3146
880.224	3119
880.351	3199
880.478	3222
880.605	3233
880.732	3218
880.859	3496
880.986	3325
881.112	3340
881.239	3222
881.366	3108
881.493	3047
881.619	3062
881.746	3074
881.872	3119
881.999	3142
882.125	3100
882.252	3233
882.378	3306
882.505	3431
882.631	3321
882.757	3203
882.883	3199
883.01	3245
883.136	3165
883.262	3154
883.388	3116
883.514	3382
883.64	3389
883.766	3325
883.892	3173
884.018	3241
884.143	3424
884.269	3507
884.395	3214
884.52	3150
884.646	3195
884.772	3127
884.897	3127
885.023	3195
885.148	3332
885.274	3435
885.399	3401
885.524	3298
885.65	3260
885.775	3344
885.9	3268
886.025	3397
886.15	3378
886.275	3272
886.4	3272
886.525	3313
886.65	3287
886.775	3260
886.9	3466
887.025	3633
887.149	3393
887.274	3287
887.399	3203
887.523	3176
887.648	3176
887.773	3180
887.897	3382
888.021	3409
888.146	3310
888.27	3454
888.395	3523
888.519	3428
888.643	3481
888.767	3477
888.891	3359
889.015	3249
889.139	3351
889.263	3283
889.387	3431
889.511	3519
889.635	3462
889.759	3268
889.883	3298
890.006	3355
890.13	3511
890.254	3264
890.377	3351
890.501	3222
890.624	3226
890.748	3313
890.871	3176
890.995	3108
891.118	3093
891.241	3192
891.364	3233
891.488	3344
891.611	3199
891.734	3241
891.857	3287
891.98	3237
892.103	3363
892.226	3325
892.349	3233
892.471	3150
892.594	3253
892.717	3313
892.839	3302
892.962	3313
893.085	3409
893.207	3302
893.33	3169
893.452	3157
893.575	3355
893.697	3264
893.819	3473
893.941	3507
894.064	3462
894.186	3302
894.308	3279
894.43	3420
894.552	3515
894.674	3469
894.796	3294
894.918	3310
895.04	3321
895.161	3447
895.283	3401
895.405	3268
895.526	3378
895.648	3431
895.769	3405
895.891	3450
896.012	3485
896.134	3481
896.255	3389
896.376	3382
896.498	3359
896.619	3462
896.74	3382
896.861	3462
896.982	3732
897.103	3880
897.224	3622
897.345	3507
897.466	3450
897.587	3515
897.708	3614
897.828	3587
897.949	3443
898.07	3325
898.19	3401
898.311	3618
898.431	3447
898.552	3568
898.672	3587
898.792	3564
898.913	3564
899.033	3401
899.153	3283
899.273	3283
899.393	3294
899.513	3340
899.633	3332
899.753	3336
899.873	3313
899.993	3386
900.113	3340
900.232	3401
900.352	3359
900.472	3275
900.591	3230
900.711	3302
900.83	3245
900.95	3466
901.069	3481
901.189	3348
901.308	3169
901.427	3154
901.546	3230
901.665	3294
901.784	3340
901.904	3211
902.023	3135
902.141	3028
902.26	3017
902.379	3150
902.498	3097
902.617	3051
902.735	3241
902.854	3218
902.973	3195
903.091	3032
903.21	3028
903.328	3165
903.446	3089
903.565	3112
903.683	3222
903.801	3165
903.919	3214
904.038	3279
904.156	3180
904.274	3313
904.392	3226
904.51	3298
904.627	3367
904.745	3439
904.863	3492
904.981	3249
905.098	3192
905.216	3222
905.334	3287
905.451	3317
905.569	3272
905.686	3397
905.803	3458
905.921	3294
906.038	3462
906.155	3382
906.272	3241
906.389	3344
906.506	3233
906.623	3272
906.74	3279
906.857	3173
906.974	3245
907.091	3496
907.208	3530
907.324	3481
907.441	3393
907.557	3233
907.674	3272
907.79	3226
907.907	3272
908.023	3393
908.139	3386
908.256	3329
908.372	3359
908.488	3348
908.604	3291
908.72	3253
908.836	3294
908.952	3264
909.068	3351
909.184	3534
909.3	3412
909.415	3454
909.531	3481
909.647	3287
909.762	3321
909.878	3287
909.993	3374
910.108	3321
910.224	3393
910.339	3374
910.454	3344
910.57	3287
910.685	3245
910.8	3545
910.915	3519
911.03	3469
911.145	3222
911.259	3253
911.374	3321
911.489	3241
911.604	3230
911.718	3112
911.833	3188
911.947	3032
912.062	2998
912.176	3176
912.291	3203
912.405	3214
912.519	3443
912.633	3443
912.748	3374
912.862	3287
912.976	3169
913.09	3055
913.204	3150
913.318	3222
913.431	3351
913.545	3351
913.659	3386
913.772	3340
913.886	3245
914	3180
914.113	3386
914.226	3412
914.34	3374
914.453	3188
914.566	3367
914.68	3298
914.793	3374
914.906	3154
915.019	3100
915.132	3055
915.245	3192
915.358	3211
915.47	3245
915.583	3283
915.696	3294
915.809	3409
915.921	3428
916.034	3237
916.146	3264
916.259	3241
916.371	3389
916.483	3424
916.595	3279
916.708	3348
916.82	3374
916.932	3359
917.044	3355
917.156	3370
917.268	3218
917.38	3298
917.491	3275
917.603	3382
917.715	3424
917.826	3450
917.938	3405
918.049	3264
918.161	3420
918.272	3568
918.384	3576
918.495	3481
918.606	3340
918.717	3329
918.828	3382
918.939	3389
919.05	3298
919.161	3378
919.272	3199
919.383	3283
919.494	3496
919.604	3709
919.715	3511
919.826	3393
919.936	3431
920.047	3580
920.157	3564
920.267	3781
920.378	3599
920.488	3530
920.598	3808
920.708	3987
920.818	3812
920.928	3831
921.038	4063
921.148	4010
921.258	3728
921.368	3671
921.477	3618
921.587	3485
921.697	3454
921.806	3637
921.916	3504
922.025	3363
922.134	3348
922.244	3325
922.353	3409
922.462	3268
922.571	3233
922.68	3116
922.789	3081
922.898	3165
923.007	3070
923.116	3203
923.224	3192
923.333	3184
923.442	3127
923.55	3077
923.659	3142
923.767	3222
923.876	3104
923.984	3241
924.092	3116
924.201	3173
924.309	3222
924.417	3275
924.525	3192
924.633	3214
924.741	4200
924.849	3051
924.956	3233
925.064	3051
925.172	3036
925.279	3108
925.387	3173
925.494	3199
925.602	3363
925.709	3310
925.816	3211
925.924	3294
926.031	3397
926.138	3310
926.245	3389
926.352	3279
926.459	3374
926.566	3485
926.673	3317
926.779	3230
926.886	3203
926.993	3077
927.099	3119
927.206	3131
927.312	3161
927.419	3199
927.525	3188
927.631	3249
927.737	3176
927.843	3138
927.95	3047
928.056	3150
928.162	3211
928.267	3291
928.373	3857
928.479	3313
928.585	3085
928.69	3199
928.796	3260
928.901	3203
929.007	3036
929.112	3222
929.218	3184
929.323	3135
929.428	3161
929.533	3310
929.638	3131
929.743	3176
929.848	3249
929.953	3249
930.058	3127
930.163	3001
930.267	3028
930.372	3188
930.477	3028
930.581	3336
930.685	3161
930.79	3036
930.894	3131
930.998	3070
931.103	3283
931.207	2979
931.311	2948
931.415	2929
931.519	2788
931.623	2815
