Data from test_V78500241_1283.txt Node
Date: Fri Mar 25 16:24:05 CST 2022
User: usil
Spectrometer: V785-0024
Trigger mode: 0
Integration Time (sec): 4.000000E-1
Scans to average: 1
Nonlinearity correction enabled: false
Boxcar width: 0
Storing dark spectrum: false
XAxis mode: Wavelengths
Number of Pixels in Spectrum: 1024
>>>>>Begin Spectral Data<<<<<
801.071	2929
801.214	2960
801.356	2918
801.499	2899
801.641	2902
801.783	2910
801.926	3077
802.068	2994
802.211	2982
802.353	3028
802.496	2986
802.638	3020
802.78	3028
802.923	3116
803.065	3020
803.208	2937
803.35	2944
803.492	2914
803.635	2948
803.777	2766
803.919	2918
804.061	3211
804.204	2979
804.346	2925
804.488	2868
804.63	2982
804.773	2864
804.915	2929
805.057	3108
805.199	2948
805.341	2998
805.483	3066
805.626	3051
805.768	2963
805.91	3112
806.052	3119
806.194	2990
806.336	3264
806.478	3043
806.62	2918
806.762	2990
806.904	3039
807.046	3173
807.188	3013
807.33	2933
807.472	3024
807.614	2971
807.756	2963
807.898	2971
808.04	2902
808.182	3017
808.324	2963
808.465	2887
808.607	2883
808.749	2807
808.891	2849
809.033	2994
809.174	2994
809.316	2956
809.458	2925
809.6	2750
809.741	2792
809.883	2807
810.025	2868
810.166	2899
810.308	2861
810.45	2902
810.591	2807
810.733	2769
810.875	2872
811.016	2773
811.158	2777
811.299	2830
811.441	2948
811.582	2937
811.724	2815
811.865	2796
812.007	2922
812.148	2895
812.29	2868
812.431	2883
812.573	2929
812.714	2952
812.855	3051
812.997	3051
813.138	3116
813.279	3009
813.421	2979
813.562	3036
813.703	2902
813.845	2933
813.986	2777
814.127	2724
814.268	2845
814.41	2807
814.551	2830
814.692	2891
814.833	2849
814.974	2922
815.115	2986
815.256	2849
815.397	2857
815.539	2899
815.68	2804
815.821	2762
815.962	2979
816.103	2937
816.244	2861
816.385	2861
816.526	2979
816.666	2952
816.807	2792
816.948	2880
817.089	2944
817.23	2872
817.371	2800
817.512	2815
817.653	2853
817.793	2823
817.934	2914
818.075	2933
818.216	3024
818.356	3066
818.497	2922
818.638	2796
818.778	2815
818.919	2785
819.06	2754
819.2	2895
819.341	2845
819.481	2804
819.622	2948
819.762	3085
819.903	3062
820.043	2948
820.184	2899
820.324	2887
820.465	3013
820.605	3005
820.746	3055
820.886	2963
821.026	3051
821.167	3135
821.307	3260
821.447	3275
821.588	3253
821.728	3241
821.868	3233
822.008	3074
822.149	3211
822.289	3241
822.429	3108
822.569	3123
822.709	3199
822.849	3032
822.99	3089
823.13	3165
823.27	3214
823.41	3119
823.55	3157
823.69	3169
823.83	3192
823.97	3104
824.11	2994
824.25	3032
824.389	3077
824.529	3112
824.669	3051
824.809	3214
824.949	3260
825.089	3222
825.228	3123
825.368	3005
825.508	2982
825.648	2979
825.787	3001
825.927	3047
826.067	2971
826.206	2925
826.346	3043
826.485	3077
826.625	3150
826.765	3256
826.904	3253
827.044	2982
827.183	2979
827.323	2861
827.462	3005
827.601	2899
827.741	2918
827.88	2956
828.02	2853
828.159	2994
828.298	3039
828.437	3123
828.577	3036
828.716	3275
828.855	3066
828.994	2944
829.134	2880
829.273	2918
829.412	2842
829.551	2895
829.69	2899
829.829	2986
829.968	3157
830.107	2986
830.246	3058
830.385	2960
830.524	2918
830.663	2804
830.802	2758
830.941	2629
831.08	2697
831.219	2766
831.357	2746
831.496	2925
831.635	2739
831.774	2655
831.913	2655
832.051	2530
832.19	2610
832.329	2667
832.467	2541
832.606	2484
832.744	2590
832.883	2613
833.022	2613
833.16	2632
833.299	2678
833.437	2708
833.576	2724
833.714	2731
833.852	2762
833.991	2766
834.129	2845
834.267	2823
834.406	2769
834.544	2868
834.682	2876
834.821	2872
834.959	3036
835.097	2910
835.235	3043
835.373	2986
835.511	3039
835.65	2944
835.788	2948
835.926	2845
836.064	2830
836.202	2807
836.34	3074
836.478	3165
836.615	3058
836.753	3127
836.891	3180
837.029	3161
837.167	3108
837.305	3089
837.443	3036
837.58	2971
837.718	3138
837.856	3032
837.993	3036
838.131	3108
838.269	3108
838.406	3093
838.544	3100
838.681	2933
838.819	2937
838.956	2800
839.094	2811
839.231	2891
839.369	3013
839.506	3363
839.643	3207
839.781	3043
839.918	2971
840.055	3024
840.193	3058
840.33	3070
840.467	3127
840.604	3150
840.742	3382
840.879	3062
841.016	3085
841.153	3100
841.29	3348
841.427	3279
841.564	3256
841.701	3306
841.838	3214
841.975	3176
842.112	3226
842.249	3104
842.385	3036
842.522	3294
842.659	3055
842.796	3089
842.933	3116
843.069	3058
843.206	3058
843.343	3192
843.479	3097
843.616	3157
843.752	2887
843.889	2891
844.025	3062
844.162	2899
844.298	3077
844.435	2933
844.571	2914
844.708	3116
844.844	3199
844.98	3256
845.117	3214
845.253	3070
845.389	3036
845.525	3123
845.661	3097
845.798	3039
845.934	3157
846.07	3039
846.206	3207
846.342	3279
846.478	3249
846.614	3119
846.75	3104
846.886	2975
847.022	3207
847.158	3123
847.294	3233
847.429	3264
847.565	3214
847.701	3481
847.837	3043
847.972	2994
848.108	3142
848.244	3203
848.379	3024
848.515	2944
848.65	2937
848.786	2960
848.921	3032
849.057	3077
849.192	3154
849.328	3062
849.463	3116
849.598	3043
849.734	3036
849.869	2998
850.004	2910
850.14	2941
850.275	2899
850.41	2861
850.545	2899
850.68	2902
850.815	2963
850.95	2952
851.085	3188
851.22	3104
851.355	3020
851.49	3024
851.625	3024
851.76	3032
851.895	2925
852.03	2891
852.165	3039
852.299	3116
852.434	3207
852.569	3184
852.703	3195
852.838	3272
852.973	3313
853.107	3321
853.242	3146
853.376	3089
853.511	3013
853.645	3055
853.78	3256
853.914	3131
854.048	3108
854.183	3104
854.317	3165
854.451	3241
854.585	3135
854.72	3104
854.854	3195
854.988	3051
855.122	3123
855.256	2960
855.39	3104
855.524	3233
855.658	3192
855.792	3138
855.926	3188
856.06	3154
856.194	3260
856.327	3150
856.461	3074
856.595	3058
856.729	3047
856.862	3203
856.996	3169
857.13	3176
857.263	3207
857.397	3310
857.53	3142
857.664	3199
857.797	3272
857.931	3245
858.064	3157
858.197	3218
858.331	3104
858.464	3112
858.597	3013
858.731	3135
858.864	3116
858.997	3055
859.13	3173
859.263	3138
859.396	3214
859.529	3058
859.662	3097
859.795	3074
859.928	3142
860.061	3306
860.194	3264
860.327	3100
860.46	3108
860.592	3230
860.725	3256
860.858	3249
860.99	3100
861.123	3062
861.256	3070
861.388	3108
861.521	3728
861.653	3001
861.786	3009
861.918	2979
862.05	3055
862.183	3070
862.315	3116
862.447	3226
862.58	3093
862.712	2948
862.844	2853
862.976	2994
863.108	3005
863.24	3348
863.372	2864
863.504	2975
863.636	2910
863.768	3017
863.9	2944
864.032	2891
864.164	2956
864.296	3028
864.428	3085
864.559	3112
864.691	3085
864.823	3047
864.954	3036
865.086	3039
865.217	2986
865.349	2952
865.48	2922
865.612	3005
865.743	3119
865.875	3005
866.006	2895
866.137	2952
866.269	2925
866.4	2929
866.531	2906
866.662	2887
866.793	2925
866.924	2906
867.055	2994
867.186	2914
867.317	2876
867.448	2807
867.579	2853
867.71	2902
867.841	2819
867.972	2883
868.103	2918
868.233	2899
868.364	2887
868.495	2922
868.625	3058
868.756	3123
868.886	2994
869.017	3024
869.147	3207
869.278	3142
869.408	3028
869.539	3062
869.669	3112
869.799	3024
869.929	3161
870.06	3112
870.19	3325
870.32	3275
870.45	3306
870.58	3382
870.71	3454
870.84	3424
870.97	3294
871.1	3253
871.23	3477
871.36	3439
871.489	3325
871.619	3389
871.749	3439
871.879	3443
872.008	3485
872.138	3344
872.267	3256
872.397	3154
872.526	3093
872.656	3001
872.785	3116
872.915	3237
873.044	3294
873.173	3233
873.303	3222
873.432	3230
873.561	3203
873.69	3154
873.819	3157
873.948	3150
874.077	3112
874.206	3055
874.335	3100
874.464	3226
874.593	3325
874.722	3230
874.851	3386
874.979	3344
875.108	3260
875.237	3138
875.365	3127
875.494	3131
875.623	3237
875.751	3089
875.88	3089
876.008	3165
876.136	3241
876.265	3348
876.393	3515
876.521	3412
876.65	3374
876.778	3317
876.906	3268
877.034	3211
877.162	3226
877.29	3165
877.418	3230
877.546	3230
877.674	3218
877.802	3211
877.93	3218
878.058	3154
878.185	3097
878.313	3180
878.441	3192
878.568	3093
878.696	3150
878.824	3268
878.951	3264
879.079	3481
879.206	3618
879.333	3416
879.461	3294
879.588	3355
879.715	3492
879.842	3557
879.97	3393
880.097	3138
880.224	3116
880.351	3214
880.478	3253
880.605	3176
880.732	3161
880.859	3515
880.986	3298
881.112	3294
881.239	3165
881.366	3066
881.493	3039
881.619	3013
881.746	3100
881.872	3077
881.999	3070
882.125	3123
882.252	3211
882.378	3279
882.505	3420
882.631	3283
882.757	3157
882.883	3237
883.01	3214
883.136	3173
883.262	3077
883.388	3085
883.514	3310
883.64	3313
883.766	3279
883.892	3169
884.018	3233
884.143	3405
884.269	3500
884.395	3203
884.52	3176
884.646	3176
884.772	3100
884.897	3100
885.023	3203
885.148	3306
885.274	3389
885.399	3405
885.524	3291
885.65	3233
885.775	3306
885.9	3275
886.025	3416
886.15	3340
886.275	3294
886.4	3226
886.525	3253
886.65	3272
886.775	3241
886.9	3519
887.025	3644
887.149	3416
887.274	3245
887.399	3199
887.523	3218
887.648	3199
887.773	3211
887.897	3386
888.021	3447
888.146	3275
888.27	3428
888.395	3496
888.519	3401
888.643	3447
888.767	3412
888.891	3340
889.015	3176
889.139	3275
889.263	3245
889.387	3428
889.511	3515
889.635	3458
889.759	3310
889.883	3275
890.006	3374
890.13	3473
890.254	3294
890.377	3367
890.501	3173
890.624	3165
890.748	3302
890.871	3218
890.995	3074
891.118	3097
891.241	3180
891.364	3264
891.488	3336
891.611	3195
891.734	3203
891.857	3279
891.98	3260
892.103	3340
892.226	3294
892.349	3199
892.471	3123
892.594	3272
892.717	3302
892.839	3233
892.962	3249
893.085	3321
893.207	3294
893.33	3146
893.452	3184
893.575	3348
893.697	3283
893.819	3431
893.941	3481
894.064	3416
894.186	3253
894.308	3264
894.43	3424
894.552	3466
894.674	3523
894.796	3287
894.918	3306
895.04	3283
895.161	3378
895.283	3424
895.405	3272
895.526	3370
895.648	3481
895.769	3389
895.891	3420
896.012	3481
896.134	3462
896.255	3401
896.376	3401
896.498	3348
896.619	3393
896.74	3359
896.861	3424
896.982	3690
897.103	3865
897.224	3584
897.345	3515
897.466	3420
897.587	3466
897.708	3599
897.828	3519
897.949	3462
898.07	3294
898.19	3378
898.311	3625
898.431	3447
898.552	3511
898.672	3572
898.792	3519
898.913	3538
899.033	3370
899.153	3260
899.273	3207
899.393	3253
899.513	3313
899.633	3298
899.753	3325
899.873	3302
899.993	3374
900.113	3317
900.232	3389
900.352	3325
900.472	3294
900.591	3203
900.711	3313
900.83	3222
900.95	3401
901.069	3488
901.189	3359
901.308	3135
901.427	3157
901.546	3169
901.665	3275
901.784	3291
901.904	3222
902.023	3123
902.141	3024
902.26	2979
902.379	3138
902.498	3108
902.617	3032
902.735	3169
902.854	3222
902.973	3142
903.091	3043
903.21	3051
903.328	3131
903.446	3104
903.565	3085
903.683	3207
903.801	3108
903.919	3253
904.038	3287
904.156	3157
904.274	3268
904.392	3241
904.51	3283
904.627	3336
904.745	3481
904.863	3496
904.981	3241
905.098	3192
905.216	3226
905.334	3264
905.451	3313
905.569	3283
905.686	3420
905.803	3401
905.921	3283
906.038	3469
906.155	3370
906.272	3264
906.389	3310
906.506	3249
906.623	3249
906.74	3260
906.857	3192
906.974	3253
907.091	3485
907.208	3557
907.324	3450
907.441	3374
907.557	3222
907.674	3230
907.79	3237
907.907	3275
908.023	3386
908.139	3405
908.256	3348
908.372	3378
908.488	3332
908.604	3241
908.72	3199
908.836	3294
908.952	3283
909.068	3351
909.184	3477
909.3	3370
909.415	3530
909.531	3492
909.647	3260
909.762	3294
909.878	3241
909.993	3351
910.108	3313
910.224	3302
910.339	3397
910.454	3351
910.57	3256
910.685	3253
910.8	3599
910.915	3496
911.03	3405
911.145	3275
911.259	3287
911.374	3291
911.489	3256
911.604	3233
911.718	3127
911.833	3123
911.947	3028
912.062	2971
912.176	3157
912.291	3207
912.405	3218
912.519	3435
912.633	3454
912.748	3294
912.862	3264
912.976	3165
913.09	3077
913.204	3131
913.318	3188
913.431	3329
913.545	3325
913.659	3378
913.772	3313
913.886	3214
914	3169
914.113	3355
914.226	3370
914.34	3351
914.453	3218
914.566	3405
914.68	3321
914.793	3298
914.906	3154
915.019	3138
915.132	3066
915.245	3192
915.358	3195
915.47	3226
915.583	3241
915.696	3283
915.809	3409
915.921	3409
916.034	3260
916.146	3211
916.259	3245
916.371	3370
916.483	3317
916.595	3260
916.708	3336
916.82	3310
916.932	3302
917.044	3332
917.156	3359
917.268	3230
917.38	3272
917.491	3294
917.603	3378
917.715	3454
917.826	3481
917.938	3386
918.049	3233
918.161	3428
918.272	3545
918.384	3530
918.495	3488
918.606	3310
918.717	3298
918.828	3348
918.939	3409
919.05	3287
919.161	3363
919.272	3184
919.383	3287
919.494	3519
919.604	3671
919.715	3466
919.826	3386
919.936	3454
920.047	3545
920.157	3549
920.267	3762
920.378	3587
920.488	3523
920.598	3781
920.708	3949
920.818	3819
920.928	3842
921.038	3994
921.148	3937
921.258	3709
921.368	3652
921.477	3545
921.587	3526
921.697	3439
921.806	3641
921.916	3504
922.025	3363
922.134	3363
922.244	3310
922.353	3409
922.462	3272
922.571	3226
922.68	3093
922.789	3066
922.898	3138
923.007	3058
923.116	3188
923.224	3161
923.333	3195
923.442	3112
923.55	3077
923.659	3131
923.767	3154
923.876	3097
923.984	3230
924.092	3116
924.201	3165
924.309	3256
924.417	3237
924.525	3211
924.633	3230
924.741	4013
924.849	3039
924.956	3230
925.064	3055
925.172	3028
925.279	3108
925.387	3207
925.494	3207
925.602	3336
925.709	3306
925.816	3188
925.924	3291
926.031	3378
926.138	3336
926.245	3348
926.352	3268
926.459	3439
926.566	3439
926.673	3302
926.779	3253
926.886	3287
926.993	3138
927.099	3112
927.206	3116
927.312	3112
927.419	3176
927.525	3211
927.631	3283
927.737	3127
927.843	3097
927.95	3013
928.056	3104
928.162	3188
928.267	3283
928.373	3850
928.479	3306
928.585	3081
928.69	3195
928.796	3241
928.901	3146
929.007	3036
929.112	3192
929.218	3195
929.323	3142
929.428	3169
929.533	3291
929.638	3097
929.743	3135
929.848	3287
929.953	3230
930.058	3135
930.163	3028
930.267	3051
930.372	3226
930.477	3028
930.581	3298
930.685	3207
930.79	3097
930.894	3119
930.998	3066
931.103	3306
931.207	2960
931.311	2952
931.415	2925
931.519	2785
931.623	2830
