Data from test_V78500241_767.txt Node
Date: Fri Mar 25 16:20:31 CST 2022
User: usil
Spectrometer: V785-0024
Trigger mode: 0
Integration Time (sec): 4.000000E-1
Scans to average: 1
Nonlinearity correction enabled: false
Boxcar width: 0
Storing dark spectrum: false
XAxis mode: Wavelengths
Number of Pixels in Spectrum: 1024
>>>>>Begin Spectral Data<<<<<
801.071	2929
801.214	2956
801.356	2876
801.499	2902
801.641	2910
801.783	2963
801.926	3055
802.068	3024
802.211	2994
802.353	3081
802.496	3020
802.638	3020
802.78	3070
802.923	3070
803.065	3032
803.208	2895
803.35	2895
803.492	2963
803.635	2933
803.777	2766
803.919	2872
804.061	3192
804.204	2979
804.346	2937
804.488	2853
804.63	3024
804.773	2899
804.915	2948
805.057	3108
805.199	2937
805.341	2963
805.483	3051
805.626	2979
805.768	2986
805.91	3081
806.052	3112
806.194	3024
806.336	3226
806.478	3043
806.62	2956
806.762	2990
806.904	3081
807.046	3184
807.188	2998
807.33	2937
807.472	2982
807.614	2929
807.756	2979
807.898	2929
808.04	2914
808.182	2960
808.324	2998
808.465	2941
808.607	2864
808.749	2800
808.891	2853
809.033	2975
809.174	2994
809.316	2861
809.458	2883
809.6	2773
809.741	2781
809.883	2777
810.025	2849
810.166	2872
810.308	2830
810.45	2868
810.591	2766
810.733	2785
810.875	2845
811.016	2773
811.158	2746
811.299	2800
811.441	2941
811.582	2941
811.724	2823
811.865	2815
812.007	2891
812.148	2883
812.29	2819
812.431	2880
812.573	2982
812.714	2948
812.855	3051
812.997	3047
813.138	3127
813.279	3020
813.421	2990
813.562	2975
813.703	2868
813.845	2895
813.986	2758
814.127	2735
814.268	2819
814.41	2807
814.551	2826
814.692	2842
814.833	2796
814.974	2876
815.115	2944
815.256	2823
815.397	2807
815.539	2838
815.68	2766
815.821	2834
815.962	2952
816.103	2910
816.244	2857
816.385	2868
816.526	2944
816.666	2933
816.807	2746
816.948	2906
817.089	2937
817.23	2815
817.371	2758
817.512	2777
817.653	2864
817.793	2853
817.934	2845
818.075	2963
818.216	2975
818.356	3032
818.497	2861
818.638	2792
818.778	2830
818.919	2788
819.06	2746
819.2	2887
819.341	2800
819.481	2804
819.622	2944
819.762	3081
819.903	3055
820.043	2891
820.184	2929
820.324	2906
820.465	3013
820.605	3043
820.746	3039
820.886	2963
821.026	3089
821.167	3150
821.307	3245
821.447	3302
821.588	3222
821.728	3222
821.868	3188
822.008	3093
822.149	3199
822.289	3245
822.429	3097
822.569	3081
822.709	3184
822.849	3005
822.99	3074
823.13	3218
823.27	3173
823.41	3100
823.55	3127
823.69	3138
823.83	3188
823.97	3077
824.11	2998
824.25	2975
824.389	3032
824.529	3089
824.669	3043
824.809	3203
824.949	3230
825.089	3195
825.228	3165
825.368	3051
825.508	2975
825.648	2986
825.787	3032
825.927	3032
826.067	2971
826.206	2986
826.346	3032
826.485	3055
826.625	3100
826.765	3253
826.904	3188
827.044	3017
827.183	2937
827.323	2861
827.462	3017
827.601	2918
827.741	2895
827.88	2929
828.02	2895
828.159	2982
828.298	3028
828.437	3127
828.577	3036
828.716	3241
828.855	3074
828.994	2899
829.134	2880
829.273	2906
829.412	2849
829.551	2849
829.69	2910
829.829	3013
829.968	3119
830.107	3017
830.246	3051
830.385	2902
830.524	2864
830.663	2807
830.802	2731
830.941	2648
831.08	2629
831.219	2800
831.357	2724
831.496	2967
831.635	2716
831.774	2636
831.913	2640
832.051	2583
832.19	2560
832.329	2667
832.467	2568
832.606	2469
832.744	2606
832.883	2575
833.022	2552
833.16	2651
833.299	2689
833.437	2701
833.576	2701
833.714	2716
833.852	2727
833.991	2739
834.129	2826
834.267	2826
834.406	2796
834.544	2864
834.682	2872
834.821	2845
834.959	3074
835.097	2853
835.235	3032
835.373	3013
835.511	2982
835.65	2963
835.788	2960
835.926	2826
836.064	2811
836.202	2842
836.34	3089
836.478	3131
836.615	3043
836.753	3146
836.891	3184
837.029	3112
837.167	3100
837.305	3036
837.443	3020
837.58	2967
837.718	3135
837.856	3077
837.993	3043
838.131	3131
838.269	3112
838.406	3093
838.544	3047
838.681	2941
838.819	2902
838.956	2853
839.094	2819
839.231	2899
839.369	2982
839.506	3382
839.643	3199
839.781	3001
839.918	2952
840.055	3077
840.193	3070
840.33	3062
840.467	3112
840.604	3131
840.742	3382
840.879	3009
841.016	3055
841.153	3142
841.29	3348
841.427	3275
841.564	3241
841.701	3283
841.838	3237
841.975	3184
842.112	3180
842.249	3081
842.385	3043
842.522	3264
842.659	3066
842.796	3081
842.933	3104
843.069	3024
843.206	3074
843.343	3195
843.479	3119
843.616	3142
843.752	2883
843.889	2880
844.025	3055
844.162	2887
844.298	3093
844.435	2967
844.571	2925
844.708	3070
844.844	3203
844.98	3218
845.117	3180
845.253	3039
845.389	2994
845.525	3100
845.661	3108
845.798	2975
845.934	3127
846.07	3066
846.206	3195
846.342	3294
846.478	3222
846.614	3043
846.75	3039
846.886	3024
847.022	3275
847.158	3131
847.294	3180
847.429	3207
847.565	3207
847.701	3469
847.837	3017
847.972	3017
848.108	3169
848.244	3119
848.379	2979
848.515	2944
848.65	2929
848.786	2963
848.921	3005
849.057	3116
849.192	3154
849.328	3020
849.463	3081
849.598	3062
849.734	3009
849.869	2960
850.004	2899
850.14	2982
850.275	2914
850.41	2807
850.545	2880
850.68	2922
850.815	2944
850.95	3001
851.085	3169
851.22	3135
851.355	3005
851.49	2990
851.625	2967
851.76	2994
851.895	2948
852.03	2895
852.165	3066
852.299	3085
852.434	3146
852.569	3131
852.703	3146
852.838	3283
852.973	3359
853.107	3313
853.242	3138
853.376	3062
853.511	2971
853.645	3051
853.78	3230
853.914	3085
854.048	3108
854.183	3062
854.317	3180
854.451	3298
854.585	3077
854.72	3066
854.854	3176
854.988	3070
855.122	3081
855.256	2933
855.39	3100
855.524	3211
855.658	3237
855.792	3150
855.926	3188
856.06	3245
856.194	3264
856.327	3123
856.461	3085
856.595	3074
856.729	3066
856.862	3195
856.996	3116
857.13	3176
857.263	3218
857.397	3294
857.53	3089
857.664	3119
857.797	3214
857.931	3306
858.064	3165
858.197	3154
858.331	3119
858.464	3093
858.597	2994
858.731	3093
858.864	3150
858.997	3047
859.13	3157
859.263	3192
859.396	3226
859.529	3093
859.662	3055
859.795	3043
859.928	3127
860.061	3249
860.194	3260
860.327	3154
860.46	3047
860.592	3226
860.725	3237
860.858	3260
860.99	3112
861.123	3009
861.256	3036
861.388	3093
861.521	3922
861.653	3028
861.786	2956
861.918	2963
862.05	3051
862.183	3108
862.315	3142
862.447	3176
862.58	3020
862.712	2948
862.844	2857
862.976	2998
863.108	2994
863.24	3416
863.372	2914
863.504	2944
863.636	2895
863.768	3024
863.9	2998
864.032	2899
864.164	2899
864.296	2986
864.428	3097
864.559	3100
864.691	3066
864.823	3051
864.954	3055
865.086	3043
865.217	2975
865.349	2948
865.48	2941
865.612	3009
865.743	3146
865.875	3017
866.006	2963
866.137	2979
866.269	2910
866.4	2929
866.531	2902
866.662	2895
866.793	2899
866.924	2868
867.055	2982
867.186	2910
867.317	2853
867.448	2830
867.579	2830
867.71	2868
867.841	2826
867.972	2876
868.103	2925
868.233	2834
868.364	2872
868.495	2925
868.625	3055
868.756	3093
868.886	2952
869.017	3028
869.147	3169
869.278	3214
869.408	3020
869.539	3024
869.669	3066
869.799	3005
869.929	3116
870.06	3138
870.19	3264
870.32	3283
870.45	3283
870.58	3409
870.71	3481
870.84	3458
870.97	3256
871.1	3214
871.23	3466
871.36	3447
871.489	3363
871.619	3374
871.749	3389
871.879	3431
872.008	3469
872.138	3325
872.267	3207
872.397	3138
872.526	3081
872.656	2986
872.785	3108
872.915	3207
873.044	3329
873.173	3264
873.303	3245
873.432	3233
873.561	3256
873.69	3150
873.819	3157
873.948	3180
874.077	3108
874.206	3017
874.335	3070
874.464	3207
874.593	3340
874.722	3218
874.851	3374
874.979	3329
875.108	3325
875.237	3176
875.365	3173
875.494	3135
875.623	3233
875.751	3039
875.88	3127
876.008	3214
876.136	3207
876.265	3355
876.393	3492
876.521	3412
876.65	3367
876.778	3294
876.906	3233
877.034	3157
877.162	3230
877.29	3150
877.418	3256
877.546	3279
877.674	3237
877.802	3192
877.93	3207
878.058	3146
878.185	3097
878.313	3192
878.441	3207
878.568	3074
878.696	3131
878.824	3237
878.951	3298
879.079	3389
879.206	3622
879.333	3405
879.461	3310
879.588	3329
879.715	3462
879.842	3568
879.97	3374
880.097	3188
880.224	3116
880.351	3142
880.478	3211
880.605	3241
880.732	3146
880.859	3515
880.986	3306
881.112	3359
881.239	3184
881.366	3066
881.493	3043
881.619	3036
881.746	3051
881.872	3104
881.999	3093
882.125	3123
882.252	3233
882.378	3264
882.505	3431
882.631	3233
882.757	3138
882.883	3237
883.01	3184
883.136	3176
883.262	3085
883.388	3142
883.514	3310
883.64	3370
883.766	3298
883.892	3192
884.018	3230
884.143	3351
884.269	3523
884.395	3161
884.52	3142
884.646	3203
884.772	3146
884.897	3112
885.023	3203
885.148	3294
885.274	3386
885.399	3359
885.524	3287
885.65	3256
885.775	3321
885.9	3241
886.025	3374
886.15	3348
886.275	3306
886.4	3222
886.525	3329
886.65	3245
886.775	3272
886.9	3496
887.025	3606
887.149	3378
887.274	3214
887.399	3176
887.523	3184
887.648	3199
887.773	3180
887.897	3351
888.021	3386
888.146	3283
888.27	3431
888.395	3534
888.519	3405
888.643	3397
888.767	3481
888.891	3306
889.015	3214
889.139	3264
889.263	3241
889.387	3393
889.511	3515
889.635	3386
889.759	3272
889.883	3256
890.006	3340
890.13	3466
890.254	3256
890.377	3325
890.501	3192
890.624	3176
890.748	3321
890.871	3169
890.995	3070
891.118	3039
891.241	3199
891.364	3230
891.488	3279
891.611	3142
891.734	3237
891.857	3298
891.98	3272
892.103	3340
892.226	3253
892.349	3222
892.471	3119
892.594	3233
892.717	3294
892.839	3256
892.962	3268
893.085	3363
893.207	3275
893.33	3138
893.452	3195
893.575	3386
893.697	3169
893.819	3477
893.941	3481
894.064	3431
894.186	3272
894.308	3310
894.43	3389
894.552	3542
894.674	3473
894.796	3287
894.918	3302
895.04	3245
895.161	3405
895.283	3370
895.405	3321
895.526	3367
895.648	3435
895.769	3450
895.891	3450
896.012	3447
896.134	3431
896.255	3367
896.376	3389
896.498	3340
896.619	3393
896.74	3355
896.861	3428
896.982	3698
897.103	3781
897.224	3591
897.345	3511
897.466	3416
897.587	3526
897.708	3618
897.828	3515
897.949	3397
898.07	3344
898.19	3424
898.311	3580
898.431	3431
898.552	3485
898.672	3591
898.792	3591
898.913	3561
899.033	3367
899.153	3272
899.273	3192
899.393	3287
899.513	3348
899.633	3317
899.753	3317
899.873	3313
899.993	3359
900.113	3313
900.232	3329
900.352	3363
900.472	3245
900.591	3192
900.711	3264
900.83	3214
900.95	3424
901.069	3466
901.189	3291
901.308	3169
901.427	3112
901.546	3192
901.665	3237
901.784	3294
901.904	3211
902.023	3150
902.141	2994
902.26	2990
902.379	3127
902.498	3085
902.617	3070
902.735	3211
902.854	3237
902.973	3211
903.091	3047
903.21	3043
903.328	3138
903.446	3093
903.565	3108
903.683	3211
903.801	3154
903.919	3249
904.038	3279
904.156	3142
904.274	3272
904.392	3226
904.51	3287
904.627	3329
904.745	3382
904.863	3515
904.981	3233
905.098	3161
905.216	3253
905.334	3283
905.451	3260
905.569	3283
905.686	3393
905.803	3458
905.921	3291
906.038	3409
906.155	3279
906.272	3241
906.389	3321
906.506	3237
906.623	3241
906.74	3245
906.857	3180
906.974	3245
907.091	3412
907.208	3538
907.324	3534
907.441	3367
907.557	3245
907.674	3207
907.79	3207
907.907	3256
908.023	3355
908.139	3306
908.256	3317
908.372	3332
908.488	3348
908.604	3222
908.72	3237
908.836	3268
908.952	3283
909.068	3332
909.184	3462
909.3	3374
909.415	3530
909.531	3473
909.647	3291
909.762	3241
909.878	3264
909.993	3351
910.108	3363
910.224	3340
910.339	3367
910.454	3321
910.57	3283
910.685	3233
910.8	3587
910.915	3530
911.03	3401
911.145	3268
911.259	3237
911.374	3306
911.489	3241
911.604	3222
911.718	3108
911.833	3146
911.947	3024
912.062	2960
912.176	3180
912.291	3161
912.405	3207
912.519	3370
912.633	3462
912.748	3291
912.862	3260
912.976	3127
913.09	3047
913.204	3127
913.318	3188
913.431	3306
913.545	3332
913.659	3355
913.772	3329
913.886	3249
914	3199
914.113	3340
914.226	3397
914.34	3344
914.453	3165
914.566	3370
914.68	3260
914.793	3287
914.906	3135
915.019	3173
915.132	3032
915.245	3150
915.358	3199
915.47	3218
915.583	3230
915.696	3287
915.809	3416
915.921	3435
916.034	3249
916.146	3218
916.259	3230
916.371	3374
916.483	3359
916.595	3237
916.708	3336
916.82	3329
916.932	3351
917.044	3336
917.156	3351
917.268	3253
917.38	3298
917.491	3348
917.603	3348
917.715	3458
917.826	3507
917.938	3374
918.049	3283
918.161	3428
918.272	3587
918.384	3557
918.495	3504
918.606	3340
918.717	3294
918.828	3397
918.939	3450
919.05	3329
919.161	3424
919.272	3214
919.383	3317
919.494	3526
919.604	3679
919.715	3580
919.826	3435
919.936	3473
920.047	3587
920.157	3564
920.267	3812
920.378	3641
920.488	3644
920.598	3823
920.708	3987
920.818	3857
920.928	3869
921.038	4101
921.148	4067
921.258	3736
921.368	3652
921.477	3641
921.587	3572
921.697	3523
921.806	3660
921.916	3538
922.025	3401
922.134	3378
922.244	3367
922.353	3462
922.462	3325
922.571	3291
922.68	3116
922.789	3097
922.898	3161
923.007	3135
923.116	3279
923.224	3188
923.333	3237
923.442	3104
923.55	3157
923.659	3230
923.767	3222
923.876	3138
923.984	3253
924.092	3131
924.201	3233
924.309	3283
924.417	3272
924.525	3199
924.633	3313
924.741	4211
924.849	3081
924.956	3325
925.064	3138
925.172	3112
925.279	3138
925.387	3218
925.494	3241
925.602	3431
925.709	3386
925.816	3230
925.924	3325
926.031	3401
926.138	3340
926.245	3405
926.352	3256
926.459	3458
926.566	3496
926.673	3359
926.779	3313
926.886	3260
926.993	3184
927.099	3161
927.206	3184
927.312	3150
927.419	3226
927.525	3237
927.631	3317
927.737	3169
927.843	3123
927.95	3108
928.056	3154
928.162	3195
928.267	3275
928.373	3793
928.479	3359
928.585	3097
928.69	3260
928.796	3321
928.901	3188
929.007	3100
929.112	3237
929.218	3233
929.323	3173
929.428	3161
929.533	3378
929.638	3157
929.743	3230
929.848	3291
929.953	3272
930.058	3188
930.163	3009
930.267	3066
930.372	3188
930.477	3074
930.581	3344
930.685	3218
930.79	3051
930.894	3150
930.998	3127
931.103	3268
931.207	3028
931.311	2948
931.415	2956
931.519	2807
931.623	2811
