Data from test_V78500241_969.txt Node
Date: Fri Mar 25 16:21:54 CST 2022
User: usil
Spectrometer: V785-0024
Trigger mode: 0
Integration Time (sec): 4.000000E-1
Scans to average: 1
Nonlinearity correction enabled: false
Boxcar width: 0
Storing dark spectrum: false
XAxis mode: Wavelengths
Number of Pixels in Spectrum: 1024
>>>>>Begin Spectral Data<<<<<
801.071	2937
801.214	2971
801.356	2883
801.499	2876
801.641	2880
801.783	2960
801.926	3070
802.068	2982
802.211	2994
802.353	3066
802.496	2971
802.638	3020
802.78	3043
802.923	3108
803.065	3005
803.208	2918
803.35	2922
803.492	2933
803.635	2963
803.777	2800
803.919	2842
804.061	3222
804.204	2960
804.346	2906
804.488	2845
804.63	2998
804.773	2876
804.915	2952
805.057	3104
805.199	2952
805.341	2990
805.483	3081
805.626	2963
805.768	2982
805.91	3089
806.052	3116
806.194	3066
806.336	3222
806.478	3058
806.62	2914
806.762	2922
806.904	3009
807.046	3188
807.188	2967
807.33	2944
807.472	2998
807.614	2906
807.756	3005
807.898	2944
808.04	2906
808.182	2982
808.324	2948
808.465	2876
808.607	2872
808.749	2819
808.891	2834
809.033	2990
809.174	2963
809.316	2925
809.458	2864
809.6	2762
809.741	2777
809.883	2766
810.025	2830
810.166	2826
810.308	2857
810.45	2823
810.591	2758
810.733	2773
810.875	2842
811.016	2807
811.158	2750
811.299	2800
811.441	2925
811.582	2887
811.724	2815
811.865	2826
812.007	2944
812.148	2861
812.29	2830
812.431	2872
812.573	2963
812.714	2948
812.855	3058
812.997	3058
813.138	3119
813.279	3020
813.421	2963
813.562	2914
813.703	2891
813.845	2895
813.986	2773
814.127	2754
814.268	2800
814.41	2834
814.551	2811
814.692	2868
814.833	2796
814.974	2857
815.115	2948
815.256	2826
815.397	2838
815.539	2857
815.68	2785
815.821	2800
815.962	2922
816.103	2899
816.244	2883
816.385	2876
816.526	2990
816.666	2956
816.807	2762
816.948	2891
817.089	2906
817.23	2838
817.371	2792
817.512	2804
817.653	2849
817.793	2830
817.934	2902
818.075	2967
818.216	3028
818.356	3024
818.497	2895
818.638	2777
818.778	2853
818.919	2815
819.06	2743
819.2	2857
819.341	2826
819.481	2781
819.622	2910
819.762	3070
819.903	3055
820.043	2948
820.184	2906
820.324	2895
820.465	3013
820.605	3024
820.746	3032
820.886	2937
821.026	3062
821.167	3150
821.307	3275
821.447	3298
821.588	3226
821.728	3226
821.868	3135
822.008	3093
822.149	3203
822.289	3184
822.429	3074
822.569	3104
822.709	3207
822.849	3017
822.99	3066
823.13	3169
823.27	3211
823.41	3097
823.55	3123
823.69	3135
823.83	3203
823.97	3108
824.11	3001
824.25	2963
824.389	3009
824.529	3131
824.669	3062
824.809	3184
824.949	3260
825.089	3222
825.228	3157
825.368	2986
825.508	2948
825.648	2956
825.787	3032
825.927	3032
826.067	2967
826.206	2986
826.346	3036
826.485	3077
826.625	3093
826.765	3321
826.904	3253
827.044	2986
827.183	2906
827.323	2838
827.462	2979
827.601	2880
827.741	2948
827.88	2956
828.02	2876
828.159	2967
828.298	3070
828.437	3089
828.577	3024
828.716	3249
828.855	3089
828.994	2914
829.134	2891
829.273	2918
829.412	2861
829.551	2868
829.69	2910
829.829	3024
829.968	3135
830.107	3032
830.246	3020
830.385	2925
830.524	2922
830.663	2872
830.802	2773
830.941	2686
831.08	2720
831.219	2804
831.357	2754
831.496	2960
831.635	2769
831.774	2682
831.913	2678
832.051	2594
832.19	2621
832.329	2708
832.467	2541
832.606	2537
832.744	2621
832.883	2590
833.022	2625
833.16	2689
833.299	2712
833.437	2708
833.576	2766
833.714	2739
833.852	2754
833.991	2773
834.129	2887
834.267	2853
834.406	2830
834.544	2922
834.682	2948
834.821	2902
834.959	3093
835.097	2944
835.235	3108
835.373	3013
835.511	3058
835.65	3028
835.788	3005
835.926	2853
836.064	2887
836.202	2880
836.34	3146
836.478	3184
836.615	3085
836.753	3184
836.891	3237
837.029	3211
837.167	3138
837.305	3093
837.443	3081
837.58	2967
837.718	3203
837.856	3055
837.993	3066
838.131	3154
838.269	3131
838.406	3131
838.544	3089
838.681	2952
838.819	2979
838.956	2845
839.094	2845
839.231	2956
839.369	3047
839.506	3386
839.643	3260
839.781	3066
839.918	3001
840.055	3074
840.193	3100
840.33	3127
840.467	3138
840.604	3207
840.742	3443
840.879	3066
841.016	3104
841.153	3157
841.29	3370
841.427	3313
841.564	3275
841.701	3359
841.838	3211
841.975	3165
842.112	3241
842.249	3108
842.385	3066
842.522	3268
842.659	3089
842.796	3074
842.933	3146
843.069	3058
843.206	3055
843.343	3218
843.479	3127
843.616	3150
843.752	2956
843.889	2914
844.025	3108
844.162	2902
844.298	3131
844.435	2971
844.571	2944
844.708	3089
844.844	3230
844.98	3264
845.117	3199
845.253	3089
845.389	3074
845.525	3100
845.661	3123
845.798	3032
845.934	3161
846.07	3074
846.206	3253
846.342	3336
846.478	3260
846.614	3112
846.75	3077
846.886	3051
847.022	3291
847.158	3192
847.294	3226
847.429	3275
847.565	3207
847.701	3492
847.837	3077
847.972	3036
848.108	3184
848.244	3188
848.379	3024
848.515	2994
848.65	2925
848.786	2998
848.921	3055
849.057	3138
849.192	3146
849.328	3104
849.463	3157
849.598	3081
849.734	3043
849.869	3001
850.004	2941
850.14	2982
850.275	2990
850.41	2899
850.545	2937
850.68	2967
850.815	2975
850.95	2990
851.085	3241
851.22	3123
851.355	3036
851.49	3024
851.625	3032
851.76	3017
851.895	2952
852.03	2922
852.165	3077
852.299	3112
852.434	3211
852.569	3146
852.703	3199
852.838	3264
852.973	3386
853.107	3340
853.242	3165
853.376	3108
853.511	3024
853.645	3062
853.78	3249
853.914	3165
854.048	3135
854.183	3127
854.317	3173
854.451	3302
854.585	3123
854.72	3127
854.854	3180
854.988	3058
855.122	3146
855.256	3013
855.39	3131
855.524	3253
855.658	3188
855.792	3146
855.926	3203
856.06	3249
856.194	3294
856.327	3180
856.461	3097
856.595	3089
856.729	3116
856.862	3222
856.996	3192
857.13	3245
857.263	3245
857.397	3332
857.53	3169
857.664	3211
857.797	3253
857.931	3317
858.064	3218
858.197	3256
858.331	3184
858.464	3112
858.597	3017
858.731	3089
858.864	3176
858.997	3119
859.13	3184
859.263	3199
859.396	3211
859.529	3119
859.662	3097
859.795	3051
859.928	3176
860.061	3264
860.194	3302
860.327	3142
860.46	3119
860.592	3241
860.725	3260
860.858	3268
860.99	3119
861.123	3043
861.256	3066
861.388	3184
861.521	3857
861.653	3070
861.786	3009
861.918	3024
862.05	3112
862.183	3131
862.315	3192
862.447	3207
862.58	3119
862.712	3001
862.844	2922
862.976	3066
863.108	3017
863.24	3496
863.372	2902
863.504	3024
863.636	2967
863.768	3074
863.9	3001
864.032	2887
864.164	2952
864.296	3020
864.428	3108
864.559	3089
864.691	3089
864.823	3077
864.954	3047
865.086	3081
865.217	3020
865.349	2998
865.48	2986
865.612	3058
865.743	3165
865.875	3020
866.006	2979
866.137	2986
866.269	2982
866.4	2963
866.531	2956
866.662	2902
866.793	2910
866.924	2971
867.055	2975
867.186	2956
867.317	2902
867.448	2880
867.579	2861
867.71	2849
867.841	2861
867.972	2952
868.103	2941
868.233	2891
868.364	2925
868.495	2929
868.625	3077
868.756	3192
868.886	3020
869.017	3039
869.147	3176
869.278	3203
869.408	3085
869.539	3055
869.669	3093
869.799	3055
869.929	3169
870.06	3116
870.19	3378
870.32	3287
870.45	3332
870.58	3370
870.71	3424
870.84	3458
870.97	3306
871.1	3260
871.23	3492
871.36	3458
871.489	3363
871.619	3412
871.749	3439
871.879	3443
872.008	3477
872.138	3382
872.267	3332
872.397	3173
872.526	3119
872.656	3036
872.785	3119
872.915	3272
873.044	3313
873.173	3264
873.303	3233
873.432	3302
873.561	3253
873.69	3176
873.819	3150
873.948	3237
874.077	3154
874.206	3047
874.335	3066
874.464	3256
874.593	3355
874.722	3275
874.851	3401
874.979	3370
875.108	3374
875.237	3245
875.365	3161
875.494	3161
875.623	3249
875.751	3070
875.88	3142
876.008	3230
876.136	3211
876.265	3378
876.393	3515
876.521	3435
876.65	3412
876.778	3340
876.906	3256
877.034	3245
877.162	3264
877.29	3226
877.418	3279
877.546	3287
877.674	3294
877.802	3253
877.93	3279
878.058	3173
878.185	3100
878.313	3207
878.441	3249
878.568	3097
878.696	3142
878.824	3287
878.951	3313
879.079	3447
879.206	3629
879.333	3428
879.461	3344
879.588	3378
879.715	3500
879.842	3610
879.97	3386
880.097	3203
880.224	3123
880.351	3199
880.478	3272
880.605	3195
880.732	3161
880.859	3515
880.986	3283
881.112	3321
881.239	3199
881.366	3112
881.493	3039
881.619	3028
881.746	3104
881.872	3100
881.999	3074
882.125	3127
882.252	3260
882.378	3336
882.505	3439
882.631	3310
882.757	3142
882.883	3241
883.01	3264
883.136	3195
883.262	3104
883.388	3131
883.514	3329
883.64	3374
883.766	3370
883.892	3184
884.018	3233
884.143	3401
884.269	3576
884.395	3222
884.52	3188
884.646	3211
884.772	3127
884.897	3169
885.023	3211
885.148	3317
885.274	3466
885.399	3424
885.524	3298
885.65	3279
885.775	3386
885.9	3310
886.025	3473
886.15	3389
886.275	3340
886.4	3260
886.525	3298
886.65	3302
886.775	3302
886.9	3504
887.025	3675
887.149	3397
887.274	3268
887.399	3207
887.523	3214
887.648	3165
887.773	3218
887.897	3363
888.021	3462
888.146	3329
888.27	3428
888.395	3534
888.519	3454
888.643	3504
888.767	3485
888.891	3325
889.015	3272
889.139	3321
889.263	3249
889.387	3405
889.511	3519
889.635	3485
889.759	3283
889.883	3306
890.006	3409
890.13	3469
890.254	3329
890.377	3382
890.501	3245
890.624	3195
890.748	3351
890.871	3211
890.995	3100
891.118	3081
891.241	3230
891.364	3256
891.488	3359
891.611	3195
891.734	3249
891.857	3275
891.98	3253
892.103	3313
892.226	3291
892.349	3184
892.471	3161
892.594	3230
892.717	3287
892.839	3256
892.962	3306
893.085	3367
893.207	3279
893.33	3176
893.452	3233
893.575	3363
893.697	3272
893.819	3504
893.941	3545
894.064	3477
894.186	3268
894.308	3310
894.43	3466
894.552	3561
894.674	3477
894.796	3275
894.918	3348
895.04	3310
895.161	3435
895.283	3409
895.405	3298
895.526	3332
895.648	3466
895.769	3466
895.891	3473
896.012	3450
896.134	3492
896.255	3431
896.376	3401
896.498	3370
896.619	3439
896.74	3382
896.861	3424
896.982	3694
897.103	3838
897.224	3591
897.345	3530
897.466	3454
897.587	3523
897.708	3675
897.828	3542
897.949	3439
898.07	3340
898.19	3363
898.311	3641
898.431	3443
898.552	3534
898.672	3610
898.792	3595
898.913	3542
899.033	3382
899.153	3291
899.273	3169
899.393	3298
899.513	3348
899.633	3344
899.753	3336
899.873	3317
899.993	3401
900.113	3389
900.232	3386
900.352	3378
900.472	3283
900.591	3184
900.711	3298
900.83	3249
900.95	3412
901.069	3507
901.189	3351
901.308	3173
901.427	3138
901.546	3222
901.665	3298
901.784	3363
901.904	3222
902.023	3154
902.141	3032
902.26	3017
902.379	3123
902.498	3055
902.617	3093
902.735	3211
902.854	3268
902.973	3176
903.091	3058
903.21	3108
903.328	3150
903.446	3112
903.565	3123
903.683	3230
903.801	3138
903.919	3249
904.038	3294
904.156	3188
904.274	3260
904.392	3275
904.51	3310
904.627	3340
904.745	3454
904.863	3496
904.981	3287
905.098	3169
905.216	3237
905.334	3287
905.451	3317
905.569	3302
905.686	3386
905.803	3443
905.921	3298
906.038	3424
906.155	3344
906.272	3260
906.389	3332
906.506	3245
906.623	3268
906.74	3245
906.857	3188
906.974	3268
907.091	3523
907.208	3534
907.324	3454
907.441	3412
907.557	3253
907.674	3237
907.79	3237
907.907	3260
908.023	3386
908.139	3374
908.256	3348
908.372	3374
908.488	3355
908.604	3264
908.72	3260
908.836	3332
908.952	3287
909.068	3348
909.184	3507
909.3	3416
909.415	3511
909.531	3469
909.647	3302
909.762	3268
909.878	3275
909.993	3329
910.108	3351
910.224	3351
910.339	3405
910.454	3329
910.57	3279
910.685	3283
910.8	3648
910.915	3530
911.03	3458
911.145	3275
911.259	3298
911.374	3329
911.489	3230
911.604	3203
911.718	3119
911.833	3180
911.947	3058
912.062	2967
912.176	3173
912.291	3211
912.405	3207
912.519	3424
912.633	3450
912.748	3332
912.862	3268
912.976	3173
913.09	3100
913.204	3176
913.318	3180
913.431	3332
913.545	3321
913.659	3386
913.772	3325
913.886	3230
914	3184
914.113	3355
914.226	3428
914.34	3397
914.453	3256
914.566	3424
914.68	3313
914.793	3313
914.906	3176
915.019	3104
915.132	3081
915.245	3176
915.358	3195
915.47	3226
915.583	3275
915.696	3344
915.809	3416
915.921	3389
916.034	3264
916.146	3287
916.259	3249
916.371	3401
916.483	3329
916.595	3291
916.708	3386
916.82	3336
916.932	3367
917.044	3325
917.156	3321
917.268	3260
917.38	3268
917.491	3317
917.603	3374
917.715	3466
917.826	3431
917.938	3367
918.049	3287
918.161	3431
918.272	3576
918.384	3610
918.495	3492
918.606	3348
918.717	3313
918.828	3378
918.939	3374
919.05	3275
919.161	3370
919.272	3199
919.383	3306
919.494	3523
919.604	3660
919.715	3481
919.826	3401
919.936	3431
920.047	3599
920.157	3523
920.267	3736
920.378	3603
920.488	3568
920.598	3816
920.708	3968
920.818	3838
920.928	3816
921.038	3987
921.148	4025
921.258	3728
921.368	3679
921.477	3561
921.587	3526
921.697	3420
921.806	3637
921.916	3545
922.025	3348
922.134	3367
922.244	3321
922.353	3447
922.462	3291
922.571	3233
922.68	3142
922.789	3077
922.898	3116
923.007	3131
923.116	3169
923.224	3180
923.333	3218
923.442	3119
923.55	3070
923.659	3131
923.767	3180
923.876	3116
923.984	3237
924.092	3127
924.201	3226
924.309	3199
924.417	3264
924.525	3176
924.633	3214
924.741	4185
924.849	3077
924.956	3260
925.064	3085
925.172	3024
925.279	3119
925.387	3188
925.494	3214
925.602	3348
925.709	3348
925.816	3195
925.924	3272
926.031	3370
926.138	3306
926.245	3359
926.352	3249
926.459	3420
926.566	3504
926.673	3321
926.779	3222
926.886	3230
926.993	3165
927.099	3135
927.206	3070
927.312	3108
927.419	3214
927.525	3195
927.631	3253
927.737	3142
927.843	3142
927.95	3020
928.056	3123
928.162	3176
928.267	3268
928.373	3880
928.479	3298
928.585	3085
928.69	3249
928.796	3256
928.901	3192
929.007	3032
929.112	3207
929.218	3173
929.323	3146
929.428	3142
929.533	3294
929.638	3146
929.743	3188
929.848	3279
929.953	3195
930.058	3165
930.163	2979
930.267	3051
930.372	3176
930.477	3070
930.581	3313
930.685	3199
930.79	3043
930.894	3097
930.998	3047
931.103	3272
931.207	2963
931.311	2944
931.415	2899
931.519	2785
931.623	2849
