Data from test_V78500241_1987.txt Node
Date: Fri Mar 25 16:28:58 CST 2022
User: usil
Spectrometer: V785-0024
Trigger mode: 0
Integration Time (sec): 4.000000E-1
Scans to average: 1
Nonlinearity correction enabled: false
Boxcar width: 0
Storing dark spectrum: false
XAxis mode: Wavelengths
Number of Pixels in Spectrum: 1024
>>>>>Begin Spectral Data<<<<<
801.071	2952
801.214	3009
801.356	2876
801.499	2937
801.641	2929
801.783	2952
801.926	3089
802.068	2998
802.211	3028
802.353	3085
802.496	2960
802.638	3039
802.78	3093
802.923	3116
803.065	3089
803.208	2910
803.35	2937
803.492	2975
803.635	2952
803.777	2804
803.919	2872
804.061	3214
804.204	2948
804.346	2910
804.488	2849
804.63	2998
804.773	2922
804.915	2948
805.057	3131
805.199	2967
805.341	3001
805.483	3085
805.626	3062
805.768	2990
805.91	3085
806.052	3104
806.194	3020
806.336	3275
806.478	3070
806.62	2963
806.762	3017
806.904	3066
807.046	3184
807.188	2982
807.33	2891
807.472	2998
807.614	2918
807.756	2971
807.898	2967
808.04	2906
808.182	2967
808.324	2971
808.465	2918
808.607	2891
808.749	2826
808.891	2887
809.033	2990
809.174	3009
809.316	2910
809.458	2861
809.6	2796
809.741	2762
809.883	2788
810.025	2868
810.166	2883
810.308	2861
810.45	2845
810.591	2804
810.733	2777
810.875	2819
811.016	2804
811.158	2804
811.299	2807
811.441	2982
811.582	2906
811.724	2853
811.865	2838
812.007	2941
812.148	2887
812.29	2868
812.431	2925
812.573	2979
812.714	2998
812.855	3070
812.997	3119
813.138	3123
813.279	3051
813.421	3001
813.562	3001
813.703	2967
813.845	2902
813.986	2804
814.127	2800
814.268	2842
814.41	2872
814.551	2834
814.692	2956
814.833	2830
814.974	2937
815.115	2979
815.256	2876
815.397	2849
815.539	2868
815.68	2804
815.821	2811
815.962	2975
816.103	2960
816.244	2883
816.385	2872
816.526	2967
816.666	2948
816.807	2769
816.948	2922
817.089	2918
817.23	2853
817.371	2792
817.512	2838
817.653	2864
817.793	2838
817.934	2902
818.075	2967
818.216	3039
818.356	3055
818.497	2929
818.638	2811
818.778	2815
818.919	2834
819.06	2800
819.2	2891
819.341	2815
819.481	2792
819.622	2922
819.762	3119
819.903	3066
820.043	2925
820.184	2922
820.324	2933
820.465	3047
820.605	3005
820.746	3001
820.886	2952
821.026	3127
821.167	3157
821.307	3268
821.447	3287
821.588	3249
821.728	3230
821.868	3184
822.008	3070
822.149	3184
822.289	3249
822.429	3135
822.569	3123
822.709	3222
822.849	3047
822.99	3047
823.13	3180
823.27	3214
823.41	3077
823.55	3176
823.69	3199
823.83	3214
823.97	3116
824.11	3032
824.25	3001
824.389	3104
824.529	3131
824.669	3081
824.809	3241
824.949	3275
825.089	3241
825.228	3157
825.368	3009
825.508	2986
825.648	2994
825.787	3028
825.927	3055
826.067	2986
826.206	2979
826.346	3043
826.485	3085
826.625	3116
826.765	3253
826.904	3211
827.044	2982
827.183	2960
827.323	2849
827.462	2979
827.601	2937
827.741	2933
827.88	2971
828.02	2838
828.159	2998
828.298	3081
828.437	3116
828.577	3066
828.716	3272
828.855	3085
828.994	2933
829.134	2883
829.273	2914
829.412	2914
829.551	2876
829.69	2910
829.829	2990
829.968	3150
830.107	3036
830.246	3039
830.385	2918
830.524	2887
830.663	2819
830.802	2758
830.941	2663
831.08	2651
831.219	2754
831.357	2788
831.496	2998
831.635	2712
831.774	2678
831.913	2678
832.051	2587
832.19	2590
832.329	2705
832.467	2571
832.606	2503
832.744	2579
832.883	2590
833.022	2564
833.16	2648
833.299	2716
833.437	2708
833.576	2746
833.714	2750
833.852	2743
833.991	2762
834.129	2830
834.267	2842
834.406	2815
834.544	2838
834.682	2876
834.821	2876
834.959	3058
835.097	2922
835.235	3047
835.373	3055
835.511	3047
835.65	3009
835.788	2944
835.926	2849
836.064	2807
836.202	2899
836.34	3116
836.478	3116
836.615	3081
836.753	3180
836.891	3214
837.029	3195
837.167	3097
837.305	3062
837.443	3047
837.58	2971
837.718	3176
837.856	3104
837.993	3081
838.131	3131
838.269	3116
838.406	3093
838.544	3093
838.681	2941
838.819	2922
838.956	2811
839.094	2887
839.231	2918
839.369	3051
839.506	3389
839.643	3230
839.781	3036
839.918	2929
840.055	3097
840.193	3066
840.33	3093
840.467	3123
840.604	3135
840.742	3386
840.879	3066
841.016	3104
841.153	3123
841.29	3344
841.427	3306
841.564	3249
841.701	3332
841.838	3214
841.975	3192
842.112	3233
842.249	3093
842.385	3043
842.522	3275
842.659	3135
842.796	3077
842.933	3104
843.069	3032
843.206	3024
843.343	3169
843.479	3119
843.616	3142
843.752	2887
843.889	2868
844.025	3062
844.162	2872
844.298	3097
844.435	2990
844.571	2918
844.708	3093
844.844	3161
844.98	3256
845.117	3192
845.253	3051
845.389	3028
845.525	3150
845.661	3097
845.798	3013
845.934	3104
846.07	3085
846.206	3222
846.342	3325
846.478	3272
846.614	3077
846.75	3062
846.886	3020
847.022	3272
847.158	3150
847.294	3237
847.429	3268
847.565	3203
847.701	3507
847.837	3028
847.972	3013
848.108	3192
848.244	3157
848.379	2963
848.515	2963
848.65	2975
848.786	2982
848.921	3070
849.057	3135
849.192	3131
849.328	3070
849.463	3100
849.598	3077
849.734	3039
849.869	2986
850.004	2952
850.14	3005
850.275	2922
850.41	2815
850.545	2914
850.68	2948
850.815	2929
850.95	2971
851.085	3233
851.22	3116
851.355	3043
851.49	2986
851.625	2967
851.76	3024
851.895	2933
852.03	2952
852.165	3058
852.299	3116
852.434	3207
852.569	3138
852.703	3161
852.838	3260
852.973	3329
853.107	3294
853.242	3150
853.376	3097
853.511	2994
853.645	3066
853.78	3226
853.914	3097
854.048	3131
854.183	3089
854.317	3173
854.451	3287
854.585	3135
854.72	3093
854.854	3180
854.988	3055
855.122	3116
855.256	3009
855.39	3142
855.524	3264
855.658	3192
855.792	3138
855.926	3138
856.06	3199
856.194	3249
856.327	3188
856.461	3112
856.595	3146
856.729	3100
856.862	3211
856.996	3138
857.13	3199
857.263	3249
857.397	3279
857.53	3119
857.664	3195
857.797	3237
857.931	3253
858.064	3173
858.197	3211
858.331	3165
858.464	3074
858.597	2982
858.731	3131
858.864	3142
858.997	3093
859.13	3142
859.263	3135
859.396	3211
859.529	3135
859.662	3077
859.795	3043
859.928	3188
860.061	3294
860.194	3283
860.327	3127
860.46	3100
860.592	3230
860.725	3207
860.858	3256
860.99	3123
861.123	3074
861.256	3036
861.388	3119
861.521	3876
861.653	3017
861.786	3013
861.918	3017
862.05	3028
862.183	3047
862.315	3138
862.447	3207
862.58	3077
862.712	2956
862.844	2914
862.976	3028
863.108	2998
863.24	3447
863.372	2895
863.504	3001
863.636	2975
863.768	3047
863.9	2986
864.032	2906
864.164	2948
864.296	3032
864.428	3074
864.559	3089
864.691	3036
864.823	3066
864.954	3001
865.086	3036
865.217	3036
865.349	2994
865.48	2967
865.612	3024
865.743	3112
865.875	2960
866.006	3001
866.137	2979
866.269	2944
866.4	2922
866.531	2883
866.662	2895
866.793	2918
866.924	2902
867.055	2948
867.186	2948
867.317	2845
867.448	2872
867.579	2834
867.71	2845
867.841	2830
867.972	2906
868.103	2891
868.233	2883
868.364	2826
868.495	2910
868.625	3066
868.756	3169
868.886	2979
869.017	3039
869.147	3222
869.278	3169
869.408	3001
869.539	3074
869.669	3074
869.799	3039
869.929	3127
870.06	3112
870.19	3283
870.32	3256
870.45	3272
870.58	3340
870.71	3473
870.84	3443
870.97	3291
871.1	3268
871.23	3481
871.36	3428
871.489	3378
871.619	3382
871.749	3386
871.879	3412
872.008	3477
872.138	3313
872.267	3279
872.397	3192
872.526	3100
872.656	2986
872.785	3085
872.915	3253
873.044	3291
873.173	3249
873.303	3253
873.432	3237
873.561	3272
873.69	3127
873.819	3150
873.948	3199
874.077	3097
874.206	3081
874.335	3036
874.464	3222
874.593	3386
874.722	3245
874.851	3397
874.979	3367
875.108	3325
875.237	3256
875.365	3169
875.494	3142
875.623	3245
875.751	3112
875.88	3097
876.008	3203
876.136	3203
876.265	3386
876.393	3458
876.521	3431
876.65	3409
876.778	3332
876.906	3264
877.034	3214
877.162	3226
877.29	3176
877.418	3298
877.546	3233
877.674	3260
877.802	3264
877.93	3222
878.058	3161
878.185	3100
878.313	3192
878.441	3214
878.568	3085
878.696	3135
878.824	3211
878.951	3291
879.079	3477
879.206	3603
879.333	3454
879.461	3359
879.588	3367
879.715	3466
879.842	3557
879.97	3401
880.097	3165
880.224	3154
880.351	3165
880.478	3230
880.605	3195
880.732	3192
880.859	3511
880.986	3310
881.112	3310
881.239	3222
881.366	3097
881.493	3047
881.619	3032
881.746	3066
881.872	3077
881.999	3093
882.125	3135
882.252	3249
882.378	3306
882.505	3431
882.631	3279
882.757	3150
882.883	3230
883.01	3222
883.136	3180
883.262	3112
883.388	3112
883.514	3382
883.64	3351
883.766	3313
883.892	3169
884.018	3233
884.143	3420
884.269	3530
884.395	3184
884.52	3180
884.646	3169
884.772	3138
884.897	3123
885.023	3199
885.148	3317
885.274	3435
885.399	3412
885.524	3230
885.65	3237
885.775	3298
885.9	3298
886.025	3458
886.15	3351
886.275	3283
886.4	3287
886.525	3298
886.65	3268
886.775	3245
886.9	3538
887.025	3591
887.149	3405
887.274	3260
887.399	3180
887.523	3199
887.648	3211
887.773	3203
887.897	3348
888.021	3393
888.146	3283
888.27	3389
888.395	3538
888.519	3435
888.643	3458
888.767	3431
888.891	3325
889.015	3180
889.139	3241
889.263	3230
889.387	3424
889.511	3500
889.635	3450
889.759	3275
889.883	3272
890.006	3374
890.13	3500
890.254	3256
890.377	3336
890.501	3176
890.624	3188
890.748	3294
890.871	3150
890.995	3097
891.118	3093
891.241	3188
891.364	3233
891.488	3294
891.611	3199
891.734	3222
891.857	3241
891.98	3230
892.103	3325
892.226	3287
892.349	3207
892.471	3093
892.594	3218
892.717	3268
892.839	3253
892.962	3283
893.085	3378
893.207	3279
893.33	3150
893.452	3184
893.575	3340
893.697	3260
893.819	3458
893.941	3477
894.064	3435
894.186	3275
894.308	3291
894.43	3431
894.552	3530
894.674	3443
894.796	3291
894.918	3283
895.04	3306
895.161	3447
895.283	3367
895.405	3321
895.526	3351
895.648	3420
895.769	3393
895.891	3416
896.012	3485
896.134	3500
896.255	3416
896.376	3401
896.498	3370
896.619	3359
896.74	3363
896.861	3420
896.982	3671
897.103	3800
897.224	3557
897.345	3538
897.466	3409
897.587	3504
897.708	3584
897.828	3564
897.949	3469
898.07	3302
898.19	3409
898.311	3610
898.431	3450
898.552	3515
898.672	3603
898.792	3595
898.913	3538
899.033	3424
899.153	3283
899.273	3180
899.393	3291
899.513	3329
899.633	3325
899.753	3355
899.873	3313
899.993	3389
900.113	3317
900.232	3378
900.352	3344
900.472	3310
900.591	3180
900.711	3275
900.83	3260
900.95	3409
901.069	3500
901.189	3359
901.308	3157
901.427	3135
901.546	3188
901.665	3310
901.784	3336
901.904	3233
902.023	3199
902.141	3047
902.26	2986
902.379	3116
902.498	3070
902.617	3051
902.735	3192
902.854	3275
902.973	3211
903.091	3017
903.21	3051
903.328	3127
903.446	3112
903.565	3085
903.683	3203
903.801	3138
903.919	3230
904.038	3233
904.156	3195
904.274	3321
904.392	3222
904.51	3306
904.627	3310
904.745	3416
904.863	3492
904.981	3249
905.098	3192
905.216	3226
905.334	3283
905.451	3302
905.569	3283
905.686	3397
905.803	3424
905.921	3306
906.038	3412
906.155	3355
906.272	3264
906.389	3332
906.506	3218
906.623	3211
906.74	3256
906.857	3188
906.974	3268
907.091	3447
907.208	3549
907.324	3439
907.441	3363
907.557	3222
907.674	3241
907.79	3195
907.907	3317
908.023	3370
908.139	3351
908.256	3344
908.372	3344
908.488	3370
908.604	3241
908.72	3249
908.836	3249
908.952	3294
909.068	3317
909.184	3454
909.3	3386
909.415	3462
909.531	3416
909.647	3256
909.762	3340
909.878	3268
909.993	3378
910.108	3287
910.224	3340
910.339	3389
910.454	3306
910.57	3256
910.685	3207
910.8	3564
910.915	3507
911.03	3409
911.145	3237
911.259	3245
911.374	3306
911.489	3226
911.604	3199
911.718	3104
911.833	3123
911.947	2994
912.062	2994
912.176	3135
912.291	3218
912.405	3188
912.519	3401
912.633	3443
912.748	3359
912.862	3241
912.976	3180
913.09	3047
913.204	3169
913.318	3184
913.431	3321
913.545	3332
913.659	3428
913.772	3329
913.886	3203
914	3218
914.113	3344
914.226	3386
914.34	3340
914.453	3211
914.566	3447
914.68	3291
914.793	3317
914.906	3127
915.019	3116
915.132	3085
915.245	3180
915.358	3203
915.47	3195
915.583	3241
915.696	3283
915.809	3393
915.921	3389
916.034	3203
916.146	3268
916.259	3211
916.371	3401
916.483	3363
916.595	3249
916.708	3310
916.82	3363
916.932	3332
917.044	3313
917.156	3359
917.268	3237
917.38	3287
917.491	3302
917.603	3344
917.715	3420
917.826	3450
917.938	3393
918.049	3256
918.161	3397
918.272	3542
918.384	3557
918.495	3428
918.606	3313
918.717	3275
918.828	3359
918.939	3424
919.05	3249
919.161	3317
919.272	3173
919.383	3264
919.494	3481
919.604	3614
919.715	3507
919.826	3386
919.936	3401
920.047	3561
920.157	3553
920.267	3774
920.378	3595
920.488	3542
920.598	3747
920.708	3979
920.818	3800
920.928	3838
921.038	3975
921.148	3994
921.258	3663
921.368	3591
921.477	3561
921.587	3485
921.697	3443
921.806	3644
921.916	3515
922.025	3332
922.134	3435
922.244	3253
922.353	3416
922.462	3283
922.571	3218
922.68	3146
922.789	3074
922.898	3112
923.007	3085
923.116	3203
923.224	3184
923.333	3173
923.442	3070
923.55	3055
923.659	3135
923.767	3180
923.876	3116
923.984	3256
924.092	3123
924.201	3203
924.309	3222
924.417	3211
924.525	3169
924.633	3241
924.741	4181
924.849	3047
924.956	3302
925.064	3070
925.172	2998
925.279	3146
925.387	3184
925.494	3199
925.602	3370
925.709	3325
925.816	3176
925.924	3260
926.031	3393
926.138	3321
926.245	3348
926.352	3241
926.459	3389
926.566	3462
926.673	3317
926.779	3256
926.886	3237
926.993	3211
927.099	3119
927.206	3108
927.312	3100
927.419	3222
927.525	3195
927.631	3283
927.737	3135
927.843	3154
927.95	3032
928.056	3142
928.162	3165
928.267	3241
928.373	3903
928.479	3306
928.585	3039
928.69	3226
928.796	3268
928.901	3173
929.007	3032
929.112	3199
929.218	3154
929.323	3131
929.428	3138
929.533	3294
929.638	3089
929.743	3150
929.848	3222
929.953	3184
930.058	3119
930.163	2975
930.267	3032
930.372	3207
930.477	3066
930.581	3310
930.685	3127
930.79	3055
930.894	3127
930.998	3081
931.103	3302
931.207	2971
931.311	2922
931.415	2910
931.519	2766
931.623	2788
