Data from test_V78500241_132.txt Node
Date: Fri Mar 25 16:16:07 CST 2022
User: usil
Spectrometer: V785-0024
Trigger mode: 0
Integration Time (sec): 4.000000E-1
Scans to average: 1
Nonlinearity correction enabled: false
Boxcar width: 0
Storing dark spectrum: false
XAxis mode: Wavelengths
Number of Pixels in Spectrum: 1024
>>>>>Begin Spectral Data<<<<<
801.071	2918
801.214	2948
801.356	2906
801.499	2906
801.641	2887
801.783	2906
801.926	3074
802.068	2982
802.211	3005
802.353	3020
802.496	2960
802.638	3028
802.78	3055
802.923	3062
803.065	3062
803.208	2918
803.35	2925
803.492	2971
803.635	2948
803.777	2766
803.919	2876
804.061	3207
804.204	2925
804.346	2933
804.488	2842
804.63	2941
804.773	2899
804.915	2933
805.057	3089
805.199	2922
805.341	2994
805.483	3043
805.626	3013
805.768	2952
805.91	3112
806.052	3119
806.194	3020
806.336	3214
806.478	3020
806.62	2979
806.762	2975
806.904	3058
807.046	3123
807.188	2990
807.33	2941
807.472	2975
807.614	2925
807.756	2994
807.898	2937
808.04	2910
808.182	2975
808.324	2975
808.465	2891
808.607	2910
808.749	2788
808.891	2880
809.033	2982
809.174	2990
809.316	2944
809.458	2925
809.6	2834
809.741	2769
809.883	2796
810.025	2853
810.166	2849
810.308	2868
810.45	2857
810.591	2785
810.733	2758
810.875	2845
811.016	2781
811.158	2750
811.299	2849
811.441	2925
811.582	2895
811.724	2876
811.865	2807
812.007	2929
812.148	2914
812.29	2834
812.431	2883
812.573	2971
812.714	2952
812.855	3055
812.997	3066
813.138	3112
813.279	2982
813.421	3017
813.562	2990
813.703	2895
813.845	2902
813.986	2781
814.127	2766
814.268	2834
814.41	2845
814.551	2823
814.692	2891
814.833	2819
814.974	2914
815.115	2944
815.256	2853
815.397	2823
815.539	2914
815.68	2849
815.821	2811
815.962	2956
816.103	2948
816.244	2861
816.385	2880
816.526	3001
816.666	2929
816.807	2777
816.948	2925
817.089	2929
817.23	2842
817.371	2785
817.512	2792
817.653	2861
817.793	2826
817.934	2918
818.075	2944
818.216	3013
818.356	3066
818.497	2933
818.638	2781
818.778	2819
818.919	2792
819.06	2777
819.2	2887
819.341	2826
819.481	2785
819.622	2887
819.762	3135
819.903	3047
820.043	2929
820.184	2906
820.324	2929
820.465	3024
820.605	3032
820.746	3047
820.886	2948
821.026	3131
821.167	3161
821.307	3306
821.447	3272
821.588	3264
821.728	3214
821.868	3192
822.008	3097
822.149	3188
822.289	3279
822.429	3085
822.569	3112
822.709	3218
822.849	3020
822.99	3070
823.13	3188
823.27	3218
823.41	3127
823.55	3154
823.69	3161
823.83	3169
823.97	3108
824.11	3051
824.25	2998
824.389	3112
824.529	3077
824.669	3062
824.809	3203
824.949	3268
825.089	3203
825.228	3165
825.368	3013
825.508	3013
825.648	2986
825.787	3005
825.927	3032
826.067	2982
826.206	2975
826.346	3108
826.485	3127
826.625	3081
826.765	3268
826.904	3230
827.044	2990
827.183	2960
827.323	2864
827.462	2990
827.601	2937
827.741	2925
827.88	2952
828.02	2861
828.159	2982
828.298	3051
828.437	3123
828.577	3070
828.716	3245
828.855	3081
828.994	2922
829.134	2925
829.273	2960
829.412	2857
829.551	2872
829.69	2880
829.829	3047
829.968	3116
830.107	3028
830.246	3039
830.385	2956
830.524	2918
830.663	2826
830.802	2727
830.941	2667
831.08	2667
831.219	2777
831.357	2796
831.496	2971
831.635	2739
831.774	2663
831.913	2663
832.051	2568
832.19	2606
832.329	2693
832.467	2518
832.606	2480
832.744	2625
832.883	2598
833.022	2606
833.16	2621
833.299	2693
833.437	2708
833.576	2678
833.714	2727
833.852	2777
833.991	2743
834.129	2830
834.267	2830
834.406	2766
834.544	2861
834.682	2876
834.821	2899
834.959	3081
835.097	2922
835.235	3089
835.373	3005
835.511	2998
835.65	2990
835.788	2979
835.926	2861
836.064	2819
836.202	2895
836.34	3104
836.478	3165
836.615	3032
836.753	3176
836.891	3207
837.029	3195
837.167	3135
837.305	3089
837.443	3062
837.58	2975
837.718	3169
837.856	3077
837.993	3081
838.131	3119
838.269	3150
838.406	3119
838.544	3112
838.681	2975
838.819	2902
838.956	2811
839.094	2838
839.231	2902
839.369	3009
839.506	3397
839.643	3203
839.781	2994
839.918	3005
840.055	3058
840.193	3077
840.33	3097
840.467	3138
840.604	3150
840.742	3382
840.879	3055
841.016	3093
841.153	3127
841.29	3310
841.427	3291
841.564	3294
841.701	3294
841.838	3272
841.975	3146
842.112	3226
842.249	3131
842.385	3043
842.522	3268
842.659	3108
842.796	3047
842.933	3138
843.069	3062
843.206	3032
843.343	3154
843.479	3081
843.616	3169
843.752	2933
843.889	2861
844.025	3100
844.162	2872
844.298	3097
844.435	2960
844.571	2960
844.708	3070
844.844	3218
844.98	3264
845.117	3195
845.253	3032
845.389	3028
845.525	3085
845.661	3066
845.798	3039
845.934	3104
846.07	3047
846.206	3218
846.342	3325
846.478	3211
846.614	3108
846.75	3043
846.886	3047
847.022	3230
847.158	3112
847.294	3173
847.429	3283
847.565	3226
847.701	3492
847.837	3070
847.972	3055
848.108	3157
848.244	3169
848.379	3032
848.515	2967
848.65	2929
848.786	2967
848.921	3047
849.057	3138
849.192	3138
849.328	3081
849.463	3127
849.598	3089
849.734	3039
849.869	3024
850.004	2941
850.14	3017
850.275	2944
850.41	2853
850.545	2937
850.68	3009
850.815	2944
850.95	3001
851.085	3226
851.22	3123
851.355	3077
851.49	3013
851.625	3028
851.76	3066
851.895	2963
852.03	3005
852.165	3058
852.299	3146
852.434	3218
852.569	3218
852.703	3199
852.838	3306
852.973	3374
853.107	3393
853.242	3218
853.376	3176
853.511	3005
853.645	3085
853.78	3264
853.914	3195
854.048	3161
854.183	3119
854.317	3199
854.451	3340
854.585	3165
854.72	3146
854.854	3279
854.988	3097
855.122	3112
855.256	3051
855.39	3214
855.524	3310
855.658	3256
855.792	3249
855.926	3279
856.06	3275
856.194	3344
856.327	3237
856.461	3097
856.595	3165
856.729	3146
856.862	3283
856.996	3199
857.13	3260
857.263	3275
857.397	3351
857.53	3188
857.664	3264
857.797	3310
857.931	3317
858.064	3268
858.197	3268
858.331	3211
858.464	3173
858.597	3081
858.731	3173
858.864	3176
858.997	3161
859.13	3230
859.263	3245
859.396	3256
859.529	3142
859.662	3138
859.795	3089
859.928	3199
860.061	3325
860.194	3359
860.327	3195
860.46	3188
860.592	3287
860.725	3279
860.858	3294
860.99	3123
861.123	3131
861.256	3104
861.388	3226
861.521	3736
861.653	3066
861.786	3024
861.918	3077
862.05	3146
862.183	3154
862.315	3188
862.447	3207
862.58	3142
862.712	3001
862.844	2899
862.976	3051
863.108	3062
863.24	3488
863.372	2937
863.504	3032
863.636	2960
863.768	3081
863.9	3039
864.032	2967
864.164	3036
864.296	3055
864.428	3161
864.559	3150
864.691	3142
864.823	3104
864.954	3089
865.086	3077
865.217	3039
865.349	3028
865.48	3001
865.612	3081
865.743	3184
865.875	3001
866.006	2990
866.137	2986
866.269	2975
866.4	2990
866.531	2967
866.662	2967
866.793	2937
866.924	2941
867.055	3005
867.186	2979
867.317	2906
867.448	2872
867.579	2861
867.71	2910
867.841	2864
867.972	2941
868.103	2929
868.233	2906
868.364	2918
868.495	2937
868.625	3116
868.756	3214
868.886	3036
869.017	3055
869.147	3207
869.278	3203
869.408	3066
869.539	3093
869.669	3127
869.799	3127
869.929	3180
870.06	3138
870.19	3363
870.32	3348
870.45	3370
870.58	3416
870.71	3530
870.84	3496
870.97	3325
871.1	3283
871.23	3534
871.36	3553
871.489	3378
871.619	3481
871.749	3492
871.879	3504
872.008	3519
872.138	3405
872.267	3348
872.397	3184
872.526	3157
872.656	3081
872.785	3165
872.915	3294
873.044	3397
873.173	3256
873.303	3313
873.432	3317
873.561	3291
873.69	3218
873.819	3192
873.948	3264
874.077	3165
874.206	3116
874.335	3146
874.464	3237
874.593	3386
874.722	3287
874.851	3462
874.979	3416
875.108	3405
875.237	3253
875.365	3192
875.494	3207
875.623	3294
875.751	3127
875.88	3169
876.008	3272
876.136	3279
876.265	3420
876.393	3564
876.521	3447
876.65	3431
876.778	3389
876.906	3287
877.034	3275
877.162	3302
877.29	3237
877.418	3291
877.546	3287
877.674	3302
877.802	3245
877.93	3275
878.058	3199
878.185	3123
878.313	3298
878.441	3222
878.568	3142
878.696	3195
878.824	3294
878.951	3306
879.079	3511
879.206	3663
879.333	3473
879.461	3401
879.588	3416
879.715	3511
879.842	3629
879.97	3435
880.097	3207
880.224	3150
880.351	3256
880.478	3298
880.605	3275
880.732	3264
880.859	3542
880.986	3359
881.112	3405
881.239	3268
881.366	3135
881.493	3097
881.619	3085
881.746	3119
881.872	3142
881.999	3138
882.125	3199
882.252	3279
882.378	3325
882.505	3469
882.631	3351
882.757	3203
882.883	3268
883.01	3275
883.136	3218
883.262	3169
883.388	3180
883.514	3405
883.64	3420
883.766	3348
883.892	3233
884.018	3287
884.143	3469
884.269	3568
884.395	3256
884.52	3249
884.646	3272
884.772	3180
884.897	3127
885.023	3218
885.148	3386
885.274	3450
885.399	3447
885.524	3313
885.65	3306
885.775	3367
885.9	3359
886.025	3519
886.15	3409
886.275	3332
886.4	3287
886.525	3329
886.65	3313
886.775	3310
886.9	3542
887.025	3682
887.149	3431
887.274	3287
887.399	3233
887.523	3230
887.648	3214
887.773	3275
887.897	3439
888.021	3424
888.146	3325
888.27	3492
888.395	3580
888.519	3466
888.643	3500
888.767	3511
888.891	3321
889.015	3310
889.139	3340
889.263	3298
889.387	3450
889.511	3523
889.635	3485
889.759	3344
889.883	3378
890.006	3431
890.13	3530
890.254	3329
890.377	3363
890.501	3287
890.624	3226
890.748	3329
890.871	3226
890.995	3184
891.118	3138
891.241	3207
891.364	3279
891.488	3348
891.611	3222
891.734	3298
891.857	3336
891.98	3260
892.103	3409
892.226	3344
892.349	3268
892.471	3123
892.594	3302
892.717	3351
892.839	3317
892.962	3332
893.085	3382
893.207	3302
893.33	3184
893.452	3241
893.575	3382
893.697	3321
893.819	3504
893.941	3511
894.064	3477
894.186	3317
894.308	3306
894.43	3473
894.552	3595
894.674	3526
894.796	3294
894.918	3336
895.04	3359
895.161	3477
895.283	3439
895.405	3336
895.526	3397
895.648	3466
895.769	3458
895.891	3523
896.012	3553
896.134	3511
896.255	3450
896.376	3393
896.498	3409
896.619	3481
896.74	3420
896.861	3454
896.982	3759
897.103	3842
897.224	3686
897.345	3557
897.466	3477
897.587	3496
897.708	3682
897.828	3564
897.949	3473
898.07	3355
898.19	3492
898.311	3629
898.431	3526
898.552	3561
898.672	3622
898.792	3622
898.913	3561
899.033	3469
899.153	3348
899.273	3264
899.393	3310
899.513	3374
899.633	3363
899.753	3370
899.873	3382
899.993	3416
900.113	3424
900.232	3462
900.352	3397
900.472	3317
900.591	3226
900.711	3325
900.83	3275
900.95	3435
901.069	3553
901.189	3374
901.308	3241
901.427	3192
901.546	3233
901.665	3332
901.784	3389
901.904	3264
902.023	3176
902.141	3070
902.26	3032
902.379	3176
902.498	3093
902.617	3085
902.735	3249
902.854	3298
902.973	3211
903.091	3074
903.21	3116
903.328	3180
903.446	3142
903.565	3131
903.683	3222
903.801	3150
903.919	3287
904.038	3325
904.156	3237
904.274	3325
904.392	3313
904.51	3325
904.627	3348
904.745	3462
904.863	3553
904.981	3275
905.098	3230
905.216	3291
905.334	3329
905.451	3382
905.569	3336
905.686	3458
905.803	3481
905.921	3329
906.038	3431
906.155	3386
906.272	3313
906.389	3386
906.506	3306
906.623	3283
906.74	3306
906.857	3222
906.974	3317
907.091	3492
907.208	3587
907.324	3492
907.441	3428
907.557	3275
907.674	3317
907.79	3283
907.907	3275
908.023	3431
908.139	3401
908.256	3370
908.372	3424
908.488	3374
908.604	3302
908.72	3268
908.836	3287
908.952	3363
909.068	3370
909.184	3545
909.3	3473
909.415	3538
909.531	3488
909.647	3268
909.762	3283
909.878	3294
909.993	3374
910.108	3344
910.224	3378
910.339	3481
910.454	3363
910.57	3298
910.685	3310
910.8	3663
910.915	3580
911.03	3507
911.145	3272
911.259	3313
911.374	3344
911.489	3306
911.604	3237
911.718	3135
911.833	3169
911.947	3051
912.062	3036
912.176	3165
912.291	3233
912.405	3211
912.519	3469
912.633	3492
912.748	3389
912.862	3329
912.976	3214
913.09	3077
913.204	3169
913.318	3199
913.431	3405
913.545	3386
913.659	3458
913.772	3348
913.886	3237
914	3233
914.113	3370
914.226	3428
914.34	3420
914.453	3287
914.566	3428
914.68	3336
914.793	3374
914.906	3180
915.019	3157
915.132	3112
915.245	3226
915.358	3230
915.47	3272
915.583	3287
915.696	3279
915.809	3462
915.921	3481
916.034	3272
916.146	3268
916.259	3264
916.371	3409
916.483	3412
916.595	3298
916.708	3359
916.82	3367
916.932	3351
917.044	3389
917.156	3389
917.268	3344
917.38	3329
917.491	3344
917.603	3409
917.715	3485
917.826	3511
917.938	3450
918.049	3329
918.161	3462
918.272	3644
918.384	3644
918.495	3519
918.606	3374
918.717	3294
918.828	3405
918.939	3488
919.05	3393
919.161	3473
919.272	3294
919.383	3344
919.494	3561
919.604	3705
919.715	3603
919.826	3500
919.936	3519
920.047	3663
920.157	3629
920.267	3816
920.378	3633
920.488	3633
920.598	3823
920.708	4017
920.818	3873
920.928	3949
921.038	4040
921.148	4067
921.258	3774
921.368	3747
921.477	3660
921.587	3595
921.697	3549
921.806	3728
921.916	3599
922.025	3450
922.134	3435
922.244	3389
922.353	3496
922.462	3321
922.571	3302
922.68	3161
922.789	3142
922.898	3214
923.007	3154
923.116	3336
923.224	3264
923.333	3272
923.442	3154
923.55	3173
923.659	3218
923.767	3283
923.876	3188
923.984	3332
924.092	3173
924.201	3256
924.309	3306
924.417	3329
924.525	3294
924.633	3287
924.741	4249
924.849	3119
924.956	3351
925.064	3165
925.172	3119
925.279	3184
925.387	3298
925.494	3275
925.602	3466
925.709	3397
925.816	3287
925.924	3409
926.031	3462
926.138	3393
926.245	3439
926.352	3287
926.459	3496
926.566	3534
926.673	3378
926.779	3348
926.886	3329
926.993	3214
927.099	3180
927.206	3127
927.312	3154
927.419	3272
927.525	3268
927.631	3355
927.737	3192
927.843	3195
927.95	3097
928.056	3226
928.162	3230
928.267	3325
928.373	3854
928.479	3363
928.585	3146
928.69	3272
928.796	3336
928.901	3249
929.007	3135
929.112	3287
929.218	3241
929.323	3180
929.428	3226
929.533	3378
929.638	3173
929.743	3237
929.848	3321
929.953	3260
930.058	3169
930.163	3024
930.267	3108
930.372	3249
930.477	3127
930.581	3412
930.685	3241
930.79	3123
930.894	3188
930.998	3146
931.103	3374
931.207	3013
931.311	3009
931.415	2986
931.519	2819
931.623	2902
