Data from test_V78500241_229.txt Node
Date: Fri Mar 25 16:16:47 CST 2022
User: usil
Spectrometer: V785-0024
Trigger mode: 0
Integration Time (sec): 4.000000E-1
Scans to average: 1
Nonlinearity correction enabled: false
Boxcar width: 0
Storing dark spectrum: false
XAxis mode: Wavelengths
Number of Pixels in Spectrum: 1024
>>>>>Begin Spectral Data<<<<<
801.071	2937
801.214	2982
801.356	2933
801.499	2937
801.641	2922
801.783	2967
801.926	3058
802.068	3039
802.211	3051
802.353	3085
802.496	2986
802.638	3017
802.78	3108
802.923	3104
803.065	3013
803.208	2914
803.35	2960
803.492	2941
803.635	2971
803.777	2804
803.919	2868
804.061	3207
804.204	2941
804.346	2895
804.488	2883
804.63	3017
804.773	2891
804.915	2929
805.057	3104
805.199	2952
805.341	2994
805.483	3089
805.626	3013
805.768	2963
805.91	3146
806.052	3146
806.194	3017
806.336	3275
806.478	3013
806.62	2967
806.762	2994
806.904	3097
807.046	3207
807.188	3009
807.33	2944
807.472	3017
807.614	2941
807.756	2982
807.898	2933
808.04	2910
808.182	2975
808.324	2960
808.465	2902
808.607	2876
808.749	2834
808.891	2880
809.033	3024
809.174	2971
809.316	2902
809.458	2925
809.6	2785
809.741	2792
809.883	2769
810.025	2880
810.166	2922
810.308	2853
810.45	2883
810.591	2758
810.733	2792
810.875	2849
811.016	2804
811.158	2781
811.299	2788
811.441	2948
811.582	2914
811.724	2868
811.865	2838
812.007	2963
812.148	2880
812.29	2857
812.431	2929
812.573	2967
812.714	2979
812.855	3097
812.997	3070
813.138	3169
813.279	3024
813.421	3005
813.562	2933
813.703	2906
813.845	2937
813.986	2785
814.127	2754
814.268	2826
814.41	2845
814.551	2830
814.692	2857
814.833	2830
814.974	2948
815.115	2952
815.256	2891
815.397	2834
815.539	2842
815.68	2781
815.821	2788
815.962	2967
816.103	2948
816.244	2918
816.385	2906
816.526	3017
816.666	2948
816.807	2746
816.948	2899
817.089	2948
817.23	2845
817.371	2804
817.512	2815
817.653	2864
817.793	2872
817.934	2902
818.075	2982
818.216	3036
818.356	3039
818.497	2887
818.638	2781
818.778	2834
818.919	2842
819.06	2785
819.2	2880
819.341	2834
819.481	2804
819.622	2929
819.762	3119
819.903	3043
820.043	2952
820.184	2922
820.324	2922
820.465	3009
820.605	2975
820.746	3058
820.886	2944
821.026	3123
821.167	3138
821.307	3287
821.447	3317
821.588	3249
821.728	3253
821.868	3233
822.008	3081
822.149	3199
822.289	3230
822.429	3089
822.569	3112
822.709	3176
822.849	3066
822.99	3100
823.13	3176
823.27	3226
823.41	3138
823.55	3165
823.69	3169
823.83	3195
823.97	3123
824.11	3005
824.25	3001
824.389	3062
824.529	3112
824.669	3108
824.809	3226
824.949	3268
825.089	3233
825.228	3169
825.368	3036
825.508	2956
825.648	2982
825.787	3001
825.927	3024
826.067	3001
826.206	2994
826.346	3089
826.485	3066
826.625	3100
826.765	3279
826.904	3226
827.044	3020
827.183	2948
827.323	2876
827.462	3001
827.601	2960
827.741	2922
827.88	2975
828.02	2887
828.159	2967
828.298	3028
828.437	3123
828.577	3032
828.716	3283
828.855	3104
828.994	2956
829.134	2876
829.273	2941
829.412	2864
829.551	2899
829.69	2899
829.829	3009
829.968	3138
830.107	3036
830.246	3024
830.385	2929
830.524	2883
830.663	2853
830.802	2724
830.941	2644
831.08	2655
831.219	2777
831.357	2796
831.496	2982
831.635	2682
831.774	2663
831.913	2655
832.051	2556
832.19	2594
832.329	2708
832.467	2533
832.606	2514
832.744	2587
832.883	2598
833.022	2579
833.16	2640
833.299	2693
833.437	2705
833.576	2720
833.714	2788
833.852	2739
833.991	2762
834.129	2823
834.267	2864
834.406	2823
834.544	2864
834.682	2887
834.821	2902
834.959	3085
835.097	2910
835.235	3055
835.373	2975
835.511	3017
835.65	2975
835.788	2933
835.926	2830
836.064	2823
836.202	2845
836.34	3085
836.478	3184
836.615	3032
836.753	3112
836.891	3214
837.029	3165
837.167	3146
837.305	3051
837.443	3058
837.58	2998
837.718	3142
837.856	3089
837.993	3017
838.131	3138
838.269	3135
838.406	3104
838.544	3062
838.681	2929
838.819	2922
838.956	2792
839.094	2842
839.231	2929
839.369	3055
839.506	3367
839.643	3218
839.781	3062
839.918	2986
840.055	3062
840.193	3077
840.33	3058
840.467	3100
840.604	3173
840.742	3428
840.879	3066
841.016	3070
841.153	3135
841.29	3336
841.427	3302
841.564	3279
841.701	3340
841.838	3214
841.975	3184
842.112	3233
842.249	3093
842.385	3043
842.522	3230
842.659	3089
842.796	3062
842.933	3100
843.069	3062
843.206	3039
843.343	3188
843.479	3150
843.616	3169
843.752	2906
843.889	2876
844.025	3142
844.162	2876
844.298	3112
844.435	2933
844.571	2910
844.708	3070
844.844	3169
844.98	3264
845.117	3222
845.253	3039
845.389	2990
845.525	3131
845.661	3127
845.798	3066
845.934	3142
846.07	3039
846.206	3256
846.342	3317
846.478	3218
846.614	3119
846.75	3058
846.886	3036
847.022	3226
847.158	3131
847.294	3241
847.429	3264
847.565	3222
847.701	3481
847.837	3032
847.972	3013
848.108	3169
848.244	3154
848.379	2979
848.515	2963
848.65	2933
848.786	2979
848.921	3001
849.057	3150
849.192	3176
849.328	3074
849.463	3150
849.598	3062
849.734	3039
849.869	2967
850.004	2967
850.14	2948
850.275	2925
850.41	2838
850.545	2887
850.68	2971
850.815	2971
850.95	2967
851.085	3218
851.22	3135
851.355	3013
851.49	3005
851.625	3005
851.76	2979
851.895	2952
852.03	2922
852.165	3020
852.299	3142
852.434	3203
852.569	3154
852.703	3207
852.838	3241
852.973	3340
853.107	3302
853.242	3142
853.376	3104
853.511	2982
853.645	3066
853.78	3222
853.914	3100
854.048	3135
854.183	3093
854.317	3138
854.451	3256
854.585	3135
854.72	3100
854.854	3214
854.988	3032
855.122	3108
855.256	2986
855.39	3119
855.524	3230
855.658	3211
855.792	3131
855.926	3207
856.06	3207
856.194	3275
856.327	3154
856.461	3062
856.595	3161
856.729	3104
856.862	3264
856.996	3176
857.13	3260
857.263	3237
857.397	3253
857.53	3100
857.664	3192
857.797	3230
857.931	3249
858.064	3199
858.197	3211
858.331	3165
858.464	3104
858.597	3001
858.731	3123
858.864	3150
858.997	3138
859.13	3135
859.263	3195
859.396	3199
859.529	3081
859.662	3097
859.795	3077
859.928	3142
860.061	3272
860.194	3317
860.327	3154
860.46	3100
860.592	3249
860.725	3268
860.858	3218
860.99	3119
861.123	3055
861.256	3074
861.388	3154
861.521	3835
861.653	3028
861.786	2994
861.918	3043
862.05	3058
862.183	3089
862.315	3154
862.447	3192
862.58	3093
862.712	2941
862.844	2887
862.976	3024
863.108	3017
863.24	3317
863.372	2895
863.504	2982
863.636	2933
863.768	3039
863.9	2990
864.032	2922
864.164	2990
864.296	3013
864.428	3055
864.559	3097
864.691	3093
864.823	3097
864.954	3051
865.086	3051
865.217	2944
865.349	2914
865.48	2941
865.612	2979
865.743	3146
865.875	3013
866.006	2956
866.137	2994
866.269	2918
866.4	3020
866.531	2929
866.662	2910
866.793	2883
866.924	2929
867.055	2971
867.186	2914
867.317	2918
867.448	2853
867.579	2861
867.71	2864
867.841	2838
867.972	2902
868.103	2876
868.233	2895
868.364	2872
868.495	2944
868.625	3085
868.756	3112
868.886	2986
869.017	3047
869.147	3146
869.278	3165
869.408	3062
869.539	3017
869.669	3116
869.799	3062
869.929	3116
870.06	3097
870.19	3336
870.32	3272
870.45	3279
870.58	3428
870.71	3485
870.84	3458
870.97	3279
871.1	3233
871.23	3485
871.36	3435
871.489	3363
871.619	3412
871.749	3412
871.879	3443
872.008	3523
872.138	3367
872.267	3264
872.397	3169
872.526	3074
872.656	3001
872.785	3051
872.915	3226
873.044	3332
873.173	3233
873.303	3275
873.432	3207
873.561	3245
873.69	3165
873.819	3180
873.948	3207
874.077	3089
874.206	3058
874.335	3043
874.464	3180
874.593	3329
874.722	3253
874.851	3435
874.979	3340
875.108	3310
875.237	3214
875.365	3176
875.494	3173
875.623	3253
875.751	3074
875.88	3135
876.008	3207
876.136	3253
876.265	3401
876.393	3488
876.521	3393
876.65	3420
876.778	3344
876.906	3237
877.034	3165
877.162	3230
877.29	3180
877.418	3253
877.546	3253
877.674	3298
877.802	3287
877.93	3249
878.058	3161
878.185	3138
878.313	3176
878.441	3199
878.568	3070
878.696	3123
878.824	3283
878.951	3260
879.079	3439
879.206	3625
879.333	3443
879.461	3310
879.588	3386
879.715	3500
879.842	3614
879.97	3367
880.097	3199
880.224	3146
880.351	3222
880.478	3169
880.605	3218
880.732	3188
880.859	3511
880.986	3310
881.112	3340
881.239	3241
881.366	3131
881.493	3047
881.619	3036
881.746	3077
881.872	3085
881.999	3085
882.125	3154
882.252	3272
882.378	3298
882.505	3389
882.631	3321
882.757	3150
882.883	3241
883.01	3253
883.136	3146
883.262	3074
883.388	3085
883.514	3298
883.64	3401
883.766	3306
883.892	3173
884.018	3264
884.143	3439
884.269	3530
884.395	3230
884.52	3176
884.646	3169
884.772	3161
884.897	3127
885.023	3226
885.148	3325
885.274	3405
885.399	3363
885.524	3283
885.65	3279
885.775	3287
885.9	3298
886.025	3443
886.15	3367
886.275	3317
886.4	3233
886.525	3313
886.65	3275
886.775	3275
886.9	3504
887.025	3603
887.149	3409
887.274	3241
887.399	3207
887.523	3192
887.648	3203
887.773	3195
887.897	3367
888.021	3389
888.146	3279
888.27	3428
888.395	3534
888.519	3435
888.643	3466
888.767	3473
888.891	3287
889.015	3241
889.139	3253
889.263	3211
889.387	3397
889.511	3485
889.635	3473
889.759	3275
889.883	3302
890.006	3420
890.13	3507
890.254	3287
890.377	3332
890.501	3222
890.624	3173
890.748	3321
890.871	3176
890.995	3108
891.118	3047
891.241	3195
891.364	3214
891.488	3340
891.611	3173
891.734	3237
891.857	3317
891.98	3226
892.103	3317
892.226	3336
892.349	3207
892.471	3104
892.594	3249
892.717	3310
892.839	3291
892.962	3298
893.085	3367
893.207	3245
893.33	3161
893.452	3207
893.575	3325
893.697	3241
893.819	3481
893.941	3511
894.064	3412
894.186	3241
894.308	3291
894.43	3447
894.552	3545
894.674	3492
894.796	3253
894.918	3279
895.04	3321
895.161	3439
895.283	3420
895.405	3374
895.526	3351
895.648	3405
895.769	3397
895.891	3443
896.012	3526
896.134	3492
896.255	3447
896.376	3389
896.498	3363
896.619	3431
896.74	3393
896.861	3374
896.982	3663
897.103	3884
897.224	3584
897.345	3504
897.466	3428
897.587	3469
897.708	3610
897.828	3561
897.949	3450
898.07	3302
898.19	3397
898.311	3587
898.431	3450
898.552	3538
898.672	3625
898.792	3553
898.913	3523
899.033	3428
899.153	3291
899.273	3233
899.393	3245
899.513	3336
899.633	3287
899.753	3351
899.873	3348
899.993	3416
900.113	3340
900.232	3409
900.352	3332
900.472	3287
900.591	3218
900.711	3325
900.83	3272
900.95	3409
901.069	3500
901.189	3370
901.308	3184
901.427	3100
901.546	3222
901.665	3272
901.784	3370
901.904	3199
902.023	3157
902.141	3032
902.26	3009
902.379	3184
902.498	3100
902.617	3085
902.735	3226
902.854	3233
902.973	3184
903.091	3043
903.21	3032
903.328	3146
903.446	3100
903.565	3097
903.683	3222
903.801	3116
903.919	3264
904.038	3291
904.156	3161
904.274	3317
904.392	3272
904.51	3302
904.627	3283
904.745	3443
904.863	3511
904.981	3291
905.098	3184
905.216	3218
905.334	3321
905.451	3317
905.569	3313
905.686	3439
905.803	3424
905.921	3279
906.038	3435
906.155	3370
906.272	3268
906.389	3332
906.506	3268
906.623	3279
906.74	3298
906.857	3184
906.974	3237
907.091	3477
907.208	3534
907.324	3481
907.441	3382
907.557	3226
907.674	3241
907.79	3214
907.907	3283
908.023	3382
908.139	3397
908.256	3344
908.372	3435
908.488	3393
908.604	3302
908.72	3226
908.836	3287
908.952	3294
909.068	3332
909.184	3462
909.3	3409
909.415	3473
909.531	3507
909.647	3279
909.762	3302
909.878	3287
909.993	3382
910.108	3344
910.224	3348
910.339	3389
910.454	3355
910.57	3313
910.685	3245
910.8	3580
910.915	3549
911.03	3420
911.145	3283
911.259	3294
911.374	3298
911.489	3253
911.604	3226
911.718	3085
911.833	3146
911.947	3051
912.062	2975
912.176	3188
912.291	3192
912.405	3233
912.519	3443
912.633	3477
912.748	3344
912.862	3279
912.976	3165
913.09	3070
913.204	3138
913.318	3283
913.431	3332
913.545	3321
913.659	3424
913.772	3321
913.886	3199
914	3192
914.113	3374
914.226	3424
914.34	3363
914.453	3176
914.566	3439
914.68	3329
914.793	3283
914.906	3161
915.019	3104
915.132	3093
915.245	3173
915.358	3245
915.47	3233
915.583	3260
915.696	3294
915.809	3412
915.921	3409
916.034	3272
916.146	3249
916.259	3241
916.371	3397
916.483	3344
916.595	3272
916.708	3348
916.82	3359
916.932	3367
917.044	3329
917.156	3313
917.268	3237
917.38	3279
917.491	3317
917.603	3401
917.715	3458
917.826	3462
917.938	3374
918.049	3275
918.161	3412
918.272	3622
918.384	3564
918.495	3492
918.606	3409
918.717	3287
918.828	3374
918.939	3431
919.05	3283
919.161	3397
919.272	3161
919.383	3279
919.494	3500
919.604	3705
919.715	3428
919.826	3435
919.936	3473
920.047	3603
920.157	3576
920.267	3781
920.378	3580
920.488	3557
920.598	3770
920.708	4006
920.818	3835
920.928	3846
921.038	4021
921.148	3972
921.258	3701
921.368	3652
921.477	3572
921.587	3564
921.697	3477
921.806	3644
921.916	3500
922.025	3363
922.134	3393
922.244	3313
922.353	3450
922.462	3283
922.571	3226
922.68	3146
922.789	3100
922.898	3135
923.007	3116
923.116	3214
923.224	3157
923.333	3165
923.442	3108
923.55	3085
923.659	3146
923.767	3199
923.876	3127
923.984	3249
924.092	3097
924.201	3203
924.309	3237
924.417	3241
924.525	3230
924.633	3249
924.741	4166
924.849	3055
924.956	3256
925.064	3112
925.172	3062
925.279	3097
925.387	3146
925.494	3222
925.602	3386
925.709	3310
925.816	3199
925.924	3233
926.031	3405
926.138	3298
926.245	3367
926.352	3260
926.459	3431
926.566	3454
926.673	3332
926.779	3264
926.886	3249
926.993	3203
927.099	3142
927.206	3081
927.312	3119
927.419	3237
927.525	3218
927.631	3279
927.737	3142
927.843	3142
927.95	3036
928.056	3138
928.162	3192
928.267	3233
928.373	3907
928.479	3325
928.585	3085
928.69	3245
928.796	3287
928.901	3165
929.007	3055
929.112	3230
929.218	3173
929.323	3173
929.428	3150
929.533	3321
929.638	3123
929.743	3165
929.848	3245
929.953	3253
930.058	3150
930.163	3024
930.267	3074
930.372	3237
930.477	3055
930.581	3329
930.685	3195
930.79	3062
930.894	3108
930.998	3119
931.103	3279
931.207	2952
931.311	2922
931.415	2922
931.519	2804
931.623	2830
