Data from test_V78500241_1210.txt Node
Date: Fri Mar 25 16:23:35 CST 2022
User: usil
Spectrometer: V785-0024
Trigger mode: 0
Integration Time (sec): 4.000000E-1
Scans to average: 1
Nonlinearity correction enabled: false
Boxcar width: 0
Storing dark spectrum: false
XAxis mode: Wavelengths
Number of Pixels in Spectrum: 1024
>>>>>Begin Spectral Data<<<<<
801.071	2906
801.214	2918
801.356	2868
801.499	2956
801.641	2872
801.783	2956
801.926	3062
802.068	2963
802.211	2990
802.353	3055
802.496	2948
802.638	3009
802.78	3051
802.923	3104
803.065	3013
803.208	2902
803.35	2937
803.492	2906
803.635	2948
803.777	2762
803.919	2853
804.061	3214
804.204	2963
804.346	2906
804.488	2849
804.63	2986
804.773	2849
804.915	2902
805.057	3070
805.199	2956
805.341	2982
805.483	3039
805.626	3017
805.768	2979
805.91	3089
806.052	3138
806.194	3005
806.336	3218
806.478	3024
806.62	2948
806.762	2963
806.904	3043
807.046	3112
807.188	2979
807.33	2906
807.472	2982
807.614	2914
807.756	2982
807.898	2937
808.04	2922
808.182	2971
808.324	2963
808.465	2902
808.607	2872
808.749	2781
808.891	2842
809.033	2986
809.174	2956
809.316	2891
809.458	2891
809.6	2773
809.741	2762
809.883	2758
810.025	2845
810.166	2853
810.308	2834
810.45	2853
810.591	2769
810.733	2739
810.875	2853
811.016	2750
811.158	2743
811.299	2819
811.441	2910
811.582	2868
811.724	2834
811.865	2819
812.007	2922
812.148	2864
812.29	2804
812.431	2872
812.573	2952
812.714	2990
812.855	2998
812.997	3013
813.138	3112
813.279	2998
813.421	2937
813.562	2944
813.703	2838
813.845	2883
813.986	2750
814.127	2731
814.268	2823
814.41	2830
814.551	2800
814.692	2849
814.833	2830
814.974	2883
815.115	2963
815.256	2811
815.397	2819
815.539	2872
815.68	2766
815.821	2777
815.962	2952
816.103	2925
816.244	2876
816.385	2872
816.526	2944
816.666	2910
816.807	2746
816.948	2891
817.089	2925
817.23	2834
817.371	2792
817.512	2807
817.653	2815
817.793	2811
817.934	2861
818.075	2960
818.216	2933
818.356	3047
818.497	2853
818.638	2785
818.778	2819
818.919	2781
819.06	2727
819.2	2880
819.341	2792
819.481	2781
819.622	2914
819.762	3081
819.903	3074
820.043	2906
820.184	2895
820.324	2906
820.465	3001
820.605	3013
820.746	3013
820.886	2906
821.026	3089
821.167	3169
821.307	3237
821.447	3291
821.588	3161
821.728	3180
821.868	3188
822.008	3055
822.149	3203
822.289	3237
822.429	3077
822.569	3051
822.709	3154
822.849	3001
822.99	3074
823.13	3165
823.27	3161
823.41	3097
823.55	3192
823.69	3157
823.83	3188
823.97	3119
824.11	2998
824.25	3024
824.389	3039
824.529	3112
824.669	3093
824.809	3211
824.949	3233
825.089	3230
825.228	3161
825.368	3039
825.508	2967
825.648	2948
825.787	3032
825.927	3028
826.067	3005
826.206	2982
826.346	3108
826.485	3093
826.625	3131
826.765	3279
826.904	3230
827.044	3013
827.183	2971
827.323	2922
827.462	2986
827.601	2941
827.741	3024
827.88	3020
828.02	2849
828.159	3032
828.298	3058
828.437	3138
828.577	3089
828.716	3272
828.855	3154
828.994	2944
829.134	2948
829.273	2952
829.412	2933
829.551	2929
829.69	2948
829.829	2998
829.968	3123
830.107	3036
830.246	3077
830.385	2971
830.524	2933
830.663	2861
830.802	2735
830.941	2693
831.08	2712
831.219	2819
831.357	2830
831.496	3028
831.635	2773
831.774	2697
831.913	2697
832.051	2590
832.19	2613
832.329	2735
832.467	2556
832.606	2533
832.744	2598
832.883	2594
833.022	2617
833.16	2667
833.299	2727
833.437	2727
833.576	2743
833.714	2800
833.852	2785
833.991	2788
834.129	2887
834.267	2834
834.406	2823
834.544	2918
834.682	2918
834.821	2918
834.959	3116
835.097	2922
835.235	3119
835.373	3039
835.511	3036
835.65	3013
835.788	2960
835.926	2864
836.064	2845
836.202	2868
836.34	3116
836.478	3176
836.615	3074
836.753	3157
836.891	3249
837.029	3192
837.167	3127
837.305	3093
837.443	3077
837.58	3001
837.718	3184
837.856	3074
837.993	3051
838.131	3169
838.269	3119
838.406	3108
838.544	3112
838.681	2975
838.819	2941
838.956	2807
839.094	2899
839.231	2937
839.369	3074
839.506	3386
839.643	3283
839.781	3036
839.918	2979
840.055	3077
840.193	3097
840.33	3100
840.467	3131
840.604	3180
840.742	3428
840.879	3100
841.016	3104
841.153	3154
841.29	3351
841.427	3313
841.564	3283
841.701	3344
841.838	3256
841.975	3184
842.112	3249
842.249	3138
842.385	3066
842.522	3256
842.659	3146
842.796	3097
842.933	3116
843.069	3127
843.206	3058
843.343	3218
843.479	3150
843.616	3188
843.752	2933
843.889	2922
844.025	3119
844.162	2922
844.298	3100
844.435	2971
844.571	2963
844.708	3104
844.844	3218
844.98	3302
845.117	3241
845.253	3123
845.389	3055
845.525	3176
845.661	3119
845.798	3070
845.934	3135
846.07	3070
846.206	3222
846.342	3348
846.478	3237
846.614	3074
846.75	3089
846.886	3047
847.022	3279
847.158	3116
847.294	3218
847.429	3264
847.565	3203
847.701	3523
847.837	3066
847.972	3013
848.108	3195
848.244	3138
848.379	2979
848.515	2960
848.65	2956
848.786	3017
848.921	3036
849.057	3138
849.192	3165
849.328	3100
849.463	3104
849.598	3116
849.734	3085
849.869	3001
850.004	2929
850.14	3028
850.275	2979
850.41	2842
850.545	2906
850.68	2922
850.815	2971
850.95	2998
851.085	3222
851.22	3119
851.355	3051
851.49	3013
851.625	3039
851.76	3062
851.895	2937
852.03	2948
852.165	3028
852.299	3146
852.434	3214
852.569	3150
852.703	3222
852.838	3241
852.973	3386
853.107	3332
853.242	3169
853.376	3131
853.511	3020
853.645	3081
853.78	3237
853.914	3154
854.048	3180
854.183	3085
854.317	3176
854.451	3325
854.585	3176
854.72	3165
854.854	3237
854.988	3039
855.122	3093
855.256	2982
855.39	3146
855.524	3253
855.658	3207
855.792	3173
855.926	3203
856.06	3256
856.194	3294
856.327	3146
856.461	3077
856.595	3127
856.729	3108
856.862	3226
856.996	3184
857.13	3214
857.263	3237
857.397	3294
857.53	3123
857.664	3249
857.797	3272
857.931	3306
858.064	3184
858.197	3230
858.331	3154
858.464	3112
858.597	3032
858.731	3131
858.864	3146
858.997	3108
859.13	3207
859.263	3211
859.396	3218
859.529	3127
859.662	3089
859.795	3070
859.928	3165
860.061	3298
860.194	3294
860.327	3169
860.46	3127
860.592	3233
860.725	3264
860.858	3226
860.99	3123
861.123	3055
861.256	3062
861.388	3123
861.521	3793
861.653	3047
861.786	2990
861.918	3024
862.05	3127
862.183	3142
862.315	3169
862.447	3218
862.58	3123
862.712	2990
862.844	2895
862.976	3047
863.108	3005
863.24	3439
863.372	2864
863.504	3001
863.636	2975
863.768	3047
863.9	2982
864.032	2918
864.164	2937
864.296	3047
864.428	3116
864.559	3108
864.691	3070
864.823	3058
864.954	3043
865.086	3070
865.217	3028
865.349	2948
865.48	2982
865.612	3032
865.743	3161
865.875	3009
866.006	2979
866.137	3009
866.269	2979
866.4	2937
866.531	2944
866.662	2895
866.793	2929
866.924	2891
867.055	2990
867.186	2948
867.317	2906
867.448	2838
867.579	2868
867.71	2861
867.841	2834
867.972	2948
868.103	2929
868.233	2910
868.364	2883
868.495	2933
868.625	3089
868.756	3176
868.886	2979
869.017	3043
869.147	3192
869.278	3180
869.408	3043
869.539	3020
869.669	3077
869.799	3051
869.929	3146
870.06	3108
870.19	3332
870.32	3336
870.45	3310
870.58	3412
870.71	3458
870.84	3477
870.97	3317
871.1	3291
871.23	3443
871.36	3447
871.489	3359
871.619	3443
871.749	3428
871.879	3431
872.008	3511
872.138	3386
872.267	3317
872.397	3150
872.526	3135
872.656	3032
872.785	3135
872.915	3260
873.044	3306
873.173	3230
873.303	3264
873.432	3195
873.561	3253
873.69	3207
873.819	3192
873.948	3218
874.077	3135
874.206	3043
874.335	3108
874.464	3214
874.593	3374
874.722	3249
874.851	3386
874.979	3355
875.108	3344
875.237	3203
875.365	3173
875.494	3169
875.623	3260
875.751	3097
875.88	3165
876.008	3211
876.136	3253
876.265	3370
876.393	3534
876.521	3450
876.65	3386
876.778	3325
876.906	3287
877.034	3199
877.162	3275
877.29	3188
877.418	3279
877.546	3264
877.674	3264
877.802	3237
877.93	3237
878.058	3176
878.185	3104
878.313	3203
878.441	3222
878.568	3100
878.696	3218
878.824	3264
878.951	3317
879.079	3481
879.206	3603
879.333	3431
879.461	3359
879.588	3370
879.715	3458
879.842	3610
879.97	3409
880.097	3188
880.224	3176
880.351	3218
880.478	3233
880.605	3275
880.732	3169
880.859	3519
880.986	3359
881.112	3332
881.239	3184
881.366	3135
881.493	3070
881.619	3055
881.746	3070
881.872	3085
881.999	3093
882.125	3135
882.252	3294
882.378	3313
882.505	3485
882.631	3279
882.757	3150
882.883	3207
883.01	3233
883.136	3188
883.262	3123
883.388	3108
883.514	3287
883.64	3363
883.766	3294
883.892	3195
884.018	3272
884.143	3450
884.269	3545
884.395	3211
884.52	3192
884.646	3188
884.772	3173
884.897	3104
885.023	3256
885.148	3374
885.274	3458
885.399	3378
885.524	3283
885.65	3237
885.775	3310
885.9	3256
886.025	3462
886.15	3382
886.275	3287
886.4	3237
886.525	3332
886.65	3294
886.775	3279
886.9	3477
887.025	3633
887.149	3401
887.274	3306
887.399	3165
887.523	3222
887.648	3199
887.773	3241
887.897	3389
888.021	3370
888.146	3325
888.27	3466
888.395	3576
888.519	3386
888.643	3450
888.767	3469
888.891	3325
889.015	3279
889.139	3325
889.263	3275
889.387	3447
889.511	3534
889.635	3447
889.759	3283
889.883	3302
890.006	3393
890.13	3500
890.254	3279
890.377	3386
890.501	3253
890.624	3245
890.748	3306
890.871	3195
890.995	3116
891.118	3058
891.241	3195
891.364	3214
891.488	3317
891.611	3165
891.734	3214
891.857	3302
891.98	3253
892.103	3306
892.226	3272
892.349	3214
892.471	3135
892.594	3272
892.717	3264
892.839	3237
892.962	3313
893.085	3340
893.207	3306
893.33	3173
893.452	3195
893.575	3317
893.697	3260
893.819	3496
893.941	3526
894.064	3443
894.186	3283
894.308	3241
894.43	3477
894.552	3523
894.674	3485
894.796	3268
894.918	3302
895.04	3294
895.161	3435
895.283	3397
895.405	3313
895.526	3313
895.648	3443
895.769	3450
895.891	3477
896.012	3496
896.134	3447
896.255	3382
896.376	3378
896.498	3359
896.619	3462
896.74	3382
896.861	3405
896.982	3705
897.103	3873
897.224	3606
897.345	3485
897.466	3435
897.587	3538
897.708	3656
897.828	3545
897.949	3435
898.07	3344
898.19	3431
898.311	3580
898.431	3431
898.552	3511
898.672	3614
898.792	3587
898.913	3530
899.033	3450
899.153	3256
899.273	3253
899.393	3329
899.513	3321
899.633	3313
899.753	3355
899.873	3340
899.993	3397
900.113	3348
900.232	3370
900.352	3302
900.472	3306
900.591	3214
900.711	3298
900.83	3245
900.95	3378
901.069	3466
901.189	3367
901.308	3154
901.427	3135
901.546	3211
901.665	3302
901.784	3332
901.904	3245
902.023	3123
902.141	3020
902.26	3020
902.379	3112
902.498	3081
902.617	3055
902.735	3211
902.854	3222
902.973	3211
903.091	3043
903.21	3051
903.328	3142
903.446	3154
903.565	3100
903.683	3184
903.801	3150
903.919	3237
904.038	3249
904.156	3157
904.274	3275
904.392	3287
904.51	3298
904.627	3367
904.745	3462
904.863	3507
904.981	3256
905.098	3180
905.216	3253
905.334	3233
905.451	3306
905.569	3313
905.686	3428
905.803	3443
905.921	3287
906.038	3447
906.155	3344
906.272	3272
906.389	3302
906.506	3241
906.623	3256
906.74	3283
906.857	3199
906.974	3253
907.091	3481
907.208	3549
907.324	3492
907.441	3389
907.557	3241
907.674	3245
907.79	3222
907.907	3294
908.023	3401
908.139	3378
908.256	3348
908.372	3386
908.488	3359
908.604	3249
908.72	3226
908.836	3253
908.952	3279
909.068	3310
909.184	3473
909.3	3401
909.415	3507
909.531	3458
909.647	3283
909.762	3291
909.878	3260
909.993	3370
910.108	3336
910.224	3340
910.339	3405
910.454	3340
910.57	3298
910.685	3249
910.8	3622
910.915	3534
911.03	3428
911.145	3294
911.259	3253
911.374	3313
911.489	3199
911.604	3222
911.718	3161
911.833	3173
911.947	3043
912.062	3001
912.176	3135
912.291	3203
912.405	3222
912.519	3401
912.633	3447
912.748	3344
912.862	3268
912.976	3176
913.09	3043
913.204	3165
913.318	3226
913.431	3367
913.545	3355
913.659	3405
913.772	3321
913.886	3214
914	3188
914.113	3336
914.226	3412
914.34	3386
914.453	3218
914.566	3397
914.68	3283
914.793	3302
914.906	3146
915.019	3127
915.132	3062
915.245	3184
915.358	3203
915.47	3184
915.583	3226
915.696	3268
915.809	3416
915.921	3416
916.034	3249
916.146	3264
916.259	3226
916.371	3355
916.483	3401
916.595	3241
916.708	3348
916.82	3306
916.932	3321
917.044	3340
917.156	3363
917.268	3256
917.38	3279
917.491	3298
917.603	3344
917.715	3443
917.826	3488
917.938	3370
918.049	3306
918.161	3428
918.272	3599
918.384	3576
918.495	3485
918.606	3317
918.717	3298
918.828	3367
918.939	3389
919.05	3321
919.161	3382
919.272	3131
919.383	3287
919.494	3500
919.604	3641
919.715	3500
919.826	3431
919.936	3428
920.047	3599
920.157	3553
920.267	3778
920.378	3595
920.488	3568
920.598	3793
920.708	3964
920.818	3827
920.928	3842
921.038	4006
921.148	4040
921.258	3656
921.368	3629
921.477	3580
921.587	3534
921.697	3431
921.806	3591
921.916	3488
922.025	3348
922.134	3370
922.244	3310
922.353	3420
922.462	3260
922.571	3249
922.68	3093
922.789	3047
922.898	3116
923.007	3119
923.116	3218
923.224	3180
923.333	3192
923.442	3104
923.55	3077
923.659	3138
923.767	3222
923.876	3100
923.984	3294
924.092	3097
924.201	3184
924.309	3222
924.417	3253
924.525	3157
924.633	3260
924.741	4013
924.849	3051
924.956	3272
925.064	3116
925.172	3024
925.279	3116
925.387	3192
925.494	3199
925.602	3351
925.709	3317
925.816	3203
925.924	3253
926.031	3397
926.138	3325
926.245	3378
926.352	3256
926.459	3420
926.566	3481
926.673	3310
926.779	3287
926.886	3268
926.993	3127
927.099	3135
927.206	3077
927.312	3154
927.419	3241
927.525	3199
927.631	3291
927.737	3157
927.843	3116
927.95	3024
928.056	3161
928.162	3184
928.267	3211
928.373	3861
928.479	3272
928.585	3085
928.69	3207
928.796	3253
928.901	3150
929.007	3028
929.112	3249
929.218	3192
929.323	3127
929.428	3138
929.533	3321
929.638	3112
929.743	3142
929.848	3268
929.953	3203
930.058	3169
930.163	3020
930.267	3070
930.372	3230
930.477	3036
930.581	3336
930.685	3161
930.79	3058
930.894	3112
930.998	3112
931.103	3283
931.207	2933
931.311	2937
931.415	2910
931.519	2758
931.623	2807
