Data from test_V78500241_652.txt Node
Date: Fri Mar 25 16:19:43 CST 2022
User: usil
Spectrometer: V785-0024
Trigger mode: 0
Integration Time (sec): 4.000000E-1
Scans to average: 1
Nonlinearity correction enabled: false
Boxcar width: 0
Storing dark spectrum: false
XAxis mode: Wavelengths
Number of Pixels in Spectrum: 1024
>>>>>Begin Spectral Data<<<<<
801.071	2941
801.214	2929
801.356	2853
801.499	2868
801.641	2872
801.783	2933
801.926	3055
802.068	2941
802.211	2986
802.353	3017
802.496	2941
802.638	3013
802.78	3028
802.923	3089
803.065	2967
803.208	2880
803.35	2906
803.492	2937
803.635	2922
803.777	2781
803.919	2876
804.061	3195
804.204	2963
804.346	2922
804.488	2849
804.63	2960
804.773	2887
804.915	2925
805.057	3089
805.199	2948
805.341	2975
805.483	3039
805.626	3043
805.768	2960
805.91	3081
806.052	3142
806.194	3070
806.336	3268
806.478	3051
806.62	2929
806.762	2979
806.904	3024
807.046	3146
807.188	2979
807.33	2895
807.472	2986
807.614	2922
807.756	3024
807.898	2944
808.04	2880
808.182	2967
808.324	2937
808.465	2876
808.607	2853
808.749	2769
808.891	2868
809.033	2998
809.174	2956
809.316	2899
809.458	2868
809.6	2788
809.741	2781
809.883	2758
810.025	2823
810.166	2849
810.308	2853
810.45	2864
810.591	2762
810.733	2807
810.875	2823
811.016	2777
811.158	2785
811.299	2800
811.441	2929
811.582	2895
811.724	2830
811.865	2849
812.007	2937
812.148	2876
812.29	2864
812.431	2864
812.573	2929
812.714	2925
812.855	3001
812.997	3013
813.138	3112
813.279	2986
813.421	2960
813.562	2925
813.703	2868
813.845	2891
813.986	2766
814.127	2735
814.268	2807
814.41	2830
814.551	2800
814.692	2876
814.833	2800
814.974	2864
815.115	2982
815.256	2785
815.397	2826
815.539	2838
815.68	2750
815.821	2777
815.962	2933
816.103	2948
816.244	2883
816.385	2857
816.526	2948
816.666	2918
816.807	2762
816.948	2902
817.089	2880
817.23	2842
817.371	2762
817.512	2785
817.653	2823
817.793	2811
817.934	2819
818.075	2956
818.216	3013
818.356	3001
818.497	2914
818.638	2773
818.778	2800
818.919	2785
819.06	2773
819.2	2876
819.341	2788
819.481	2785
819.622	2925
819.762	3085
819.903	3013
820.043	2918
820.184	2883
820.324	2891
820.465	3009
820.605	2998
820.746	2990
820.886	2925
821.026	3100
821.167	3116
821.307	3253
821.447	3268
821.588	3218
821.728	3192
821.868	3184
822.008	3058
822.149	3138
822.289	3230
822.429	3081
822.569	3093
822.709	3180
822.849	3009
822.99	3066
823.13	3123
823.27	3230
823.41	3112
823.55	3157
823.69	3108
823.83	3211
823.97	3104
824.11	2986
824.25	2994
824.389	3024
824.529	3138
824.669	3062
824.809	3161
824.949	3287
825.089	3237
825.228	3180
825.368	2998
825.508	2929
825.648	2967
825.787	3020
825.927	2979
826.067	2941
826.206	2944
826.346	3039
826.485	3085
826.625	3089
826.765	3218
826.904	3211
827.044	2990
827.183	2929
827.323	2826
827.462	3009
827.601	2918
827.741	2948
827.88	2971
828.02	2842
828.159	2963
828.298	3013
828.437	3116
828.577	3058
828.716	3222
828.855	3093
828.994	2910
829.134	2876
829.273	2906
829.412	2868
829.551	2845
829.69	2891
829.829	2967
829.968	3112
830.107	2960
830.246	3039
830.385	2937
830.524	2868
830.663	2834
830.802	2720
830.941	2659
831.08	2598
831.219	2743
831.357	2735
831.496	2967
831.635	2727
831.774	2621
831.913	2651
832.051	2545
832.19	2579
832.329	2678
832.467	2556
832.606	2492
832.744	2590
832.883	2571
833.022	2571
833.16	2629
833.299	2686
833.437	2667
833.576	2678
833.714	2697
833.852	2708
833.991	2750
834.129	2834
834.267	2819
834.406	2754
834.544	2876
834.682	2872
834.821	2895
834.959	3066
835.097	2872
835.235	3058
835.373	3017
835.511	3005
835.65	2971
835.788	2967
835.926	2853
836.064	2834
836.202	2826
836.34	3070
836.478	3169
836.615	3058
836.753	3146
836.891	3222
837.029	3173
837.167	3093
837.305	3051
837.443	3039
837.58	2963
837.718	3142
837.856	3020
837.993	3055
838.131	3138
838.269	3104
838.406	3062
838.544	3047
838.681	2929
838.819	2918
838.956	2785
839.094	2800
839.231	2887
839.369	2998
839.506	3340
839.643	3207
839.781	3036
839.918	2948
840.055	3055
840.193	3047
840.33	3074
840.467	3077
840.604	3142
840.742	3386
840.879	3089
841.016	3043
841.153	3100
841.29	3325
841.427	3306
841.564	3237
841.701	3260
841.838	3207
841.975	3195
842.112	3138
842.249	3013
842.385	3028
842.522	3237
842.659	3108
842.796	3081
842.933	3108
843.069	3036
843.206	3013
843.343	3211
843.479	3074
843.616	3123
843.752	2883
843.889	2861
844.025	3077
844.162	2872
844.298	3074
844.435	2933
844.571	2929
844.708	3104
844.844	3161
844.98	3226
845.117	3150
845.253	3043
845.389	3024
845.525	3058
845.661	3077
845.798	2979
845.934	3154
846.07	3036
846.206	3180
846.342	3272
846.478	3211
846.614	3085
846.75	3001
846.886	3020
847.022	3222
847.158	3112
847.294	3188
847.429	3272
847.565	3188
847.701	3492
847.837	3017
847.972	3009
848.108	3180
848.244	3131
848.379	2986
848.515	2929
848.65	2891
848.786	2963
848.921	3001
849.057	3112
849.192	3135
849.328	3047
849.463	3119
849.598	3036
849.734	3009
849.869	2944
850.004	2914
850.14	2963
850.275	2933
850.41	2819
850.545	2883
850.68	2918
850.815	2925
850.95	2960
851.085	3169
851.22	3127
851.355	3036
851.49	2971
851.625	2971
851.76	2952
851.895	2941
852.03	2883
852.165	3028
852.299	3112
852.434	3173
852.569	3138
852.703	3188
852.838	3275
852.973	3340
853.107	3332
853.242	3173
853.376	3116
853.511	2948
853.645	3036
853.78	3241
853.914	3123
854.048	3108
854.183	3081
854.317	3169
854.451	3302
854.585	3123
854.72	3097
854.854	3199
854.988	3009
855.122	3085
855.256	2941
855.39	3108
855.524	3214
855.658	3176
855.792	3180
855.926	3211
856.06	3214
856.194	3241
856.327	3157
856.461	3036
856.595	3032
856.729	3104
856.862	3211
856.996	3127
857.13	3180
857.263	3233
857.397	3287
857.53	3085
857.664	3192
857.797	3222
857.931	3237
858.064	3176
858.197	3199
858.331	3100
858.464	3089
858.597	3009
858.731	3116
858.864	3104
858.997	3036
859.13	3138
859.263	3169
859.396	3222
859.529	3093
859.662	3074
859.795	3024
859.928	3119
860.061	3237
860.194	3298
860.327	3165
860.46	3081
860.592	3214
860.725	3260
860.858	3291
860.99	3100
861.123	3047
861.256	3081
861.388	3108
861.521	3884
861.653	2967
861.786	2994
861.918	3017
862.05	3055
862.183	3058
862.315	3161
862.447	3207
862.58	3070
862.712	2937
862.844	2906
862.976	3013
863.108	2960
863.24	3412
863.372	2880
863.504	2979
863.636	2967
863.768	3024
863.9	2971
864.032	2922
864.164	2922
864.296	3028
864.428	3051
864.559	3119
864.691	3074
864.823	3100
864.954	3020
865.086	3001
865.217	2986
865.349	2910
865.48	3009
865.612	3020
865.743	3176
865.875	2994
866.006	2922
866.137	2982
866.269	2960
866.4	2914
866.531	2895
866.662	2902
866.793	2872
866.924	2891
867.055	2990
867.186	2929
867.317	2895
867.448	2838
867.579	2830
867.71	2868
867.841	2811
867.972	2880
868.103	2887
868.233	2880
868.364	2861
868.495	2861
868.625	3062
868.756	3157
868.886	2944
869.017	3020
869.147	3123
869.278	3169
869.408	3055
869.539	3017
869.669	3081
869.799	3020
869.929	3150
870.06	3097
870.19	3306
870.32	3249
870.45	3298
870.58	3348
870.71	3450
870.84	3416
870.97	3325
871.1	3253
871.23	3450
871.36	3450
871.489	3344
871.619	3393
871.749	3382
871.879	3412
872.008	3481
872.138	3370
872.267	3256
872.397	3146
872.526	3104
872.656	3043
872.785	3077
872.915	3176
873.044	3291
873.173	3241
873.303	3237
873.432	3237
873.561	3253
873.69	3195
873.819	3123
873.948	3199
874.077	3108
874.206	3028
874.335	3070
874.464	3222
874.593	3336
874.722	3233
874.851	3378
874.979	3344
875.108	3336
875.237	3192
875.365	3169
875.494	3169
875.623	3268
875.751	3089
875.88	3100
876.008	3173
876.136	3226
876.265	3329
876.393	3542
876.521	3420
876.65	3412
876.778	3348
876.906	3230
877.034	3173
877.162	3237
877.29	3146
877.418	3260
877.546	3199
877.674	3230
877.802	3245
877.93	3222
878.058	3146
878.185	3089
878.313	3192
878.441	3207
878.568	3081
878.696	3150
878.824	3241
878.951	3340
879.079	3405
879.206	3618
879.333	3428
879.461	3306
879.588	3370
879.715	3485
879.842	3584
879.97	3431
880.097	3169
880.224	3131
880.351	3157
880.478	3214
880.605	3180
880.732	3165
880.859	3500
880.986	3287
881.112	3336
881.239	3211
881.366	3089
881.493	3036
881.619	3020
881.746	3089
881.872	3104
881.999	3093
882.125	3142
882.252	3241
882.378	3275
882.505	3435
882.631	3302
882.757	3188
882.883	3233
883.01	3241
883.136	3161
883.262	3112
883.388	3100
883.514	3348
883.64	3397
883.766	3325
883.892	3203
884.018	3233
884.143	3401
884.269	3580
884.395	3207
884.52	3108
884.646	3195
884.772	3127
884.897	3093
885.023	3233
885.148	3313
885.274	3389
885.399	3329
885.524	3321
885.65	3253
885.775	3302
885.9	3245
886.025	3454
886.15	3351
886.275	3291
886.4	3249
886.525	3287
886.65	3275
886.775	3310
886.9	3515
887.025	3641
887.149	3424
887.274	3245
887.399	3176
887.523	3173
887.648	3150
887.773	3192
887.897	3355
888.021	3428
888.146	3283
888.27	3454
888.395	3488
888.519	3439
888.643	3405
888.767	3447
888.891	3260
889.015	3214
889.139	3287
889.263	3233
889.387	3386
889.511	3481
889.635	3477
889.759	3275
889.883	3306
890.006	3393
890.13	3462
890.254	3268
890.377	3355
890.501	3207
890.624	3169
890.748	3253
890.871	3154
890.995	3104
891.118	3058
891.241	3176
891.364	3214
891.488	3317
891.611	3203
891.734	3199
891.857	3233
891.98	3233
892.103	3306
892.226	3306
892.349	3233
892.471	3108
892.594	3192
892.717	3313
892.839	3264
892.962	3298
893.085	3355
893.207	3256
893.33	3180
893.452	3195
893.575	3332
893.697	3207
893.819	3492
893.941	3473
894.064	3447
894.186	3249
894.308	3249
894.43	3416
894.552	3511
894.674	3469
894.796	3294
894.918	3317
895.04	3272
895.161	3439
895.283	3355
895.405	3298
895.526	3367
895.648	3416
895.769	3393
895.891	3428
896.012	3473
896.134	3443
896.255	3405
896.376	3393
896.498	3367
896.619	3401
896.74	3359
896.861	3355
896.982	3644
897.103	3797
897.224	3576
897.345	3496
897.466	3416
897.587	3496
897.708	3614
897.828	3561
897.949	3443
898.07	3317
898.19	3382
898.311	3580
898.431	3428
898.552	3496
898.672	3603
898.792	3561
898.913	3515
899.033	3405
899.153	3283
899.273	3218
899.393	3325
899.513	3287
899.633	3321
899.753	3340
899.873	3298
899.993	3348
900.113	3359
900.232	3378
900.352	3344
900.472	3317
900.591	3199
900.711	3313
900.83	3222
900.95	3420
901.069	3466
901.189	3348
901.308	3142
901.427	3116
901.546	3218
901.665	3283
901.784	3363
901.904	3214
902.023	3157
902.141	3020
902.26	2982
902.379	3138
902.498	3089
902.617	3043
902.735	3214
902.854	3241
902.973	3195
903.091	3039
903.21	3036
903.328	3116
903.446	3077
903.565	3089
903.683	3226
903.801	3039
903.919	3260
904.038	3275
904.156	3157
904.274	3294
904.392	3249
904.51	3291
904.627	3291
904.745	3416
904.863	3488
904.981	3256
905.098	3188
905.216	3226
905.334	3268
905.451	3287
905.569	3332
905.686	3428
905.803	3412
905.921	3283
906.038	3397
906.155	3344
906.272	3253
906.389	3348
906.506	3214
906.623	3253
906.74	3272
906.857	3173
906.974	3264
907.091	3466
907.208	3576
907.324	3485
907.441	3389
907.557	3260
907.674	3218
907.79	3192
907.907	3294
908.023	3393
908.139	3382
908.256	3325
908.372	3340
908.488	3344
908.604	3256
908.72	3241
908.836	3291
908.952	3283
909.068	3298
909.184	3485
909.3	3351
909.415	3519
909.531	3428
909.647	3245
909.762	3268
909.878	3230
909.993	3336
910.108	3344
910.224	3325
910.339	3386
910.454	3336
910.57	3298
910.685	3230
910.8	3599
910.915	3511
911.03	3439
911.145	3272
911.259	3260
911.374	3336
911.489	3207
911.604	3253
911.718	3119
911.833	3157
911.947	3001
912.062	2956
912.176	3135
912.291	3184
912.405	3199
912.519	3386
912.633	3469
912.748	3306
912.862	3275
912.976	3142
913.09	3051
913.204	3135
913.318	3214
913.431	3389
913.545	3348
913.659	3397
913.772	3329
913.886	3211
914	3192
914.113	3351
914.226	3367
914.34	3355
914.453	3226
914.566	3393
914.68	3264
914.793	3275
914.906	3150
915.019	3112
915.132	3058
915.245	3173
915.358	3199
915.47	3226
915.583	3245
915.696	3275
915.809	3386
915.921	3397
916.034	3264
916.146	3272
916.259	3203
916.371	3370
916.483	3332
916.595	3268
916.708	3332
916.82	3348
916.932	3340
917.044	3355
917.156	3363
917.268	3256
917.38	3291
917.491	3279
917.603	3367
917.715	3447
917.826	3469
917.938	3374
918.049	3283
918.161	3397
918.272	3538
918.384	3557
918.495	3519
918.606	3367
918.717	3226
918.828	3370
918.939	3416
919.05	3329
919.161	3359
919.272	3199
919.383	3230
919.494	3473
919.604	3690
919.715	3500
919.826	3428
919.936	3462
920.047	3618
920.157	3557
920.267	3724
920.378	3633
920.488	3591
920.598	3774
920.708	3987
920.818	3827
920.928	3846
921.038	4036
921.148	4010
921.258	3690
921.368	3606
921.477	3572
921.587	3511
921.697	3439
921.806	3641
921.916	3519
922.025	3370
922.134	3363
922.244	3348
922.353	3416
922.462	3272
922.571	3192
922.68	3093
922.789	3070
922.898	3112
923.007	3062
923.116	3207
923.224	3173
923.333	3180
923.442	3097
923.55	3081
923.659	3100
923.767	3180
923.876	3100
923.984	3249
924.092	3112
924.201	3218
924.309	3233
924.417	3260
924.525	3157
924.633	3226
924.741	4044
924.849	3024
924.956	3268
925.064	3089
925.172	3051
925.279	3085
925.387	3192
925.494	3268
925.602	3359
925.709	3351
925.816	3203
925.924	3329
926.031	3389
926.138	3332
926.245	3359
926.352	3253
926.459	3382
926.566	3462
926.673	3302
926.779	3241
926.886	3249
926.993	3154
927.099	3097
927.206	3154
927.312	3089
927.419	3203
927.525	3180
927.631	3241
927.737	3131
927.843	3135
927.95	3039
928.056	3135
928.162	3192
928.267	3241
928.373	3770
928.479	3355
928.585	3066
928.69	3214
928.796	3245
928.901	3131
929.007	3009
929.112	3211
929.218	3146
929.323	3123
929.428	3169
929.533	3287
929.638	3089
929.743	3199
929.848	3249
929.953	3211
930.058	3116
930.163	2967
930.267	3028
930.372	3165
930.477	3036
930.581	3294
930.685	3169
930.79	3066
930.894	3062
930.998	3062
931.103	3283
931.207	2944
931.311	2914
931.415	2906
931.519	2754
931.623	2815
