Data from test_V78500241_1218.txt Node
Date: Fri Mar 25 16:23:38 CST 2022
User: usil
Spectrometer: V785-0024
Trigger mode: 0
Integration Time (sec): 4.000000E-1
Scans to average: 1
Nonlinearity correction enabled: false
Boxcar width: 0
Storing dark spectrum: false
XAxis mode: Wavelengths
Number of Pixels in Spectrum: 1024
>>>>>Begin Spectral Data<<<<<
801.071	2918
801.214	2960
801.356	2910
801.499	2922
801.641	2895
801.783	2948
801.926	3039
802.068	2986
802.211	3017
802.353	3013
802.496	2975
802.638	2979
802.78	3047
802.923	3131
803.065	3028
803.208	2899
803.35	2925
803.492	2941
803.635	2967
803.777	2743
803.919	2872
804.061	3214
804.204	2941
804.346	2948
804.488	2899
804.63	2982
804.773	2868
804.915	2918
805.057	3112
805.199	2918
805.341	2982
805.483	3074
805.626	3024
805.768	2967
805.91	3074
806.052	3138
806.194	3047
806.336	3245
806.478	3032
806.62	2986
806.762	2994
806.904	3093
807.046	3192
807.188	3009
807.33	2899
807.472	2990
807.614	2902
807.756	2948
807.898	2944
808.04	2910
808.182	2963
808.324	2929
808.465	2918
808.607	2929
808.749	2792
808.891	2830
809.033	2998
809.174	2975
809.316	2876
809.458	2925
809.6	2773
809.741	2785
809.883	2754
810.025	2861
810.166	2887
810.308	2823
810.45	2857
810.591	2788
810.733	2777
810.875	2826
811.016	2766
811.158	2746
811.299	2811
811.441	2922
811.582	2895
811.724	2845
811.865	2868
812.007	2918
812.148	2864
812.29	2842
812.431	2887
812.573	2948
812.714	2948
812.855	3028
812.997	3066
813.138	3135
813.279	2998
813.421	2971
813.562	2963
813.703	2826
813.845	2887
813.986	2758
814.127	2739
814.268	2826
814.41	2842
814.551	2853
814.692	2872
814.833	2800
814.974	2876
815.115	2952
815.256	2830
815.397	2823
815.539	2823
815.68	2781
815.821	2815
815.962	2914
816.103	2922
816.244	2902
816.385	2891
816.526	2918
816.666	2918
816.807	2785
816.948	2902
817.089	2876
817.23	2864
817.371	2766
817.512	2800
817.653	2849
817.793	2777
817.934	2887
818.075	2929
818.216	2986
818.356	2994
818.497	2872
818.638	2777
818.778	2830
818.919	2819
819.06	2766
819.2	2872
819.341	2826
819.481	2807
819.622	2963
819.762	3070
819.903	3039
820.043	2910
820.184	2883
820.324	2925
820.465	3051
820.605	3032
820.746	3047
820.886	2960
821.026	3119
821.167	3169
821.307	3283
821.447	3329
821.588	3260
821.728	3226
821.868	3218
822.008	3062
822.149	3188
822.289	3253
822.429	3123
822.569	3112
822.709	3199
822.849	3070
822.99	3074
823.13	3173
823.27	3245
823.41	3112
823.55	3184
823.69	3199
823.83	3222
823.97	3104
824.11	3017
824.25	3009
824.389	3077
824.529	3169
824.669	3093
824.809	3218
824.949	3313
825.089	3260
825.228	3214
825.368	3039
825.508	3017
825.648	3039
825.787	3093
825.927	3058
826.067	3009
826.206	2990
826.346	3097
826.485	3089
826.625	3138
826.765	3279
826.904	3253
827.044	3020
827.183	2979
827.323	2876
827.462	3028
827.601	2948
827.741	3001
827.88	2986
828.02	2906
828.159	3017
828.298	3058
828.437	3154
828.577	3039
828.716	3241
828.855	3108
828.994	2963
829.134	2914
829.273	2963
829.412	2880
829.551	2887
829.69	2941
829.829	3024
829.968	3169
830.107	3074
830.246	3104
830.385	2929
830.524	2922
830.663	2899
830.802	2788
830.941	2727
831.08	2670
831.219	2800
831.357	2807
831.496	2998
831.635	2792
831.774	2674
831.913	2705
832.051	2598
832.19	2648
832.329	2708
832.467	2587
832.606	2503
832.744	2583
832.883	2629
833.022	2625
833.16	2693
833.299	2731
833.437	2746
833.576	2724
833.714	2746
833.852	2796
833.991	2754
834.129	2857
834.267	2876
834.406	2861
834.544	2906
834.682	2922
834.821	2891
834.959	3070
835.097	2948
835.235	3077
835.373	3058
835.511	3055
835.65	3005
835.788	3001
835.926	2910
836.064	2853
836.202	2842
836.34	3135
836.478	3176
836.615	3066
836.753	3173
836.891	3268
837.029	3214
837.167	3165
837.305	3100
837.443	3043
837.58	2979
837.718	3150
837.856	3085
837.993	3043
838.131	3173
838.269	3142
838.406	3127
838.544	3097
838.681	2982
838.819	2941
838.956	2861
839.094	2849
839.231	2956
839.369	3062
839.506	3378
839.643	3233
839.781	3043
839.918	3013
840.055	3100
840.193	3043
840.33	3074
840.467	3135
840.604	3199
840.742	3405
840.879	3058
841.016	3039
841.153	3157
841.29	3340
841.427	3329
841.564	3291
841.701	3336
841.838	3264
841.975	3203
842.112	3188
842.249	3123
842.385	3089
842.522	3294
842.659	3089
842.796	3116
842.933	3142
843.069	3100
843.206	3070
843.343	3180
843.479	3161
843.616	3127
843.752	2933
843.889	2906
844.025	3077
844.162	2902
844.298	3085
844.435	2971
844.571	2925
844.708	3119
844.844	3218
844.98	3264
845.117	3214
845.253	3112
845.389	3043
845.525	3119
845.661	3100
845.798	3032
845.934	3161
846.07	3085
846.206	3211
846.342	3355
846.478	3260
846.614	3131
846.75	3074
846.886	3032
847.022	3268
847.158	3176
847.294	3222
847.429	3279
847.565	3256
847.701	3530
847.837	3062
847.972	3028
848.108	3188
848.244	3131
848.379	3005
848.515	2937
848.65	2952
848.786	2982
848.921	3047
849.057	3135
849.192	3184
849.328	3112
849.463	3146
849.598	3108
849.734	3104
849.869	3017
850.004	2941
850.14	3017
850.275	2937
850.41	2891
850.545	2914
850.68	2963
850.815	2948
850.95	3005
851.085	3237
851.22	3112
851.355	3028
851.49	3039
851.625	3036
851.76	3043
851.895	2975
852.03	2967
852.165	3039
852.299	3150
852.434	3214
852.569	3169
852.703	3195
852.838	3279
852.973	3340
853.107	3310
853.242	3157
853.376	3123
853.511	3028
853.645	3097
853.78	3214
853.914	3161
854.048	3131
854.183	3127
854.317	3142
854.451	3321
854.585	3127
854.72	3108
854.854	3222
854.988	3070
855.122	3081
855.256	2979
855.39	3150
855.524	3279
855.658	3195
855.792	3154
855.926	3211
856.06	3237
856.194	3294
856.327	3150
856.461	3097
856.595	3104
856.729	3119
856.862	3253
856.996	3180
857.13	3230
857.263	3233
857.397	3233
857.53	3157
857.664	3184
857.797	3264
857.931	3283
858.064	3211
858.197	3264
858.331	3176
858.464	3104
858.597	3020
858.731	3154
858.864	3142
858.997	3119
859.13	3180
859.263	3195
859.396	3241
859.529	3097
859.662	3058
859.795	3055
859.928	3154
860.061	3329
860.194	3294
860.327	3161
860.46	3127
860.592	3249
860.725	3253
860.858	3249
860.99	3108
861.123	3055
861.256	3066
861.388	3157
861.521	3747
861.653	3051
861.786	3001
861.918	3017
862.05	3077
862.183	3108
862.315	3188
862.447	3211
862.58	3108
862.712	2982
862.844	2899
862.976	3058
863.108	3024
863.24	3435
863.372	2899
863.504	3013
863.636	2960
863.768	3085
863.9	3001
864.032	2906
864.164	2971
864.296	3017
864.428	3097
864.559	3138
864.691	3104
864.823	3089
864.954	3039
865.086	3093
865.217	3028
865.349	2952
865.48	3005
865.612	3020
865.743	3157
865.875	3017
866.006	2952
866.137	3013
866.269	2944
866.4	2952
866.531	2941
866.662	2948
866.793	2906
866.924	2895
867.055	3005
867.186	2941
867.317	2895
867.448	2838
867.579	2895
867.71	2880
867.841	2834
867.972	2918
868.103	2914
868.233	2925
868.364	2883
868.495	2902
868.625	3055
868.756	3184
868.886	2979
869.017	3028
869.147	3184
869.278	3192
869.408	3055
869.539	3017
869.669	3104
869.799	3047
869.929	3142
870.06	3097
870.19	3332
870.32	3306
870.45	3283
870.58	3405
870.71	3450
870.84	3492
870.97	3336
871.1	3268
871.23	3500
871.36	3435
871.489	3329
871.619	3412
871.749	3443
871.879	3466
872.008	3500
872.138	3378
872.267	3283
872.397	3146
872.526	3116
872.656	3074
872.785	3112
872.915	3233
873.044	3291
873.173	3222
873.303	3249
873.432	3253
873.561	3260
873.69	3173
873.819	3157
873.948	3211
874.077	3119
874.206	3074
874.335	3058
874.464	3203
874.593	3348
874.722	3184
874.851	3416
874.979	3382
875.108	3332
875.237	3188
875.365	3203
875.494	3169
875.623	3245
875.751	3077
875.88	3108
876.008	3199
876.136	3268
876.265	3409
876.393	3542
876.521	3412
876.65	3477
876.778	3351
876.906	3283
877.034	3195
877.162	3214
877.29	3222
877.418	3256
877.546	3237
877.674	3283
877.802	3256
877.93	3268
878.058	3161
878.185	3116
878.313	3211
878.441	3264
878.568	3123
878.696	3169
878.824	3268
878.951	3283
879.079	3431
879.206	3641
879.333	3443
879.461	3321
879.588	3359
879.715	3504
879.842	3610
879.97	3363
880.097	3157
880.224	3123
880.351	3211
880.478	3199
880.605	3226
880.732	3199
880.859	3572
880.986	3294
881.112	3351
881.239	3241
881.366	3135
881.493	3066
881.619	3036
881.746	3081
881.872	3100
881.999	3119
882.125	3138
882.252	3260
882.378	3302
882.505	3462
882.631	3291
882.757	3093
882.883	3230
883.01	3192
883.136	3161
883.262	3138
883.388	3097
883.514	3313
883.64	3405
883.766	3310
883.892	3195
884.018	3253
884.143	3412
884.269	3549
884.395	3188
884.52	3157
884.646	3218
884.772	3146
884.897	3104
885.023	3218
885.148	3321
885.274	3424
885.399	3393
885.524	3291
885.65	3291
885.775	3332
885.9	3268
886.025	3458
886.15	3374
886.275	3306
886.4	3222
886.525	3325
886.65	3294
886.775	3264
886.9	3500
887.025	3667
887.149	3409
887.274	3230
887.399	3169
887.523	3207
887.648	3157
887.773	3214
887.897	3374
888.021	3405
888.146	3306
888.27	3454
888.395	3530
888.519	3462
888.643	3466
888.767	3485
888.891	3317
889.015	3245
889.139	3275
889.263	3249
889.387	3416
889.511	3519
889.635	3462
889.759	3313
889.883	3310
890.006	3393
890.13	3492
890.254	3329
890.377	3363
890.501	3195
890.624	3214
890.748	3351
890.871	3169
890.995	3093
891.118	3097
891.241	3207
891.364	3222
891.488	3329
891.611	3214
891.734	3249
891.857	3287
891.98	3279
892.103	3374
892.226	3294
892.349	3211
892.471	3127
892.594	3203
892.717	3294
892.839	3279
892.962	3283
893.085	3367
893.207	3340
893.33	3188
893.452	3184
893.575	3344
893.697	3214
893.819	3431
893.941	3553
894.064	3496
894.186	3283
894.308	3272
894.43	3469
894.552	3515
894.674	3500
894.796	3256
894.918	3329
895.04	3306
895.161	3431
895.283	3409
895.405	3306
895.526	3355
895.648	3439
895.769	3447
895.891	3458
896.012	3511
896.134	3450
896.255	3443
896.376	3386
896.498	3397
896.619	3435
896.74	3359
896.861	3397
896.982	3671
897.103	3835
897.224	3629
897.345	3534
897.466	3428
897.587	3485
897.708	3622
897.828	3515
897.949	3458
898.07	3355
898.19	3412
898.311	3599
898.431	3450
898.552	3515
898.672	3580
898.792	3545
898.913	3553
899.033	3439
899.153	3306
899.273	3237
899.393	3268
899.513	3329
899.633	3340
899.753	3306
899.873	3329
899.993	3370
900.113	3370
900.232	3412
900.352	3336
900.472	3268
900.591	3230
900.711	3272
900.83	3291
900.95	3424
901.069	3504
901.189	3397
901.308	3165
901.427	3146
901.546	3199
901.665	3272
901.784	3325
901.904	3199
902.023	3142
902.141	3028
902.26	3001
902.379	3154
902.498	3100
902.617	3089
902.735	3161
902.854	3245
902.973	3222
903.091	3051
903.21	3062
903.328	3131
903.446	3127
903.565	3093
903.683	3226
903.801	3142
903.919	3214
904.038	3306
904.156	3169
904.274	3302
904.392	3245
904.51	3298
904.627	3370
904.745	3443
904.863	3496
904.981	3302
905.098	3180
905.216	3203
905.334	3291
905.451	3313
905.569	3336
905.686	3412
905.803	3443
905.921	3302
906.038	3424
906.155	3386
906.272	3249
906.389	3359
906.506	3237
906.623	3233
906.74	3260
906.857	3165
906.974	3272
907.091	3439
907.208	3542
907.324	3469
907.441	3367
907.557	3188
907.674	3253
907.79	3188
907.907	3283
908.023	3370
908.139	3344
908.256	3340
908.372	3382
908.488	3336
908.604	3279
908.72	3253
908.836	3291
908.952	3298
909.068	3344
909.184	3511
909.3	3405
909.415	3519
909.531	3469
909.647	3268
909.762	3317
909.878	3272
909.993	3397
910.108	3344
910.224	3348
910.339	3428
910.454	3302
910.57	3287
910.685	3245
910.8	3595
910.915	3526
911.03	3428
911.145	3264
911.259	3260
911.374	3340
911.489	3237
911.604	3237
911.718	3093
911.833	3146
911.947	3066
912.062	3028
912.176	3127
912.291	3188
912.405	3226
912.519	3428
912.633	3488
912.748	3332
912.862	3237
912.976	3226
913.09	3074
913.204	3161
913.318	3226
913.431	3336
913.545	3306
913.659	3401
913.772	3329
913.886	3233
914	3241
914.113	3351
914.226	3416
914.34	3389
914.453	3226
914.566	3393
914.68	3325
914.793	3298
914.906	3131
915.019	3089
915.132	3058
915.245	3195
915.358	3214
915.47	3226
915.583	3218
915.696	3287
915.809	3401
915.921	3428
916.034	3241
916.146	3268
916.259	3195
916.371	3382
916.483	3340
916.595	3237
916.708	3306
916.82	3279
916.932	3344
917.044	3363
917.156	3348
917.268	3260
917.38	3310
917.491	3275
917.603	3405
917.715	3462
917.826	3481
917.938	3386
918.049	3272
918.161	3382
918.272	3542
918.384	3561
918.495	3458
918.606	3336
918.717	3245
918.828	3378
918.939	3412
919.05	3306
919.161	3378
919.272	3192
919.383	3287
919.494	3496
919.604	3660
919.715	3507
919.826	3405
919.936	3462
920.047	3587
920.157	3557
920.267	3793
920.378	3614
920.488	3549
920.598	3800
920.708	3922
920.818	3835
920.928	3831
921.038	4029
921.148	3998
921.258	3671
921.368	3652
921.477	3545
921.587	3526
921.697	3428
921.806	3603
921.916	3557
922.025	3294
922.134	3325
922.244	3329
922.353	3420
922.462	3294
922.571	3214
922.68	3097
922.789	3066
922.898	3135
923.007	3085
923.116	3226
923.224	3188
923.333	3203
923.442	3097
923.55	3081
923.659	3131
923.767	3203
923.876	3097
923.984	3230
924.092	3104
924.201	3226
924.309	3222
924.417	3207
924.525	3188
924.633	3218
924.741	3991
924.849	3074
924.956	3272
925.064	3127
925.172	3028
925.279	3081
925.387	3188
925.494	3199
925.602	3363
925.709	3332
925.816	3192
925.924	3310
926.031	3386
926.138	3291
926.245	3344
926.352	3226
926.459	3409
926.566	3526
926.673	3340
926.779	3268
926.886	3275
926.993	3165
927.099	3100
927.206	3119
927.312	3135
927.419	3222
927.525	3199
927.631	3233
927.737	3142
927.843	3097
927.95	3020
928.056	3127
928.162	3169
928.267	3226
928.373	3888
928.479	3294
928.585	3066
928.69	3207
928.796	3256
928.901	3161
929.007	3047
929.112	3157
929.218	3230
929.323	3157
929.428	3161
929.533	3310
929.638	3127
929.743	3154
929.848	3264
929.953	3226
930.058	3146
930.163	3001
930.267	3039
930.372	3222
930.477	3036
930.581	3283
930.685	3184
930.79	3051
930.894	3104
930.998	3070
931.103	3272
931.207	2967
931.311	2975
931.415	2948
931.519	2754
931.623	2796
