Data from test_V78500241_726.txt Node
Date: Fri Mar 25 16:20:13 CST 2022
User: usil
Spectrometer: V785-0024
Trigger mode: 0
Integration Time (sec): 4.000000E-1
Scans to average: 1
Nonlinearity correction enabled: false
Boxcar width: 0
Storing dark spectrum: false
XAxis mode: Wavelengths
Number of Pixels in Spectrum: 1024
>>>>>Begin Spectral Data<<<<<
801.071	2891
801.214	2933
801.356	2864
801.499	2895
801.641	2872
801.783	2914
801.926	3005
802.068	2975
802.211	2960
802.353	3024
802.496	2986
802.638	2994
802.78	3039
802.923	3058
803.065	2982
803.208	2883
803.35	2929
803.492	2979
803.635	2910
803.777	2773
803.919	2883
804.061	3188
804.204	2922
804.346	2910
804.488	2864
804.63	2986
804.773	2887
804.915	2902
805.057	3077
805.199	2902
805.341	2971
805.483	3001
805.626	2979
805.768	2933
805.91	3081
806.052	3108
806.194	3047
806.336	3180
806.478	2986
806.62	2929
806.762	2952
806.904	3028
807.046	3184
807.188	2979
807.33	2883
807.472	2956
807.614	2872
807.756	2910
807.898	2910
808.04	2876
808.182	2979
808.324	2937
808.465	2876
808.607	2868
808.749	2811
808.891	2826
809.033	2952
809.174	2929
809.316	2868
809.458	2864
809.6	2754
809.741	2758
809.883	2788
810.025	2823
810.166	2868
810.308	2826
810.45	2857
810.591	2773
810.733	2781
810.875	2826
811.016	2720
811.158	2750
811.299	2807
811.441	2899
811.582	2895
811.724	2804
811.865	2807
812.007	2887
812.148	2842
812.29	2868
812.431	2845
812.573	2929
812.714	2971
812.855	3036
812.997	3032
813.138	3100
813.279	2998
813.421	2975
813.562	2948
813.703	2857
813.845	2914
813.986	2739
814.127	2701
814.268	2823
814.41	2849
814.551	2800
814.692	2849
814.833	2788
814.974	2857
815.115	2933
815.256	2823
815.397	2796
815.539	2864
815.68	2777
815.821	2746
815.962	2914
816.103	2906
816.244	2868
816.385	2861
816.526	2948
816.666	2883
816.807	2758
816.948	2902
817.089	2883
817.23	2834
817.371	2743
817.512	2796
817.653	2838
817.793	2792
817.934	2895
818.075	2937
818.216	2998
818.356	2986
818.497	2868
818.638	2781
818.778	2785
818.919	2800
819.06	2766
819.2	2868
819.341	2781
819.481	2785
819.622	2895
819.762	3058
819.903	3058
820.043	2891
820.184	2868
820.324	2861
820.465	2975
820.605	2975
820.746	3001
820.886	2918
821.026	3112
821.167	3142
821.307	3233
821.447	3264
821.588	3199
821.728	3150
821.868	3188
822.008	3047
822.149	3173
822.289	3256
822.429	3032
822.569	3089
822.709	3184
822.849	3039
822.99	3009
823.13	3127
823.27	3211
823.41	3108
823.55	3119
823.69	3138
823.83	3157
823.97	3097
824.11	2971
824.25	2975
824.389	3024
824.529	3108
824.669	3043
824.809	3184
824.949	3233
825.089	3218
825.228	3142
825.368	3001
825.508	2941
825.648	2925
825.787	2998
825.927	3017
826.067	2929
826.206	2933
826.346	2998
826.485	3043
826.625	3074
826.765	3237
826.904	3165
827.044	2979
827.183	2944
827.323	2826
827.462	2963
827.601	2929
827.741	2941
827.88	2937
828.02	2849
828.159	2902
828.298	3039
828.437	3108
828.577	3028
828.716	3245
828.855	3062
828.994	2887
829.134	2891
829.273	2918
829.412	2845
829.551	2842
829.69	2887
829.829	2986
829.968	3089
830.107	3036
830.246	2998
830.385	2952
830.524	2876
830.663	2819
830.802	2720
830.941	2625
831.08	2659
831.219	2743
831.357	2735
831.496	2922
831.635	2701
831.774	2648
831.913	2674
832.051	2537
832.19	2617
832.329	2705
832.467	2537
832.606	2511
832.744	2587
832.883	2617
833.022	2583
833.16	2670
833.299	2663
833.437	2686
833.576	2682
833.714	2777
833.852	2750
833.991	2788
834.129	2857
834.267	2857
834.406	2788
834.544	2902
834.682	2891
834.821	2902
834.959	3108
835.097	2948
835.235	3074
835.373	3039
835.511	3039
835.65	2990
835.788	3005
835.926	2887
836.064	2845
836.202	2880
836.34	3116
836.478	3173
836.615	3043
836.753	3173
836.891	3237
837.029	3188
837.167	3169
837.305	3093
837.443	3081
837.58	3013
837.718	3131
837.856	3085
837.993	3051
838.131	3154
838.269	3112
838.406	3176
838.544	3085
838.681	2971
838.819	2967
838.956	2853
839.094	2883
839.231	2960
839.369	3058
839.506	3405
839.643	3264
839.781	3097
839.918	3036
840.055	3081
840.193	3104
840.33	3070
840.467	3138
840.604	3138
840.742	3454
840.879	3097
841.016	3097
841.153	3165
841.29	3351
841.427	3310
841.564	3287
841.701	3336
841.838	3230
841.975	3214
842.112	3214
842.249	3116
842.385	3070
842.522	3275
842.659	3116
842.796	3093
842.933	3119
843.069	3089
843.206	3074
843.343	3211
843.479	3138
843.616	3165
843.752	2902
843.889	2880
844.025	3119
844.162	2906
844.298	3119
844.435	3009
844.571	2944
844.708	3093
844.844	3230
844.98	3245
845.117	3218
845.253	3116
845.389	3058
845.525	3142
845.661	3112
845.798	3039
845.934	3127
846.07	3100
846.206	3241
846.342	3351
846.478	3264
846.614	3127
846.75	3066
846.886	3047
847.022	3302
847.158	3146
847.294	3249
847.429	3253
847.565	3264
847.701	3507
847.837	3055
847.972	3055
848.108	3173
848.244	3188
848.379	3036
848.515	2986
848.65	2963
848.786	2990
848.921	3043
849.057	3146
849.192	3146
849.328	3093
849.463	3089
849.598	3032
849.734	3062
849.869	2979
850.004	2929
850.14	2975
850.275	2952
850.41	2906
850.545	2876
850.68	2986
850.815	2986
850.95	2979
851.085	3211
851.22	3135
851.355	3066
851.49	2979
851.625	3039
851.76	3036
851.895	2975
852.03	2910
852.165	3085
852.299	3123
852.434	3184
852.569	3161
852.703	3188
852.838	3283
852.973	3340
853.107	3382
853.242	3184
853.376	3116
853.511	2990
853.645	3100
853.78	3260
853.914	3138
854.048	3142
854.183	3127
854.317	3214
854.451	3291
854.585	3150
854.72	3135
854.854	3230
854.988	3081
855.122	3146
855.256	3005
855.39	3142
855.524	3291
855.658	3237
855.792	3192
855.926	3226
856.06	3245
856.194	3306
856.327	3199
856.461	3135
856.595	3085
856.729	3100
856.862	3241
856.996	3214
857.13	3192
857.263	3268
857.397	3313
857.53	3138
857.664	3207
857.797	3249
857.931	3268
858.064	3180
858.197	3241
858.331	3157
858.464	3123
858.597	3066
858.731	3161
858.864	3108
858.997	3112
859.13	3169
859.263	3214
859.396	3222
859.529	3089
859.662	3138
859.795	3077
859.928	3150
860.061	3253
860.194	3317
860.327	3131
860.46	3119
860.592	3245
860.725	3302
860.858	3260
860.99	3089
861.123	3062
861.256	3100
861.388	3161
861.521	3960
861.653	3043
861.786	2998
861.918	2982
862.05	3097
862.183	3123
862.315	3199
862.447	3203
862.58	3112
862.712	2994
862.844	2906
862.976	3066
863.108	3028
863.24	3431
863.372	2929
863.504	2994
863.636	2971
863.768	3043
863.9	3009
864.032	2948
864.164	2979
864.296	3036
864.428	3100
864.559	3119
864.691	3093
864.823	3051
864.954	3051
865.086	3043
865.217	3058
865.349	2967
865.48	3009
865.612	3066
865.743	3207
865.875	3009
866.006	2982
866.137	3009
866.269	2982
866.4	2941
866.531	2944
866.662	2906
866.793	2902
866.924	2948
867.055	2994
867.186	2952
867.317	2922
867.448	2861
867.579	2861
867.71	2868
867.841	2876
867.972	2914
868.103	2941
868.233	2880
868.364	2899
868.495	2975
868.625	3085
868.756	3173
868.886	2982
869.017	3081
869.147	3173
869.278	3157
869.408	3081
869.539	3036
869.669	3100
869.799	3055
869.929	3184
870.06	3138
870.19	3386
870.32	3310
870.45	3306
870.58	3393
870.71	3477
870.84	3469
870.97	3336
871.1	3253
871.23	3462
871.36	3473
871.489	3363
871.619	3374
871.749	3431
871.879	3469
872.008	3523
872.138	3382
872.267	3298
872.397	3199
872.526	3066
872.656	3085
872.785	3119
872.915	3245
873.044	3359
873.173	3241
873.303	3283
873.432	3272
873.561	3233
873.69	3199
873.819	3173
873.948	3241
874.077	3154
874.206	3058
874.335	3123
874.464	3207
874.593	3386
874.722	3237
874.851	3397
874.979	3325
875.108	3332
875.237	3184
875.365	3195
875.494	3176
875.623	3260
875.751	3104
875.88	3119
876.008	3192
876.136	3222
876.265	3382
876.393	3511
876.521	3397
876.65	3424
876.778	3348
876.906	3294
877.034	3253
877.162	3256
877.29	3226
877.418	3264
877.546	3294
877.674	3275
877.802	3241
877.93	3260
878.058	3211
878.185	3146
878.313	3203
878.441	3211
878.568	3070
878.696	3176
878.824	3237
878.951	3348
879.079	3435
879.206	3667
879.333	3435
879.461	3370
879.588	3389
879.715	3481
879.842	3580
879.97	3431
880.097	3241
880.224	3157
880.351	3195
880.478	3237
880.605	3222
880.732	3192
880.859	3523
880.986	3313
881.112	3359
881.239	3222
881.366	3138
881.493	3074
881.619	3020
881.746	3100
881.872	3108
881.999	3146
882.125	3188
882.252	3260
882.378	3325
882.505	3447
882.631	3302
882.757	3176
882.883	3222
883.01	3256
883.136	3142
883.262	3127
883.388	3157
883.514	3367
883.64	3370
883.766	3336
883.892	3218
884.018	3253
884.143	3382
884.269	3542
884.395	3226
884.52	3214
884.646	3218
884.772	3154
884.897	3108
885.023	3230
885.148	3317
885.274	3424
885.399	3367
885.524	3321
885.65	3294
885.775	3336
885.9	3325
886.025	3416
886.15	3401
886.275	3344
886.4	3256
886.525	3351
886.65	3272
886.775	3291
886.9	3553
887.025	3656
887.149	3420
887.274	3264
887.399	3188
887.523	3222
887.648	3207
887.773	3214
887.897	3393
888.021	3374
888.146	3310
888.27	3450
888.395	3526
888.519	3424
888.643	3428
888.767	3496
888.891	3344
889.015	3283
889.139	3287
889.263	3256
889.387	3412
889.511	3515
889.635	3473
889.759	3302
889.883	3306
890.006	3412
890.13	3523
890.254	3310
890.377	3348
890.501	3211
890.624	3188
890.748	3317
890.871	3192
890.995	3123
891.118	3020
891.241	3226
891.364	3264
891.488	3348
891.611	3161
891.734	3233
891.857	3313
891.98	3264
892.103	3348
892.226	3287
892.349	3253
892.471	3119
892.594	3249
892.717	3310
892.839	3302
892.962	3298
893.085	3355
893.207	3317
893.33	3169
893.452	3226
893.575	3351
893.697	3325
893.819	3477
893.941	3496
894.064	3447
894.186	3275
894.308	3233
894.43	3439
894.552	3534
894.674	3485
894.796	3275
894.918	3325
895.04	3279
895.161	3443
895.283	3359
895.405	3336
895.526	3351
895.648	3450
895.769	3458
895.891	3462
896.012	3488
896.134	3492
896.255	3409
896.376	3397
896.498	3370
896.619	3462
896.74	3344
896.861	3435
896.982	3698
897.103	3865
897.224	3610
897.345	3496
897.466	3454
897.587	3488
897.708	3648
897.828	3523
897.949	3481
898.07	3351
898.19	3424
898.311	3633
898.431	3473
898.552	3500
898.672	3606
898.792	3568
898.913	3549
899.033	3428
899.153	3275
899.273	3203
899.393	3287
899.513	3336
899.633	3336
899.753	3336
899.873	3351
899.993	3386
900.113	3302
900.232	3420
900.352	3336
900.472	3317
900.591	3207
900.711	3325
900.83	3230
900.95	3393
901.069	3511
901.189	3329
901.308	3184
901.427	3180
901.546	3214
901.665	3275
901.784	3340
901.904	3237
902.023	3154
902.141	3051
902.26	2994
902.379	3135
902.498	3074
902.617	3077
902.735	3180
902.854	3245
902.973	3192
903.091	3085
903.21	3039
903.328	3161
903.446	3074
903.565	3116
903.683	3203
903.801	3169
903.919	3226
904.038	3313
904.156	3173
904.274	3291
904.392	3275
904.51	3294
904.627	3332
904.745	3477
904.863	3530
904.981	3264
905.098	3188
905.216	3226
905.334	3283
905.451	3302
905.569	3294
905.686	3405
905.803	3439
905.921	3325
906.038	3435
906.155	3348
906.272	3310
906.389	3340
906.506	3260
906.623	3249
906.74	3260
906.857	3188
906.974	3272
907.091	3439
907.208	3561
907.324	3500
907.441	3378
907.557	3233
907.674	3241
907.79	3237
907.907	3313
908.023	3412
908.139	3382
908.256	3313
908.372	3382
908.488	3355
908.604	3237
908.72	3230
908.836	3260
908.952	3313
909.068	3359
909.184	3496
909.3	3393
909.415	3515
909.531	3443
909.647	3313
909.762	3321
909.878	3279
909.993	3378
910.108	3302
910.224	3329
910.339	3439
910.454	3332
910.57	3321
910.685	3253
910.8	3572
910.915	3568
911.03	3386
911.145	3253
911.259	3260
911.374	3332
911.489	3249
911.604	3253
911.718	3165
911.833	3165
911.947	3036
912.062	2990
912.176	3161
912.291	3199
912.405	3218
912.519	3443
912.633	3504
912.748	3321
912.862	3233
912.976	3161
913.09	3043
913.204	3161
913.318	3192
913.431	3355
913.545	3336
913.659	3416
913.772	3370
913.886	3211
914	3195
914.113	3367
914.226	3420
914.34	3344
914.453	3207
914.566	3412
914.68	3291
914.793	3321
914.906	3157
915.019	3112
915.132	3100
915.245	3184
915.358	3154
915.47	3241
915.583	3233
915.696	3321
915.809	3393
915.921	3447
916.034	3275
916.146	3233
916.259	3226
916.371	3382
916.483	3389
916.595	3302
916.708	3321
916.82	3351
916.932	3283
917.044	3401
917.156	3355
917.268	3268
917.38	3313
917.491	3260
917.603	3363
917.715	3477
917.826	3462
917.938	3374
918.049	3272
918.161	3412
918.272	3534
918.384	3603
918.495	3485
918.606	3329
918.717	3287
918.828	3344
918.939	3386
919.05	3283
919.161	3332
919.272	3184
919.383	3332
919.494	3504
919.604	3682
919.715	3466
919.826	3401
919.936	3454
920.047	3576
920.157	3564
920.267	3774
920.378	3587
920.488	3523
920.598	3762
920.708	3998
920.818	3831
920.928	3827
921.038	4044
921.148	4025
921.258	3705
921.368	3580
921.477	3610
921.587	3553
921.697	3447
921.806	3606
921.916	3534
922.025	3370
922.134	3370
922.244	3332
922.353	3450
922.462	3256
922.571	3203
922.68	3112
922.789	3074
922.898	3146
923.007	3093
923.116	3207
923.224	3157
923.333	3203
923.442	3093
923.55	3112
923.659	3146
923.767	3222
923.876	3127
923.984	3260
924.092	3131
924.201	3207
924.309	3233
924.417	3275
924.525	3188
924.633	3264
924.741	4150
924.849	3058
924.956	3241
925.064	3093
925.172	3043
925.279	3100
925.387	3199
925.494	3226
925.602	3344
925.709	3367
925.816	3184
925.924	3294
926.031	3378
926.138	3336
926.245	3336
926.352	3260
926.459	3409
926.566	3458
926.673	3298
926.779	3230
926.886	3283
926.993	3135
927.099	3142
927.206	3097
927.312	3097
927.419	3218
927.525	3222
927.631	3306
927.737	3138
927.843	3127
927.95	3043
928.056	3135
928.162	3176
928.267	3256
928.373	3899
928.479	3306
928.585	3036
928.69	3211
928.796	3226
928.901	3154
929.007	3017
929.112	3203
929.218	3192
929.323	3169
929.428	3127
929.533	3275
929.638	3089
929.743	3169
929.848	3268
929.953	3188
930.058	3184
930.163	2994
930.267	3043
930.372	3207
930.477	3051
930.581	3329
930.685	3184
930.79	3024
930.894	3169
930.998	3123
931.103	3279
931.207	2967
931.311	2944
931.415	2944
931.519	2762
931.623	2807
