Data from test_V78500241_579.txt Node
Date: Fri Mar 25 16:19:12 CST 2022
User: usil
Spectrometer: V785-0024
Trigger mode: 0
Integration Time (sec): 4.000000E-1
Scans to average: 1
Nonlinearity correction enabled: false
Boxcar width: 0
Storing dark spectrum: false
XAxis mode: Wavelengths
Number of Pixels in Spectrum: 1024
>>>>>Begin Spectral Data<<<<<
801.071	2929
801.214	2922
801.356	2872
801.499	2887
801.641	2868
801.783	2922
801.926	3036
802.068	2967
802.211	2979
802.353	3013
802.496	2956
802.638	2982
802.78	3036
802.923	3112
803.065	2975
803.208	2891
803.35	2899
803.492	2880
803.635	2895
803.777	2792
803.919	2895
804.061	3192
804.204	2952
804.346	2876
804.488	2834
804.63	2975
804.773	2864
804.915	2910
805.057	3043
805.199	2918
805.341	2971
805.483	3055
805.626	3001
805.768	2922
805.91	3085
806.052	3104
806.194	3051
806.336	3211
806.478	3001
806.62	2982
806.762	2944
806.904	3058
807.046	3138
807.188	2967
807.33	2906
807.472	3013
807.614	2876
807.756	2990
807.898	2922
808.04	2899
808.182	2944
808.324	2944
808.465	2861
808.607	2864
808.749	2811
808.891	2826
809.033	2998
809.174	2979
809.316	2899
809.458	2868
809.6	2766
809.741	2796
809.883	2785
810.025	2838
810.166	2872
810.308	2880
810.45	2872
810.591	2773
810.733	2811
810.875	2788
811.016	2785
811.158	2746
811.299	2845
811.441	2910
811.582	2895
811.724	2792
811.865	2815
812.007	2906
812.148	2857
812.29	2861
812.431	2899
812.573	2899
812.714	2925
812.855	3032
812.997	3039
813.138	3100
813.279	2986
813.421	2979
813.562	2910
813.703	2857
813.845	2872
813.986	2769
814.127	2724
814.268	2804
814.41	2823
814.551	2800
814.692	2868
814.833	2807
814.974	2876
815.115	2956
815.256	2842
815.397	2830
815.539	2849
815.68	2777
815.821	2785
815.962	2922
816.103	2941
816.244	2861
816.385	2872
816.526	2990
816.666	2899
816.807	2727
816.948	2899
817.089	2895
817.23	2815
817.371	2781
817.512	2777
817.653	2838
817.793	2800
817.934	2883
818.075	2941
818.216	2994
818.356	3028
818.497	2880
818.638	2811
818.778	2819
818.919	2796
819.06	2777
819.2	2868
819.341	2785
819.481	2823
819.622	2925
819.762	3081
819.903	3032
820.043	2910
820.184	2895
820.324	2895
820.465	3020
820.605	3013
820.746	3032
820.886	2967
821.026	3074
821.167	3165
821.307	3275
821.447	3279
821.588	3233
821.728	3203
821.868	3154
822.008	3066
822.149	3169
822.289	3214
822.429	3108
822.569	3081
822.709	3173
822.849	3036
822.99	3074
823.13	3146
823.27	3241
823.41	3135
823.55	3100
823.69	3169
823.83	3192
823.97	3074
824.11	3009
824.25	3009
824.389	3058
824.529	3093
824.669	3066
824.809	3188
824.949	3218
825.089	3180
825.228	3146
825.368	3024
825.508	3001
825.648	2944
825.787	2975
825.927	2986
826.067	2956
826.206	2937
826.346	3058
826.485	3047
826.625	3093
826.765	3230
826.904	3245
827.044	2998
827.183	2952
827.323	2887
827.462	2952
827.601	2922
827.741	2929
827.88	2952
828.02	2842
828.159	2971
828.298	3013
828.437	3097
828.577	3058
828.716	3241
828.855	3077
828.994	2902
829.134	2891
829.273	2914
829.412	2887
829.551	2864
829.69	2868
829.829	2998
829.968	3138
830.107	3009
830.246	2982
830.385	2910
830.524	2861
830.663	2815
830.802	2758
830.941	2644
831.08	2606
831.219	2754
831.357	2750
831.496	2960
831.635	2724
831.774	2625
831.913	2617
832.051	2526
832.19	2564
832.329	2712
832.467	2537
832.606	2461
832.744	2568
832.883	2537
833.022	2594
833.16	2655
833.299	2670
833.437	2686
833.576	2716
833.714	2705
833.852	2712
833.991	2762
834.129	2819
834.267	2830
834.406	2785
834.544	2895
834.682	2857
834.821	2849
834.959	3055
835.097	2899
835.235	3043
835.373	2948
835.511	3009
835.65	2937
835.788	2929
835.926	2800
836.064	2804
836.202	2815
836.34	3074
836.478	3104
836.615	3070
836.753	3161
836.891	3199
837.029	3146
837.167	3112
837.305	3066
837.443	3028
837.58	2948
837.718	3138
837.856	3089
837.993	3020
838.131	3135
838.269	3089
838.406	3093
838.544	3070
838.681	2918
838.819	2891
838.956	2819
839.094	2838
839.231	2918
839.369	2990
839.506	3359
839.643	3188
839.781	3028
839.918	2952
840.055	3028
840.193	3058
840.33	3039
840.467	3119
840.604	3180
840.742	3386
840.879	3013
841.016	3074
841.153	3097
841.29	3298
841.427	3279
841.564	3253
841.701	3298
841.838	3218
841.975	3142
842.112	3211
842.249	3093
842.385	3051
842.522	3199
842.659	3119
842.796	3039
842.933	3104
843.069	3051
843.206	3036
843.343	3211
843.479	3093
843.616	3176
843.752	2918
843.889	2842
844.025	3119
844.162	2872
844.298	3062
844.435	2937
844.571	2918
844.708	3081
844.844	3165
844.98	3226
845.117	3192
845.253	3055
845.389	2975
845.525	3108
845.661	3089
845.798	3013
845.934	3100
846.07	3066
846.206	3203
846.342	3325
846.478	3237
846.614	3081
846.75	3039
846.886	3020
847.022	3256
847.158	3138
847.294	3199
847.429	3268
847.565	3192
847.701	3500
847.837	3051
847.972	2986
848.108	3173
848.244	3154
848.379	2979
848.515	2914
848.65	2937
848.786	2944
848.921	2941
849.057	3100
849.192	3146
849.328	3062
849.463	3104
849.598	3051
849.734	3013
849.869	2967
850.004	2883
850.14	3024
850.275	2937
850.41	2838
850.545	2899
850.68	2929
850.815	2941
850.95	2979
851.085	3222
851.22	3089
851.355	3028
851.49	3005
851.625	3017
851.76	2982
851.895	2960
852.03	2918
852.165	3032
852.299	3093
852.434	3138
852.569	3116
852.703	3154
852.838	3256
852.973	3310
853.107	3321
853.242	3112
853.376	3081
853.511	2971
853.645	3036
853.78	3199
853.914	3108
854.048	3116
854.183	3097
854.317	3123
854.451	3264
854.585	3081
854.72	3074
854.854	3192
854.988	3043
855.122	3062
855.256	2914
855.39	3116
855.524	3211
855.658	3165
855.792	3150
855.926	3169
856.06	3199
856.194	3233
856.327	3154
856.461	3062
856.595	3093
856.729	3112
856.862	3211
856.996	3135
857.13	3214
857.263	3214
857.397	3272
857.53	3100
857.664	3222
857.797	3173
857.931	3233
858.064	3176
858.197	3207
858.331	3150
858.464	3119
858.597	3013
858.731	3119
858.864	3100
858.997	3077
859.13	3165
859.263	3169
859.396	3188
859.529	3066
859.662	3085
859.795	3009
859.928	3112
860.061	3294
860.194	3287
860.327	3150
860.46	3077
860.592	3222
860.725	3237
860.858	3211
860.99	3116
861.123	3070
861.256	3039
861.388	3116
861.521	3698
861.653	2990
861.786	2994
861.918	2963
862.05	3051
862.183	3116
862.315	3154
862.447	3173
862.58	3097
862.712	2941
862.844	2864
862.976	3001
863.108	3013
863.24	3409
863.372	2849
863.504	2937
863.636	2929
863.768	3009
863.9	2986
864.032	2895
864.164	2956
864.296	3051
864.428	3081
864.559	3070
864.691	3104
864.823	3074
864.954	3036
865.086	3039
865.217	3051
865.349	2979
865.48	2944
865.612	3005
865.743	3135
865.875	2963
866.006	2952
866.137	2933
866.269	2956
866.4	2922
866.531	2914
866.662	2876
866.793	2902
866.924	2929
867.055	2990
867.186	2902
867.317	2906
867.448	2826
867.579	2872
867.71	2823
867.841	2800
867.972	2922
868.103	2902
868.233	2883
868.364	2891
868.495	2880
868.625	3070
868.756	3165
868.886	2963
869.017	3005
869.147	3176
869.278	3150
869.408	3032
869.539	2986
869.669	3108
869.799	3058
869.929	3135
870.06	3093
870.19	3298
870.32	3306
870.45	3313
870.58	3374
870.71	3462
870.84	3431
870.97	3287
871.1	3222
871.23	3500
871.36	3450
871.489	3340
871.619	3412
871.749	3386
871.879	3431
872.008	3542
872.138	3367
872.267	3272
872.397	3173
872.526	3116
872.656	3013
872.785	3074
872.915	3249
873.044	3283
873.173	3207
873.303	3253
873.432	3226
873.561	3245
873.69	3138
873.819	3127
873.948	3176
874.077	3089
874.206	3032
874.335	3074
874.464	3195
874.593	3332
874.722	3218
874.851	3420
874.979	3340
875.108	3313
875.237	3180
875.365	3157
875.494	3135
875.623	3226
875.751	3108
875.88	3112
876.008	3188
876.136	3253
876.265	3348
876.393	3523
876.521	3466
876.65	3374
876.778	3367
876.906	3222
877.034	3157
877.162	3207
877.29	3161
877.418	3233
877.546	3222
877.674	3253
877.802	3279
877.93	3184
878.058	3138
878.185	3093
878.313	3222
878.441	3199
878.568	3070
878.696	3188
878.824	3214
878.951	3302
879.079	3412
879.206	3591
879.333	3450
879.461	3344
879.588	3294
879.715	3481
879.842	3595
879.97	3363
880.097	3123
880.224	3119
880.351	3192
880.478	3207
880.605	3199
880.732	3173
880.859	3481
880.986	3298
881.112	3321
881.239	3253
881.366	3081
881.493	3058
881.619	3047
881.746	3074
881.872	3081
881.999	3066
882.125	3116
882.252	3241
882.378	3268
882.505	3409
882.631	3275
882.757	3138
882.883	3207
883.01	3203
883.136	3127
883.262	3093
883.388	3116
883.514	3321
883.64	3412
883.766	3272
883.892	3165
884.018	3214
884.143	3409
884.269	3504
884.395	3192
884.52	3123
884.646	3195
884.772	3100
884.897	3070
885.023	3199
885.148	3321
885.274	3401
885.399	3344
885.524	3313
885.65	3249
885.775	3325
885.9	3264
886.025	3454
886.15	3359
886.275	3291
886.4	3222
886.525	3321
886.65	3272
886.775	3275
886.9	3466
887.025	3603
887.149	3416
887.274	3233
887.399	3173
887.523	3184
887.648	3173
887.773	3192
887.897	3393
888.021	3359
888.146	3313
888.27	3431
888.395	3572
888.519	3405
888.643	3397
888.767	3462
888.891	3317
889.015	3222
889.139	3294
889.263	3214
889.387	3409
889.511	3526
889.635	3424
889.759	3332
889.883	3279
890.006	3412
890.13	3526
890.254	3294
890.377	3313
890.501	3146
890.624	3173
890.748	3279
890.871	3218
890.995	3097
891.118	3043
891.241	3188
891.364	3249
891.488	3302
891.611	3203
891.734	3230
891.857	3306
891.98	3195
892.103	3348
892.226	3268
892.349	3207
892.471	3100
892.594	3237
892.717	3275
892.839	3279
892.962	3291
893.085	3378
893.207	3291
893.33	3150
893.452	3218
893.575	3306
893.697	3226
893.819	3454
893.941	3473
894.064	3420
894.186	3306
894.308	3283
894.43	3431
894.552	3523
894.674	3469
894.796	3279
894.918	3302
895.04	3283
895.161	3420
895.283	3374
895.405	3291
895.526	3393
895.648	3401
895.769	3447
895.891	3473
896.012	3454
896.134	3443
896.255	3412
896.376	3370
896.498	3348
896.619	3443
896.74	3363
896.861	3367
896.982	3698
897.103	3793
897.224	3587
897.345	3477
897.466	3431
897.587	3439
897.708	3614
897.828	3542
897.949	3454
898.07	3336
898.19	3382
898.311	3599
898.431	3416
898.552	3496
898.672	3603
898.792	3633
898.913	3477
899.033	3397
899.153	3321
899.273	3203
899.393	3253
899.513	3348
899.633	3317
899.753	3367
899.873	3336
899.993	3370
900.113	3329
900.232	3355
900.352	3325
900.472	3256
900.591	3180
900.711	3283
900.83	3230
900.95	3405
901.069	3481
901.189	3351
901.308	3195
901.427	3138
901.546	3199
901.665	3313
901.784	3325
901.904	3211
902.023	3138
902.141	2994
902.26	3017
902.379	3112
902.498	3085
902.617	3058
902.735	3214
902.854	3241
902.973	3169
903.091	2998
903.21	3066
903.328	3146
903.446	3112
903.565	3100
903.683	3214
903.801	3097
903.919	3253
904.038	3249
904.156	3176
904.274	3291
904.392	3207
904.51	3306
904.627	3291
904.745	3435
904.863	3485
904.981	3241
905.098	3154
905.216	3222
905.334	3272
905.451	3294
905.569	3313
905.686	3405
905.803	3447
905.921	3291
906.038	3462
906.155	3363
906.272	3253
906.389	3310
906.506	3211
906.623	3264
906.74	3279
906.857	3184
906.974	3237
907.091	3428
907.208	3587
907.324	3454
907.441	3374
907.557	3230
907.674	3230
907.79	3207
907.907	3272
908.023	3405
908.139	3355
908.256	3340
908.372	3389
908.488	3363
908.604	3256
908.72	3222
908.836	3283
908.952	3283
909.068	3325
909.184	3450
909.3	3389
909.415	3534
909.531	3511
909.647	3291
909.762	3291
909.878	3241
909.993	3363
910.108	3336
910.224	3374
910.339	3378
910.454	3325
910.57	3302
910.685	3233
910.8	3576
910.915	3553
911.03	3447
911.145	3260
911.259	3260
911.374	3317
911.489	3233
911.604	3161
911.718	3097
911.833	3116
911.947	3028
912.062	2994
912.176	3176
912.291	3157
912.405	3211
912.519	3428
912.633	3443
912.748	3302
912.862	3275
912.976	3165
913.09	3051
913.204	3127
913.318	3233
913.431	3359
913.545	3348
913.659	3359
913.772	3348
913.886	3237
914	3207
914.113	3367
914.226	3370
914.34	3340
914.453	3230
914.566	3416
914.68	3313
914.793	3294
914.906	3127
915.019	3150
915.132	3047
915.245	3157
915.358	3188
915.47	3195
915.583	3275
915.696	3275
915.809	3378
915.921	3481
916.034	3256
916.146	3211
916.259	3195
916.371	3382
916.483	3340
916.595	3268
916.708	3317
916.82	3325
916.932	3363
917.044	3325
917.156	3359
917.268	3253
917.38	3275
917.491	3287
917.603	3386
917.715	3466
917.826	3462
917.938	3344
918.049	3306
918.161	3412
918.272	3603
918.384	3568
918.495	3462
918.606	3332
918.717	3310
918.828	3370
918.939	3363
919.05	3306
919.161	3329
919.272	3165
919.383	3287
919.494	3469
919.604	3728
919.715	3538
919.826	3409
919.936	3454
920.047	3564
920.157	3553
920.267	3740
920.378	3587
920.488	3580
920.598	3751
920.708	3941
920.818	3827
920.928	3827
921.038	4010
921.148	3994
921.258	3694
921.368	3633
921.477	3587
921.587	3515
921.697	3477
921.806	3595
921.916	3507
922.025	3351
922.134	3298
922.244	3317
922.353	3431
922.462	3233
922.571	3207
922.68	3077
922.789	3085
922.898	3157
923.007	3104
923.116	3173
923.224	3211
923.333	3161
923.442	3108
923.55	3085
923.659	3176
923.767	3195
923.876	3104
923.984	3230
924.092	3135
924.201	3241
924.309	3203
924.417	3207
924.525	3192
924.633	3272
924.741	4032
924.849	3043
924.956	3264
925.064	3108
925.172	3013
925.279	3077
925.387	3180
925.494	3180
925.602	3370
925.709	3302
925.816	3192
925.924	3310
926.031	3367
926.138	3336
926.245	3336
926.352	3294
926.459	3409
926.566	3454
926.673	3272
926.779	3249
926.886	3233
926.993	3146
927.099	3108
927.206	3097
927.312	3100
927.419	3226
927.525	3211
927.631	3329
927.737	3154
927.843	3142
927.95	3036
928.056	3138
928.162	3169
928.267	3237
928.373	3747
928.479	3310
928.585	3058
928.69	3233
928.796	3253
928.901	3165
929.007	3032
929.112	3157
929.218	3169
929.323	3127
929.428	3169
929.533	3332
929.638	3085
929.743	3180
929.848	3268
929.953	3184
930.058	3116
930.163	2986
930.267	3077
930.372	3150
930.477	3020
930.581	3329
930.685	3176
930.79	3066
930.894	3112
930.998	3093
931.103	3253
931.207	2990
931.311	2956
931.415	2902
931.519	2781
931.623	2811
