Data from test_V78500241_1796.txt Node
Date: Fri Mar 25 16:27:38 CST 2022
User: usil
Spectrometer: V785-0024
Trigger mode: 0
Integration Time (sec): 4.000000E-1
Scans to average: 1
Nonlinearity correction enabled: false
Boxcar width: 0
Storing dark spectrum: false
XAxis mode: Wavelengths
Number of Pixels in Spectrum: 1024
>>>>>Begin Spectral Data<<<<<
801.071	2899
801.214	2929
801.356	2834
801.499	2891
801.641	2876
801.783	2887
801.926	3017
802.068	2967
802.211	3013
802.353	2994
802.496	2941
802.638	3036
802.78	3036
802.923	3047
803.065	2971
803.208	2880
803.35	2895
803.492	2941
803.635	2937
803.777	2773
803.919	2864
804.061	3176
804.204	2960
804.346	2925
804.488	2792
804.63	2963
804.773	2826
804.915	2899
805.057	3047
805.199	2891
805.341	2937
805.483	2994
805.626	2960
805.768	2960
805.91	3070
806.052	3127
806.194	3032
806.336	3218
806.478	3039
806.62	2941
806.762	2967
806.904	3039
807.046	3165
807.188	2982
807.33	2899
807.472	2990
807.614	2899
807.756	2994
807.898	2941
808.04	2925
808.182	2941
808.324	2933
808.465	2902
808.607	2864
808.749	2754
808.891	2804
809.033	2960
809.174	2956
809.316	2925
809.458	2872
809.6	2777
809.741	2720
809.883	2777
810.025	2834
810.166	2853
810.308	2811
810.45	2842
810.591	2762
810.733	2785
810.875	2807
811.016	2754
811.158	2743
811.299	2811
811.441	2933
811.582	2937
811.724	2834
811.865	2804
812.007	2895
812.148	2899
812.29	2857
812.431	2883
812.573	2929
812.714	2956
812.855	3024
812.997	3001
813.138	3142
813.279	2975
813.421	2975
813.562	2963
813.703	2834
813.845	2887
813.986	2754
814.127	2762
814.268	2785
814.41	2830
814.551	2823
814.692	2830
814.833	2811
814.974	2887
815.115	2918
815.256	2804
815.397	2807
815.539	2861
815.68	2773
815.821	2811
815.962	2941
816.103	2895
816.244	2872
816.385	2857
816.526	2933
816.666	2918
816.807	2724
816.948	2922
817.089	2891
817.23	2857
817.371	2731
817.512	2811
817.653	2838
817.793	2819
817.934	2906
818.075	2967
818.216	2994
818.356	3032
818.497	2891
818.638	2769
818.778	2842
818.919	2796
819.06	2777
819.2	2883
819.341	2815
819.481	2811
819.622	2899
819.762	3108
819.903	3043
820.043	2910
820.184	2880
820.324	2887
820.465	2998
820.605	3024
820.746	3005
820.886	2925
821.026	3085
821.167	3150
821.307	3268
821.447	3306
821.588	3222
821.728	3218
821.868	3173
822.008	3081
822.149	3169
822.289	3203
822.429	3135
822.569	3100
822.709	3176
822.849	3032
822.99	3074
823.13	3142
823.27	3214
823.41	3138
823.55	3146
823.69	3135
823.83	3157
823.97	3074
824.11	2990
824.25	2986
824.389	3039
824.529	3123
824.669	3066
824.809	3180
824.949	3249
825.089	3214
825.228	3165
825.368	2990
825.508	2948
825.648	2971
825.787	3001
825.927	3028
826.067	2960
826.206	2967
826.346	3039
826.485	3074
826.625	3074
826.765	3245
826.904	3195
827.044	2971
827.183	2902
827.323	2853
827.462	2967
827.601	2952
827.741	2910
827.88	2937
828.02	2819
828.159	2967
828.298	3013
828.437	3077
828.577	3036
828.716	3233
828.855	3039
828.994	2937
829.134	2868
829.273	2880
829.412	2857
829.551	2861
829.69	2910
829.829	3009
829.968	3150
830.107	3013
830.246	3036
830.385	2918
830.524	2845
830.663	2800
830.802	2697
830.941	2659
831.08	2670
831.219	2731
831.357	2762
831.496	2902
831.635	2701
831.774	2632
831.913	2613
832.051	2545
832.19	2526
832.329	2682
832.467	2518
832.606	2465
832.744	2610
832.883	2590
833.022	2564
833.16	2613
833.299	2686
833.437	2686
833.576	2686
833.714	2720
833.852	2705
833.991	2762
834.129	2796
834.267	2845
834.406	2731
834.544	2845
834.682	2845
834.821	2823
834.959	3036
835.097	2872
835.235	3051
835.373	2979
835.511	3001
835.65	2948
835.788	2925
835.926	2838
836.064	2796
836.202	2838
836.34	3047
836.478	3135
836.615	3062
836.753	3127
836.891	3180
837.029	3157
837.167	3127
837.305	3051
837.443	3028
837.58	2960
837.718	3097
837.856	3047
837.993	3028
838.131	3127
838.269	3089
838.406	3100
838.544	3093
838.681	2906
838.819	2899
838.956	2804
839.094	2823
839.231	2872
839.369	2975
839.506	3389
839.643	3173
839.781	3005
839.918	2933
840.055	3051
840.193	3039
840.33	3036
840.467	3093
840.604	3131
840.742	3367
840.879	3074
841.016	3028
841.153	3085
841.29	3310
841.427	3287
841.564	3237
841.701	3272
841.838	3195
841.975	3169
842.112	3199
842.249	3093
842.385	2994
842.522	3264
842.659	3097
842.796	3055
842.933	3119
843.069	3047
843.206	3051
843.343	3165
843.479	3085
843.616	3131
843.752	2883
843.889	2864
844.025	3066
844.162	2864
844.298	3036
844.435	2948
844.571	2895
844.708	3039
844.844	3161
844.98	3218
845.117	3127
845.253	3066
845.389	2994
845.525	3077
845.661	3062
845.798	2998
845.934	3116
846.07	3043
846.206	3180
846.342	3279
846.478	3222
846.614	3085
846.75	2990
846.886	3032
847.022	3237
847.158	3119
847.294	3150
847.429	3199
847.565	3199
847.701	3454
847.837	3032
847.972	2982
848.108	3161
848.244	3131
848.379	2960
848.515	2925
848.65	2922
848.786	2899
848.921	3001
849.057	3116
849.192	3131
849.328	3119
849.463	3077
849.598	3036
849.734	2990
849.869	2971
850.004	2864
850.14	2948
850.275	2883
850.41	2815
850.545	2819
850.68	2899
850.815	2944
850.95	2979
851.085	3176
851.22	3119
851.355	3043
851.49	2971
851.625	2960
851.76	3013
851.895	2941
852.03	2899
852.165	3005
852.299	3100
852.434	3188
852.569	3135
852.703	3180
852.838	3279
852.973	3294
853.107	3321
853.242	3173
853.376	3104
853.511	2990
853.645	3077
853.78	3222
853.914	3150
854.048	3108
854.183	3097
854.317	3127
854.451	3302
854.585	3135
854.72	3093
854.854	3233
854.988	3070
855.122	3097
855.256	2994
855.39	3127
855.524	3222
855.658	3218
855.792	3146
855.926	3214
856.06	3222
856.194	3272
856.327	3169
856.461	3089
856.595	3157
856.729	3093
856.862	3241
856.996	3188
857.13	3222
857.263	3253
857.397	3279
857.53	3161
857.664	3207
857.797	3294
857.931	3298
858.064	3173
858.197	3272
858.331	3180
858.464	3108
858.597	3043
858.731	3146
858.864	3195
858.997	3165
859.13	3169
859.263	3211
859.396	3222
859.529	3127
859.662	3097
859.795	3055
859.928	3195
860.061	3321
860.194	3287
860.327	3176
860.46	3123
860.592	3306
860.725	3344
860.858	3302
860.99	3131
861.123	3104
861.256	3119
861.388	3169
861.521	3903
861.653	3024
861.786	3024
861.918	3024
862.05	3100
862.183	3135
862.315	3199
862.447	3218
862.58	3100
862.712	2979
862.844	2880
862.976	3055
863.108	3066
863.24	3481
863.372	2929
863.504	3020
863.636	3005
863.768	3036
863.9	2998
864.032	2944
864.164	3020
864.296	3058
864.428	3131
864.559	3131
864.691	3089
864.823	3104
864.954	3032
865.086	3089
865.217	3032
865.349	2986
865.48	3058
865.612	3036
865.743	3199
865.875	3020
866.006	2990
866.137	3009
866.269	3009
866.4	2937
866.531	2914
866.662	2937
866.793	2956
866.924	2925
867.055	3005
867.186	2967
867.317	2929
867.448	2887
867.579	2876
867.71	2899
867.841	2853
867.972	2944
868.103	2918
868.233	2937
868.364	2902
868.495	2906
868.625	3116
868.756	3199
868.886	3001
869.017	3043
869.147	3184
869.278	3176
869.408	3058
869.539	3062
869.669	3127
869.799	3074
869.929	3131
870.06	3150
870.19	3359
870.32	3298
870.45	3336
870.58	3389
870.71	3485
870.84	3462
870.97	3306
871.1	3237
871.23	3523
871.36	3477
871.489	3393
871.619	3416
871.749	3393
871.879	3496
872.008	3450
872.138	3393
872.267	3275
872.397	3207
872.526	3131
872.656	3017
872.785	3116
872.915	3192
873.044	3351
873.173	3275
873.303	3256
873.432	3272
873.561	3237
873.69	3176
873.819	3188
873.948	3180
874.077	3119
874.206	3058
874.335	3081
874.464	3226
874.593	3367
874.722	3260
874.851	3397
874.979	3325
875.108	3351
875.237	3230
875.365	3218
875.494	3169
875.623	3256
875.751	3127
875.88	3161
876.008	3207
876.136	3222
876.265	3389
876.393	3549
876.521	3458
876.65	3447
876.778	3359
876.906	3260
877.034	3233
877.162	3256
877.29	3203
877.418	3253
877.546	3245
877.674	3268
877.802	3268
877.93	3260
878.058	3154
878.185	3165
878.313	3264
878.441	3222
878.568	3108
878.696	3165
878.824	3306
878.951	3291
879.079	3458
879.206	3610
879.333	3485
879.461	3374
879.588	3393
879.715	3488
879.842	3610
879.97	3409
880.097	3165
880.224	3165
880.351	3226
880.478	3253
880.605	3237
880.732	3214
880.859	3538
880.986	3348
881.112	3355
881.239	3192
881.366	3135
881.493	3070
881.619	3036
881.746	3127
881.872	3108
881.999	3119
882.125	3173
882.252	3260
882.378	3294
882.505	3450
882.631	3294
882.757	3169
882.883	3256
883.01	3256
883.136	3165
883.262	3142
883.388	3146
883.514	3355
883.64	3401
883.766	3317
883.892	3226
884.018	3245
884.143	3450
884.269	3557
884.395	3233
884.52	3214
884.646	3207
884.772	3157
884.897	3138
885.023	3218
885.148	3336
885.274	3469
885.399	3370
885.524	3329
885.65	3287
885.775	3351
885.9	3302
886.025	3488
886.15	3397
886.275	3321
886.4	3268
886.525	3344
886.65	3310
886.775	3310
886.9	3530
887.025	3641
887.149	3393
887.274	3275
887.399	3192
887.523	3233
887.648	3253
887.773	3226
887.897	3378
888.021	3405
888.146	3291
888.27	3447
888.395	3534
888.519	3443
888.643	3485
888.767	3466
888.891	3340
889.015	3256
889.139	3306
889.263	3283
889.387	3431
889.511	3507
889.635	3450
889.759	3291
889.883	3294
890.006	3424
890.13	3568
890.254	3313
890.377	3374
890.501	3256
890.624	3226
890.748	3336
890.871	3176
890.995	3104
891.118	3104
891.241	3203
891.364	3218
891.488	3367
891.611	3218
891.734	3237
891.857	3317
891.98	3249
892.103	3374
892.226	3306
892.349	3279
892.471	3135
892.594	3264
892.717	3302
892.839	3325
892.962	3336
893.085	3401
893.207	3283
893.33	3157
893.452	3195
893.575	3351
893.697	3245
893.819	3481
893.941	3500
894.064	3447
894.186	3275
894.308	3306
894.43	3454
894.552	3557
894.674	3458
894.796	3283
894.918	3317
895.04	3298
895.161	3454
895.283	3401
895.405	3351
895.526	3378
895.648	3439
895.769	3431
895.891	3466
896.012	3511
896.134	3443
896.255	3420
896.376	3409
896.498	3378
896.619	3496
896.74	3363
896.861	3439
896.982	3713
897.103	3838
897.224	3610
897.345	3538
897.466	3481
897.587	3488
897.708	3595
897.828	3553
897.949	3488
898.07	3321
898.19	3443
898.311	3606
898.431	3447
898.552	3545
898.672	3603
898.792	3595
898.913	3553
899.033	3428
899.153	3344
899.273	3230
899.393	3298
899.513	3340
899.633	3317
899.753	3336
899.873	3329
899.993	3401
900.113	3340
900.232	3420
900.352	3382
900.472	3306
900.591	3218
900.711	3298
900.83	3287
900.95	3443
901.069	3538
901.189	3382
901.308	3207
901.427	3176
901.546	3184
901.665	3329
901.784	3325
901.904	3230
902.023	3161
902.141	3017
902.26	2986
902.379	3150
902.498	3123
902.617	3051
902.735	3264
902.854	3253
902.973	3192
903.091	3081
903.21	3047
903.328	3097
903.446	3150
903.565	3138
903.683	3222
903.801	3157
903.919	3249
904.038	3291
904.156	3192
904.274	3306
904.392	3268
904.51	3294
904.627	3344
904.745	3454
904.863	3507
904.981	3279
905.098	3173
905.216	3260
905.334	3283
905.451	3306
905.569	3302
905.686	3409
905.803	3412
905.921	3249
906.038	3454
906.155	3424
906.272	3298
906.389	3340
906.506	3211
906.623	3260
906.74	3306
906.857	3245
906.974	3302
907.091	3492
907.208	3595
907.324	3462
907.441	3386
907.557	3214
907.674	3291
907.79	3302
907.907	3306
908.023	3393
908.139	3370
908.256	3370
908.372	3363
908.488	3374
908.604	3306
908.72	3226
908.836	3260
908.952	3253
909.068	3355
909.184	3481
909.3	3405
909.415	3504
909.531	3447
909.647	3298
909.762	3332
909.878	3279
909.993	3348
910.108	3321
910.224	3340
910.339	3393
910.454	3310
910.57	3275
910.685	3222
910.8	3595
910.915	3557
911.03	3450
911.145	3279
911.259	3264
911.374	3287
911.489	3245
911.604	3245
911.718	3135
911.833	3154
911.947	3039
912.062	3009
912.176	3157
912.291	3195
912.405	3249
912.519	3462
912.633	3481
912.748	3370
912.862	3291
912.976	3184
913.09	3097
913.204	3173
913.318	3237
913.431	3329
913.545	3325
913.659	3367
913.772	3313
913.886	3230
914	3218
914.113	3374
914.226	3435
914.34	3389
914.453	3230
914.566	3397
914.68	3317
914.793	3329
914.906	3188
915.019	3104
915.132	3074
915.245	3184
915.358	3230
915.47	3253
915.583	3279
915.696	3283
915.809	3435
915.921	3428
916.034	3279
916.146	3237
916.259	3211
916.371	3393
916.483	3389
916.595	3264
916.708	3359
916.82	3359
916.932	3332
917.044	3344
917.156	3325
917.268	3260
917.38	3313
917.491	3287
917.603	3367
917.715	3435
917.826	3500
917.938	3367
918.049	3264
918.161	3431
918.272	3599
918.384	3587
918.495	3496
918.606	3340
918.717	3253
918.828	3416
918.939	3378
919.05	3325
919.161	3382
919.272	3184
919.383	3287
919.494	3530
919.604	3728
919.715	3534
919.826	3397
919.936	3485
920.047	3606
920.157	3587
920.267	3770
920.378	3644
920.488	3610
920.598	3785
920.708	3945
920.818	3785
920.928	3838
921.038	4025
921.148	4013
921.258	3724
921.368	3671
921.477	3580
921.587	3587
921.697	3496
921.806	3629
921.916	3526
922.025	3405
922.134	3389
922.244	3378
922.353	3481
922.462	3287
922.571	3287
922.68	3123
922.789	3119
922.898	3188
923.007	3104
923.116	3253
923.224	3184
923.333	3241
923.442	3150
923.55	3104
923.659	3154
923.767	3230
923.876	3169
923.984	3287
924.092	3165
924.201	3260
924.309	3283
924.417	3245
924.525	3180
924.633	3268
924.741	4067
924.849	3097
924.956	3302
925.064	3157
925.172	3066
925.279	3169
925.387	3264
925.494	3203
925.602	3370
925.709	3355
925.816	3203
925.924	3325
926.031	3447
926.138	3374
926.245	3386
926.352	3310
926.459	3393
926.566	3523
926.673	3370
926.779	3275
926.886	3306
926.993	3203
927.099	3176
927.206	3135
927.312	3165
927.419	3298
927.525	3272
927.631	3310
927.737	3195
927.843	3169
927.95	3043
928.056	3169
928.162	3176
928.267	3329
928.373	3899
928.479	3336
928.585	3089
928.69	3218
928.796	3321
928.901	3161
929.007	3089
929.112	3272
929.218	3226
929.323	3195
929.428	3199
929.533	3351
929.638	3173
929.743	3203
929.848	3275
929.953	3256
930.058	3146
930.163	3017
930.267	3104
930.372	3195
930.477	3062
930.581	3325
930.685	3203
930.79	3142
930.894	3157
930.998	3119
931.103	3306
931.207	3028
931.311	3020
931.415	2952
931.519	2838
931.623	2823
