Data from test_V78500241_1638.txt Node
Date: Fri Mar 25 16:26:33 CST 2022
User: usil
Spectrometer: V785-0024
Trigger mode: 0
Integration Time (sec): 4.000000E-1
Scans to average: 1
Nonlinearity correction enabled: false
Boxcar width: 0
Storing dark spectrum: false
XAxis mode: Wavelengths
Number of Pixels in Spectrum: 1024
>>>>>Begin Spectral Data<<<<<
801.071	2948
801.214	2963
801.356	2895
801.499	2929
801.641	2899
801.783	2956
801.926	3074
802.068	2986
802.211	3013
802.353	3070
802.496	2952
802.638	3032
802.78	3074
802.923	3085
803.065	2990
803.208	2933
803.35	2937
803.492	2960
803.635	2941
803.777	2762
803.919	2853
804.061	3199
804.204	2960
804.346	2937
804.488	2830
804.63	3005
804.773	2876
804.915	2941
805.057	3077
805.199	2944
805.341	2960
805.483	3013
805.626	3024
805.768	2956
805.91	3081
806.052	3100
806.194	3058
806.336	3226
806.478	3028
806.62	2979
806.762	3001
806.904	3055
807.046	3150
807.188	2998
807.33	2925
807.472	3009
807.614	2925
807.756	3001
807.898	2910
808.04	2933
808.182	3020
808.324	2960
808.465	2861
808.607	2861
808.749	2830
808.891	2861
809.033	2948
809.174	2998
809.316	2891
809.458	2899
809.6	2754
809.741	2777
809.883	2781
810.025	2861
810.166	2861
810.308	2845
810.45	2845
810.591	2754
810.733	2781
810.875	2857
811.016	2769
811.158	2773
811.299	2830
811.441	2906
811.582	2895
811.724	2819
811.865	2811
812.007	2899
812.148	2891
812.29	2876
812.431	2868
812.573	2925
812.714	2994
812.855	3047
812.997	3009
813.138	3116
813.279	3017
813.421	3017
813.562	2948
813.703	2872
813.845	2914
813.986	2800
814.127	2735
814.268	2834
814.41	2842
814.551	2830
814.692	2861
814.833	2823
814.974	2883
815.115	3005
815.256	2845
815.397	2804
815.539	2853
815.68	2781
815.821	2819
815.962	2929
816.103	2941
816.244	2887
816.385	2842
816.526	2982
816.666	2941
816.807	2743
816.948	2872
817.089	2880
817.23	2861
817.371	2788
817.512	2788
817.653	2868
817.793	2815
817.934	2868
818.075	2956
818.216	2982
818.356	3036
818.497	2914
818.638	2792
818.778	2823
818.919	2819
819.06	2773
819.2	2922
819.341	2834
819.481	2838
819.622	2910
819.762	3104
819.903	3039
820.043	2918
820.184	2876
820.324	2910
820.465	3024
820.605	3051
820.746	3036
820.886	2937
821.026	3085
821.167	3142
821.307	3249
821.447	3230
821.588	3222
821.728	3222
821.868	3207
822.008	3081
822.149	3165
822.289	3233
822.429	3123
822.569	3119
822.709	3176
822.849	3032
822.99	3066
823.13	3150
823.27	3230
823.41	3131
823.55	3119
823.69	3180
823.83	3199
823.97	3093
824.11	3024
824.25	2979
824.389	3077
824.529	3116
824.669	3058
824.809	3188
824.949	3207
825.089	3195
825.228	3161
825.368	2967
825.508	2990
825.648	2952
825.787	3005
825.927	3009
826.067	2960
826.206	2937
826.346	3043
826.485	3036
826.625	3104
826.765	3241
826.904	3226
827.044	2990
827.183	2944
827.323	2883
827.462	2971
827.601	2902
827.741	2944
827.88	2941
828.02	2826
828.159	2998
828.298	3085
828.437	3085
828.577	3055
828.716	3203
828.855	3062
828.994	2918
829.134	2880
829.273	2880
829.412	2883
829.551	2826
829.69	2883
829.829	2986
829.968	3146
830.107	2998
830.246	3028
830.385	2922
830.524	2861
830.663	2804
830.802	2758
830.941	2678
831.08	2640
831.219	2735
831.357	2712
831.496	2941
831.635	2705
831.774	2640
831.913	2674
832.051	2541
832.19	2610
832.329	2670
832.467	2549
832.606	2511
832.744	2571
832.883	2606
833.022	2594
833.16	2674
833.299	2674
833.437	2724
833.576	2705
833.714	2716
833.852	2727
833.991	2769
834.129	2853
834.267	2815
834.406	2781
834.544	2876
834.682	2868
834.821	2876
834.959	3070
835.097	2902
835.235	3043
835.373	3020
835.511	3005
835.65	2937
835.788	2956
835.926	2807
836.064	2857
836.202	2823
836.34	3104
836.478	3146
836.615	3020
836.753	3138
836.891	3169
837.029	3161
837.167	3077
837.305	3081
837.443	3024
837.58	2956
837.718	3157
837.856	3032
837.993	3013
838.131	3127
838.269	3085
838.406	3077
838.544	3070
838.681	2956
838.819	2925
838.956	2758
839.094	2834
839.231	2914
839.369	2986
839.506	3355
839.643	3195
839.781	3024
839.918	2941
840.055	3047
840.193	3017
840.33	3058
840.467	3116
840.604	3154
840.742	3401
840.879	3051
841.016	3077
841.153	3100
841.29	3332
841.427	3302
841.564	3321
841.701	3344
841.838	3214
841.975	3161
842.112	3237
842.249	3100
842.385	3005
842.522	3256
842.659	3093
842.796	3020
842.933	3097
843.069	3032
843.206	3062
843.343	3173
843.479	3089
843.616	3146
843.752	2883
843.889	2861
844.025	3077
844.162	2849
844.298	3108
844.435	2944
844.571	2899
844.708	3074
844.844	3184
844.98	3203
845.117	3188
845.253	3062
845.389	3020
845.525	3104
845.661	3135
845.798	3043
845.934	3081
846.07	3051
846.206	3226
846.342	3306
846.478	3283
846.614	3081
846.75	3081
846.886	3024
847.022	3287
847.158	3173
847.294	3176
847.429	3249
847.565	3165
847.701	3485
847.837	3013
847.972	3013
848.108	3142
848.244	3169
848.379	2990
848.515	2933
848.65	2941
848.786	2918
848.921	3043
849.057	3093
849.192	3146
849.328	3066
849.463	3123
849.598	3047
849.734	3020
849.869	2948
850.004	2899
850.14	2941
850.275	2925
850.41	2811
850.545	2887
850.68	2910
850.815	2967
850.95	2937
851.085	3138
851.22	3112
851.355	3051
851.49	2998
851.625	2998
851.76	3028
851.895	2925
852.03	2922
852.165	3051
852.299	3127
852.434	3207
852.569	3138
852.703	3157
852.838	3249
852.973	3294
853.107	3298
853.242	3154
853.376	3081
853.511	3001
853.645	3032
853.78	3218
853.914	3104
854.048	3104
854.183	3100
854.317	3142
854.451	3260
854.585	3138
854.72	3085
854.854	3188
854.988	3028
855.122	3100
855.256	2956
855.39	3097
855.524	3222
855.658	3146
855.792	3135
855.926	3195
856.06	3180
856.194	3264
856.327	3142
856.461	3043
856.595	3081
856.729	3077
856.862	3222
856.996	3142
857.13	3188
857.263	3222
857.397	3275
857.53	3116
857.664	3203
857.797	3230
857.931	3245
858.064	3161
858.197	3230
858.331	3116
858.464	3100
858.597	2971
858.731	3097
858.864	3116
858.997	3089
859.13	3154
859.263	3192
859.396	3203
859.529	3058
859.662	3077
859.795	3039
859.928	3131
860.061	3260
860.194	3241
860.327	3135
860.46	3062
860.592	3218
860.725	3218
860.858	3245
860.99	3085
861.123	3047
861.256	3039
861.388	3161
861.521	3884
861.653	3024
861.786	2990
861.918	2982
862.05	3043
862.183	3077
862.315	3138
862.447	3211
862.58	3093
862.712	2944
862.844	2868
862.976	3017
863.108	2998
863.24	3428
863.372	2876
863.504	2975
863.636	2933
863.768	3017
863.9	2963
864.032	2899
864.164	2937
864.296	2971
864.428	3066
864.559	3135
864.691	3058
864.823	3066
864.954	3055
865.086	3013
865.217	2986
865.349	2944
865.48	2975
865.612	3036
865.743	3150
865.875	2994
866.006	2994
866.137	2994
866.269	2929
866.4	2883
866.531	2880
866.662	2891
866.793	2883
866.924	2891
867.055	2990
867.186	2929
867.317	2872
867.448	2849
867.579	2864
867.71	2857
867.841	2826
867.972	2906
868.103	2891
868.233	2899
868.364	2880
868.495	2906
868.625	3119
868.756	3138
868.886	2960
869.017	3028
869.147	3173
869.278	3142
869.408	3036
869.539	3009
869.669	3104
869.799	3036
869.929	3104
870.06	3123
870.19	3325
870.32	3279
870.45	3268
870.58	3336
870.71	3420
870.84	3431
870.97	3321
871.1	3253
871.23	3447
871.36	3466
871.489	3359
871.619	3370
871.749	3405
871.879	3435
872.008	3481
872.138	3321
872.267	3260
872.397	3142
872.526	3100
872.656	3028
872.785	3074
872.915	3192
873.044	3310
873.173	3207
873.303	3287
873.432	3226
873.561	3241
873.69	3192
873.819	3142
873.948	3173
874.077	3116
874.206	3062
874.335	3066
874.464	3188
874.593	3317
874.722	3249
874.851	3409
874.979	3386
875.108	3321
875.237	3226
875.365	3157
875.494	3165
875.623	3245
875.751	3039
875.88	3116
876.008	3138
876.136	3188
876.265	3351
876.393	3492
876.521	3424
876.65	3386
876.778	3344
876.906	3233
877.034	3222
877.162	3245
877.29	3176
877.418	3253
877.546	3222
877.674	3226
877.802	3226
877.93	3226
878.058	3127
878.185	3116
878.313	3211
878.441	3195
878.568	3077
878.696	3097
878.824	3249
878.951	3287
879.079	3420
879.206	3606
879.333	3447
879.461	3310
879.588	3329
879.715	3488
879.842	3568
879.97	3389
880.097	3176
880.224	3138
880.351	3173
880.478	3207
880.605	3180
880.732	3207
880.859	3534
880.986	3302
881.112	3310
881.239	3188
881.366	3081
881.493	3036
881.619	3017
881.746	3036
881.872	3070
881.999	3085
882.125	3135
882.252	3226
882.378	3287
882.505	3348
882.631	3325
882.757	3165
882.883	3233
883.01	3245
883.136	3176
883.262	3062
883.388	3100
883.514	3291
883.64	3397
883.766	3298
883.892	3184
884.018	3310
884.143	3386
884.269	3500
884.395	3211
884.52	3169
884.646	3157
884.772	3119
884.897	3123
885.023	3192
885.148	3336
885.274	3435
885.399	3344
885.524	3275
885.65	3256
885.775	3317
885.9	3287
886.025	3431
886.15	3321
886.275	3268
886.4	3222
886.525	3294
886.65	3287
886.775	3275
886.9	3492
887.025	3622
887.149	3428
887.274	3264
887.399	3173
887.523	3192
887.648	3195
887.773	3230
887.897	3367
888.021	3344
888.146	3294
888.27	3439
888.395	3515
888.519	3401
888.643	3428
888.767	3439
888.891	3298
889.015	3230
889.139	3279
889.263	3237
889.387	3416
889.511	3519
889.635	3473
889.759	3279
889.883	3279
890.006	3378
890.13	3485
890.254	3275
890.377	3355
890.501	3195
890.624	3173
890.748	3279
890.871	3165
890.995	3089
891.118	3070
891.241	3150
891.364	3199
891.488	3329
891.611	3199
891.734	3203
891.857	3287
891.98	3237
892.103	3321
892.226	3275
892.349	3199
892.471	3116
892.594	3214
892.717	3279
892.839	3264
892.962	3268
893.085	3329
893.207	3310
893.33	3154
893.452	3192
893.575	3340
893.697	3214
893.819	3458
893.941	3500
894.064	3450
894.186	3214
894.308	3306
894.43	3469
894.552	3523
894.674	3435
894.796	3279
894.918	3272
895.04	3253
895.161	3382
895.283	3374
895.405	3351
895.526	3359
895.648	3454
895.769	3382
895.891	3462
896.012	3458
896.134	3462
896.255	3439
896.376	3363
896.498	3348
896.619	3462
896.74	3378
896.861	3397
896.982	3652
897.103	3835
897.224	3572
897.345	3492
897.466	3466
897.587	3515
897.708	3625
897.828	3530
897.949	3443
898.07	3370
898.19	3370
898.311	3610
898.431	3428
898.552	3469
898.672	3561
898.792	3576
898.913	3519
899.033	3382
899.153	3298
899.273	3176
899.393	3275
899.513	3325
899.633	3264
899.753	3363
899.873	3275
899.993	3367
900.113	3332
900.232	3374
900.352	3287
900.472	3287
900.591	3199
900.711	3275
900.83	3245
900.95	3431
901.069	3511
901.189	3367
901.308	3161
901.427	3123
901.546	3203
901.665	3298
901.784	3302
901.904	3222
902.023	3127
902.141	3017
902.26	2979
902.379	3119
902.498	3058
902.617	3036
902.735	3230
902.854	3218
902.973	3195
903.091	3028
903.21	3047
903.328	3116
903.446	3066
903.565	3093
903.683	3184
903.801	3131
903.919	3241
904.038	3272
904.156	3180
904.274	3272
904.392	3237
904.51	3287
904.627	3306
904.745	3397
904.863	3504
904.981	3226
905.098	3138
905.216	3207
905.334	3279
905.451	3291
905.569	3321
905.686	3409
905.803	3435
905.921	3302
906.038	3405
906.155	3363
906.272	3287
906.389	3298
906.506	3253
906.623	3256
906.74	3214
906.857	3169
906.974	3287
907.091	3450
907.208	3610
907.324	3424
907.441	3355
907.557	3245
907.674	3233
907.79	3199
907.907	3264
908.023	3374
908.139	3367
908.256	3302
908.372	3344
908.488	3336
908.604	3222
908.72	3230
908.836	3279
908.952	3275
909.068	3355
909.184	3469
909.3	3416
909.415	3496
909.531	3458
909.647	3275
909.762	3294
909.878	3241
909.993	3340
910.108	3317
910.224	3283
910.339	3389
910.454	3325
910.57	3310
910.685	3226
910.8	3580
910.915	3542
911.03	3458
911.145	3245
911.259	3275
911.374	3310
911.489	3245
911.604	3233
911.718	3104
911.833	3127
911.947	3024
912.062	2975
912.176	3184
912.291	3176
912.405	3214
912.519	3431
912.633	3443
912.748	3306
912.862	3233
912.976	3142
913.09	3062
913.204	3093
913.318	3230
913.431	3317
913.545	3298
913.659	3420
913.772	3332
913.886	3173
914	3203
914.113	3359
914.226	3416
914.34	3344
914.453	3218
914.566	3370
914.68	3275
914.793	3306
914.906	3085
915.019	3112
915.132	3077
915.245	3184
915.358	3192
915.47	3199
915.583	3222
915.696	3310
915.809	3340
915.921	3397
916.034	3211
916.146	3230
916.259	3272
916.371	3389
916.483	3348
916.595	3245
916.708	3359
916.82	3325
916.932	3336
917.044	3359
917.156	3317
917.268	3264
917.38	3310
917.491	3310
917.603	3363
917.715	3443
917.826	3466
917.938	3389
918.049	3298
918.161	3412
918.272	3591
918.384	3553
918.495	3523
918.606	3344
918.717	3287
918.828	3386
918.939	3454
919.05	3332
919.161	3397
919.272	3214
919.383	3332
919.494	3538
919.604	3747
919.715	3538
919.826	3443
919.936	3469
920.047	3606
920.157	3587
920.267	3770
920.378	3648
920.488	3587
920.598	3766
920.708	3979
920.818	3854
920.928	3846
921.038	4059
921.148	4036
921.258	3759
921.368	3656
921.477	3591
921.587	3618
921.697	3462
921.806	3682
921.916	3606
922.025	3420
922.134	3386
922.244	3367
922.353	3477
922.462	3317
922.571	3291
922.68	3161
922.789	3097
922.898	3199
923.007	3108
923.116	3272
923.224	3203
923.333	3222
923.442	3146
923.55	3070
923.659	3180
923.767	3272
923.876	3169
923.984	3272
924.092	3135
924.201	3245
924.309	3272
924.417	3294
924.525	3222
924.633	3310
924.741	4230
924.849	3108
924.956	3298
925.064	3157
925.172	3093
925.279	3173
925.387	3214
925.494	3260
925.602	3378
925.709	3351
925.816	3214
925.924	3325
926.031	3447
926.138	3340
926.245	3359
926.352	3275
926.459	3473
926.566	3526
926.673	3310
926.779	3291
926.886	3256
926.993	3195
927.099	3138
927.206	3154
927.312	3154
927.419	3260
927.525	3241
927.631	3313
927.737	3237
927.843	3165
927.95	3036
928.056	3203
928.162	3214
928.267	3260
928.373	3827
928.479	3370
928.585	3093
928.69	3256
928.796	3317
928.901	3195
929.007	3066
929.112	3260
929.218	3222
929.323	3150
929.428	3161
929.533	3348
929.638	3146
929.743	3180
929.848	3321
929.953	3211
930.058	3180
930.163	3020
930.267	3093
930.372	3199
930.477	3051
930.581	3374
930.685	3192
930.79	3093
930.894	3184
930.998	3127
931.103	3336
931.207	2979
931.311	2948
931.415	2979
931.519	2815
931.623	2792
