Data from test_V78500241_1949.txt Node
Date: Fri Mar 25 16:28:42 CST 2022
User: usil
Spectrometer: V785-0024
Trigger mode: 0
Integration Time (sec): 4.000000E-1
Scans to average: 1
Nonlinearity correction enabled: false
Boxcar width: 0
Storing dark spectrum: false
XAxis mode: Wavelengths
Number of Pixels in Spectrum: 1024
>>>>>Begin Spectral Data<<<<<
801.071	2891
801.214	2922
801.356	2880
801.499	2887
801.641	2887
801.783	2902
801.926	3009
802.068	2967
802.211	2998
802.353	3055
802.496	2922
802.638	3009
802.78	3051
802.923	3055
803.065	3013
803.208	2876
803.35	2906
803.492	2941
803.635	2937
803.777	2773
803.919	2811
804.061	3176
804.204	2975
804.346	2944
804.488	2857
804.63	3005
804.773	2864
804.915	2914
805.057	3097
805.199	2948
805.341	2967
805.483	3043
805.626	2990
805.768	2948
805.91	3081
806.052	3112
806.194	3039
806.336	3233
806.478	3036
806.62	2960
806.762	2975
806.904	3028
807.046	3161
807.188	2998
807.33	2937
807.472	3013
807.614	2952
807.756	2994
807.898	2914
808.04	2937
808.182	2982
808.324	2975
808.465	2899
808.607	2883
808.749	2815
808.891	2849
809.033	2952
809.174	2986
809.316	2872
809.458	2902
809.6	2762
809.741	2823
809.883	2762
810.025	2895
810.166	2872
810.308	2849
810.45	2857
810.591	2811
810.733	2754
810.875	2849
811.016	2781
811.158	2766
811.299	2811
811.441	2929
811.582	2880
811.724	2842
811.865	2792
812.007	2902
812.148	2876
812.29	2899
812.431	2872
812.573	2941
812.714	2944
812.855	3043
812.997	3051
813.138	3100
813.279	3047
813.421	2986
813.562	2982
813.703	2880
813.845	2872
813.986	2746
814.127	2735
814.268	2861
814.41	2861
814.551	2800
814.692	2899
814.833	2823
814.974	2876
815.115	2960
815.256	2823
815.397	2830
815.539	2891
815.68	2773
815.821	2788
815.962	2941
816.103	2914
816.244	2845
816.385	2883
816.526	2960
816.666	2914
816.807	2777
816.948	2914
817.089	2929
817.23	2861
817.371	2796
817.512	2800
817.653	2838
817.793	2826
817.934	2883
818.075	2933
818.216	2967
818.356	3043
818.497	2914
818.638	2788
818.778	2826
818.919	2788
819.06	2785
819.2	2849
819.341	2807
819.481	2826
819.622	2960
819.762	3100
819.903	3066
820.043	2914
820.184	2872
820.324	2872
820.465	3024
820.605	3020
820.746	3005
820.886	2963
821.026	3104
821.167	3157
821.307	3283
821.447	3279
821.588	3253
821.728	3241
821.868	3180
822.008	3077
822.149	3199
822.289	3199
822.429	3112
822.569	3070
822.709	3184
822.849	3017
822.99	3036
823.13	3199
823.27	3203
823.41	3081
823.55	3180
823.69	3173
823.83	3211
823.97	3066
824.11	2982
824.25	3024
824.389	3074
824.529	3089
824.669	3081
824.809	3192
824.949	3256
825.089	3218
825.228	3169
825.368	3013
825.508	2937
825.648	2979
825.787	2998
825.927	3043
826.067	2948
826.206	2929
826.346	3036
826.485	3074
826.625	3116
826.765	3279
826.904	3218
827.044	2994
827.183	2941
827.323	2891
827.462	2990
827.601	2895
827.741	2941
827.88	2929
828.02	2845
828.159	3001
828.298	3051
828.437	3135
828.577	3013
828.716	3226
828.855	3051
828.994	2941
829.134	2887
829.273	2956
829.412	2899
829.551	2853
829.69	2902
829.829	2956
829.968	3093
830.107	3058
830.246	3028
830.385	2910
830.524	2842
830.663	2819
830.802	2727
830.941	2617
831.08	2663
831.219	2792
831.357	2731
831.496	2960
831.635	2750
831.774	2617
831.913	2625
832.051	2568
832.19	2575
832.329	2686
832.467	2549
832.606	2507
832.744	2583
832.883	2583
833.022	2564
833.16	2659
833.299	2651
833.437	2693
833.576	2678
833.714	2727
833.852	2712
833.991	2750
834.129	2864
834.267	2845
834.406	2796
834.544	2864
834.682	2883
834.821	2902
834.959	3028
835.097	2906
835.235	3047
835.373	3009
835.511	2990
835.65	2933
835.788	2975
835.926	2826
836.064	2842
836.202	2834
836.34	3070
836.478	3123
836.615	3085
836.753	3142
836.891	3199
837.029	3176
837.167	3077
837.305	3032
837.443	3013
837.58	2971
837.718	3131
837.856	3085
837.993	3001
838.131	3085
838.269	3116
838.406	3081
838.544	3077
838.681	2925
838.819	2872
838.956	2766
839.094	2823
839.231	2910
839.369	3024
839.506	3363
839.643	3214
839.781	3001
839.918	2952
840.055	3020
840.193	3013
840.33	3077
840.467	3089
840.604	3131
840.742	3450
840.879	3047
841.016	3047
841.153	3138
841.29	3332
841.427	3310
841.564	3268
841.701	3298
841.838	3222
841.975	3188
842.112	3180
842.249	3062
842.385	3017
842.522	3253
842.659	3081
842.796	3070
842.933	3077
843.069	3032
843.206	3036
843.343	3173
843.479	3108
843.616	3154
843.752	2872
843.889	2868
844.025	3062
844.162	2868
844.298	3039
844.435	2941
844.571	2872
844.708	3070
844.844	3169
844.98	3188
845.117	3184
845.253	3055
845.389	2967
845.525	3097
845.661	3039
845.798	2979
845.934	3112
846.07	3043
846.206	3207
846.342	3306
846.478	3222
846.614	3070
846.75	3017
846.886	3058
847.022	3233
847.158	3173
847.294	3230
847.429	3253
847.565	3180
847.701	3492
847.837	3058
847.972	2998
848.108	3150
848.244	3123
848.379	3005
848.515	2922
848.65	2963
848.786	2971
848.921	2986
849.057	3104
849.192	3150
849.328	3058
849.463	3093
849.598	3100
849.734	3009
849.869	2941
850.004	2887
850.14	2944
850.275	2891
850.41	2845
850.545	2864
850.68	2925
850.815	2975
850.95	2963
851.085	3154
851.22	3104
851.355	3013
851.49	2960
851.625	3024
851.76	3043
851.895	2944
852.03	2902
852.165	3028
852.299	3135
852.434	3180
852.569	3142
852.703	3161
852.838	3188
852.973	3317
853.107	3294
853.242	3135
853.376	3097
853.511	2986
853.645	3051
853.78	3226
853.914	3123
854.048	3116
854.183	3089
854.317	3157
854.451	3291
854.585	3138
854.72	3077
854.854	3165
854.988	3085
855.122	3066
855.256	2960
855.39	3116
855.524	3207
855.658	3161
855.792	3131
855.926	3176
856.06	3192
856.194	3279
856.327	3146
856.461	3055
856.595	3119
856.729	3047
856.862	3230
856.996	3135
857.13	3207
857.263	3218
857.397	3279
857.53	3104
857.664	3173
857.797	3199
857.931	3245
858.064	3169
858.197	3195
858.331	3104
858.464	3089
858.597	3013
858.731	3097
858.864	3127
858.997	3089
859.13	3165
859.263	3180
859.396	3222
859.529	3104
859.662	3089
859.795	3036
859.928	3119
860.061	3256
860.194	3253
860.327	3157
860.46	3074
860.592	3245
860.725	3214
860.858	3169
860.99	3100
861.123	3055
861.256	3081
861.388	3127
861.521	3899
861.653	3039
861.786	2998
861.918	3020
862.05	3074
862.183	3119
862.315	3142
862.447	3188
862.58	3081
862.712	2929
862.844	2819
862.976	3005
863.108	3001
863.24	3294
863.372	2899
863.504	2960
863.636	2937
863.768	3020
863.9	2941
864.032	2891
864.164	2963
864.296	2986
864.428	3085
864.559	3104
864.691	3070
864.823	3070
864.954	3051
865.086	3024
865.217	3009
865.349	2998
865.48	2967
865.612	3017
865.743	3131
865.875	2990
866.006	2918
866.137	2960
866.269	2937
866.4	2902
866.531	2929
866.662	2902
866.793	2891
866.924	2914
867.055	2986
867.186	2887
867.317	2868
867.448	2819
867.579	2853
867.71	2849
867.841	2792
867.972	2914
868.103	2922
868.233	2891
868.364	2872
868.495	2948
868.625	3104
868.756	3108
868.886	2971
869.017	3017
869.147	3173
869.278	3131
869.408	3017
869.539	3009
869.669	3104
869.799	3032
869.929	3142
870.06	3116
870.19	3313
870.32	3233
870.45	3294
870.58	3367
870.71	3469
870.84	3431
870.97	3283
871.1	3260
871.23	3481
871.36	3458
871.489	3344
871.619	3363
871.749	3389
871.879	3431
872.008	3431
872.138	3329
872.267	3272
872.397	3165
872.526	3100
872.656	3024
872.785	3077
872.915	3264
873.044	3325
873.173	3211
873.303	3237
873.432	3256
873.561	3222
873.69	3176
873.819	3161
873.948	3195
874.077	3093
874.206	3047
874.335	3100
874.464	3241
874.593	3340
874.722	3237
874.851	3355
874.979	3325
875.108	3340
875.237	3203
875.365	3150
875.494	3180
875.623	3245
875.751	3097
875.88	3085
876.008	3188
876.136	3230
876.265	3359
876.393	3447
876.521	3401
876.65	3378
876.778	3325
876.906	3275
877.034	3188
877.162	3264
877.29	3112
877.418	3245
877.546	3283
877.674	3249
877.802	3214
877.93	3233
878.058	3127
878.185	3112
878.313	3176
878.441	3184
878.568	3074
878.696	3138
878.824	3241
878.951	3317
879.079	3458
879.206	3629
879.333	3439
879.461	3313
879.588	3355
879.715	3428
879.842	3587
879.97	3363
880.097	3154
880.224	3135
880.351	3184
880.478	3203
880.605	3180
880.732	3180
880.859	3443
880.986	3310
881.112	3302
881.239	3169
881.366	3070
881.493	3001
881.619	3024
881.746	3047
881.872	3097
881.999	3100
882.125	3157
882.252	3275
882.378	3321
882.505	3428
882.631	3313
882.757	3135
882.883	3195
883.01	3214
883.136	3142
883.262	3062
883.388	3104
883.514	3325
883.64	3348
883.766	3287
883.892	3199
884.018	3245
884.143	3420
884.269	3519
884.395	3245
884.52	3180
884.646	3169
884.772	3070
884.897	3085
885.023	3237
885.148	3332
885.274	3389
885.399	3367
885.524	3291
885.65	3226
885.775	3306
885.9	3283
886.025	3416
886.15	3382
886.275	3310
886.4	3237
886.525	3272
886.65	3249
886.775	3279
886.9	3515
887.025	3606
887.149	3428
887.274	3214
887.399	3211
887.523	3207
887.648	3199
887.773	3214
887.897	3344
888.021	3405
888.146	3283
888.27	3439
888.395	3534
888.519	3416
888.643	3481
888.767	3443
888.891	3291
889.015	3207
889.139	3241
889.263	3302
889.387	3409
889.511	3526
889.635	3405
889.759	3283
889.883	3294
890.006	3401
890.13	3488
890.254	3230
890.377	3325
890.501	3192
890.624	3173
890.748	3313
890.871	3207
890.995	3100
891.118	3036
891.241	3195
891.364	3241
891.488	3306
891.611	3161
891.734	3226
891.857	3287
891.98	3214
892.103	3321
892.226	3264
892.349	3203
892.471	3135
892.594	3199
892.717	3294
892.839	3275
892.962	3279
893.085	3351
893.207	3302
893.33	3131
893.452	3180
893.575	3344
893.697	3260
893.819	3496
893.941	3511
894.064	3454
894.186	3253
894.308	3287
894.43	3462
894.552	3553
894.674	3466
894.796	3275
894.918	3325
895.04	3275
895.161	3412
895.283	3374
895.405	3336
895.526	3348
895.648	3431
895.769	3424
895.891	3488
896.012	3462
896.134	3450
896.255	3443
896.376	3420
896.498	3321
896.619	3431
896.74	3378
896.861	3378
896.982	3663
897.103	3831
897.224	3614
897.345	3485
897.466	3431
897.587	3462
897.708	3614
897.828	3530
897.949	3458
898.07	3329
898.19	3409
898.311	3591
898.431	3443
898.552	3496
898.672	3599
898.792	3545
898.913	3504
899.033	3401
899.153	3256
899.273	3237
899.393	3291
899.513	3298
899.633	3313
899.753	3363
899.873	3294
899.993	3389
900.113	3340
900.232	3348
900.352	3321
900.472	3275
900.591	3245
900.711	3306
900.83	3230
900.95	3409
901.069	3477
901.189	3355
901.308	3142
901.427	3138
901.546	3214
901.665	3256
901.784	3283
901.904	3245
902.023	3157
902.141	3028
902.26	2963
902.379	3135
902.498	3089
902.617	3070
902.735	3230
902.854	3218
902.973	3161
903.091	3036
903.21	3066
903.328	3150
903.446	3123
903.565	3104
903.683	3222
903.801	3161
903.919	3233
904.038	3283
904.156	3123
904.274	3287
904.392	3264
904.51	3283
904.627	3340
904.745	3447
904.863	3515
904.981	3275
905.098	3173
905.216	3211
905.334	3291
905.451	3313
905.569	3325
905.686	3405
905.803	3428
905.921	3348
906.038	3447
906.155	3348
906.272	3294
906.389	3351
906.506	3226
906.623	3226
906.74	3256
906.857	3161
906.974	3264
907.091	3439
907.208	3572
907.324	3492
907.441	3386
907.557	3226
907.674	3264
907.79	3214
907.907	3283
908.023	3367
908.139	3363
908.256	3321
908.372	3374
908.488	3363
908.604	3272
908.72	3211
908.836	3287
908.952	3302
909.068	3340
909.184	3462
909.3	3416
909.415	3462
909.531	3473
909.647	3291
909.762	3294
909.878	3268
909.993	3336
910.108	3302
910.224	3359
910.339	3386
910.454	3344
910.57	3291
910.685	3230
910.8	3591
910.915	3519
911.03	3443
911.145	3260
911.259	3275
911.374	3279
911.489	3245
911.604	3214
911.718	3097
911.833	3108
911.947	3032
912.062	2979
912.176	3176
912.291	3222
912.405	3226
912.519	3412
912.633	3466
912.748	3336
912.862	3272
912.976	3188
913.09	3051
913.204	3157
913.318	3222
913.431	3340
913.545	3321
913.659	3447
913.772	3332
913.886	3211
914	3214
914.113	3340
914.226	3401
914.34	3382
914.453	3195
914.566	3409
914.68	3245
914.793	3313
914.906	3116
915.019	3135
915.132	3039
915.245	3169
915.358	3154
915.47	3222
915.583	3279
915.696	3260
915.809	3367
915.921	3412
916.034	3260
916.146	3256
916.259	3211
916.371	3378
916.483	3363
916.595	3256
916.708	3378
916.82	3317
916.932	3313
917.044	3348
917.156	3348
917.268	3199
917.38	3329
917.491	3291
917.603	3397
917.715	3405
917.826	3477
917.938	3412
918.049	3283
918.161	3389
918.272	3584
918.384	3568
918.495	3519
918.606	3306
918.717	3256
918.828	3367
918.939	3393
919.05	3325
919.161	3344
919.272	3192
919.383	3253
919.494	3454
919.604	3644
919.715	3477
919.826	3439
919.936	3454
920.047	3584
920.157	3564
920.267	3789
920.378	3587
920.488	3576
920.598	3819
920.708	3937
920.818	3823
920.928	3854
921.038	4055
921.148	3998
921.258	3701
921.368	3633
921.477	3603
921.587	3523
921.697	3458
921.806	3644
921.916	3523
922.025	3359
922.134	3321
922.244	3340
922.353	3435
922.462	3256
922.571	3253
922.68	3116
922.789	3055
922.898	3173
923.007	3131
923.116	3176
923.224	3138
923.333	3207
923.442	3070
923.55	3081
923.659	3131
923.767	3230
923.876	3123
923.984	3249
924.092	3074
924.201	3184
924.309	3207
924.417	3268
924.525	3214
924.633	3222
924.741	4211
924.849	3020
924.956	3275
925.064	3051
925.172	3036
925.279	3104
925.387	3203
925.494	3203
925.602	3340
925.709	3298
925.816	3230
925.924	3264
926.031	3409
926.138	3344
926.245	3344
926.352	3260
926.459	3458
926.566	3443
926.673	3325
926.779	3233
926.886	3264
926.993	3180
927.099	3135
927.206	3100
927.312	3077
927.419	3233
927.525	3195
927.631	3272
927.737	3112
927.843	3131
927.95	3051
928.056	3146
928.162	3207
928.267	3207
928.373	3857
928.479	3287
928.585	3051
928.69	3214
928.796	3260
928.901	3173
929.007	3017
929.112	3211
929.218	3161
929.323	3131
929.428	3142
929.533	3294
929.638	3108
929.743	3176
929.848	3222
929.953	3241
930.058	3154
930.163	3047
930.267	3062
930.372	3214
930.477	3039
930.581	3321
930.685	3188
930.79	3013
930.894	3097
930.998	3058
931.103	3298
931.207	2971
931.311	2918
931.415	2937
931.519	2743
931.623	2788
