Data from test_V78500241_1535.txt Node
Date: Fri Mar 25 16:25:50 CST 2022
User: usil
Spectrometer: V785-0024
Trigger mode: 0
Integration Time (sec): 4.000000E-1
Scans to average: 1
Nonlinearity correction enabled: false
Boxcar width: 0
Storing dark spectrum: false
XAxis mode: Wavelengths
Number of Pixels in Spectrum: 1024
>>>>>Begin Spectral Data<<<<<
801.071	2906
801.214	2925
801.356	2880
801.499	2899
801.641	2826
801.783	2948
801.926	3077
802.068	2982
802.211	2975
802.353	3020
802.496	2971
802.638	3005
802.78	3032
802.923	3081
803.065	3028
803.208	2895
803.35	2880
803.492	2906
803.635	2925
803.777	2720
803.919	2838
804.061	3135
804.204	2956
804.346	2899
804.488	2826
804.63	2956
804.773	2872
804.915	2941
805.057	3070
805.199	2914
805.341	2944
805.483	3009
805.626	2979
805.768	2929
805.91	3070
806.052	3100
806.194	3013
806.336	3218
806.478	2986
806.62	2948
806.762	2960
806.904	3043
807.046	3135
807.188	2986
807.33	2922
807.472	2975
807.614	2861
807.756	2952
807.898	2918
808.04	2880
808.182	2963
808.324	2933
808.465	2868
808.607	2880
808.749	2796
808.891	2868
809.033	2967
809.174	2979
809.316	2872
809.458	2925
809.6	2750
809.741	2750
809.883	2758
810.025	2853
810.166	2838
810.308	2861
810.45	2849
810.591	2758
810.733	2727
810.875	2819
811.016	2777
811.158	2746
811.299	2815
811.441	2933
811.582	2944
811.724	2823
811.865	2811
812.007	2922
812.148	2891
812.29	2845
812.431	2887
812.573	2925
812.714	2967
812.855	3062
812.997	3039
813.138	3108
813.279	2998
813.421	3001
813.562	2956
813.703	2883
813.845	2887
813.986	2750
814.127	2705
814.268	2796
814.41	2804
814.551	2807
814.692	2868
814.833	2785
814.974	2864
815.115	2925
815.256	2826
815.397	2804
815.539	2849
815.68	2788
815.821	2819
815.962	2906
816.103	2906
816.244	2872
816.385	2849
816.526	2952
816.666	2891
816.807	2720
816.948	2887
817.089	2906
817.23	2849
817.371	2766
817.512	2792
817.653	2864
817.793	2796
817.934	2887
818.075	2941
818.216	2971
818.356	2994
818.497	2883
818.638	2758
818.778	2781
818.919	2788
819.06	2762
819.2	2864
819.341	2819
819.481	2811
819.622	2899
819.762	3093
819.903	3043
820.043	2948
820.184	2899
820.324	2883
820.465	2979
820.605	2979
820.746	3005
820.886	2895
821.026	3043
821.167	3119
821.307	3260
821.447	3249
821.588	3203
821.728	3230
821.868	3176
822.008	3089
822.149	3169
822.289	3199
822.429	3077
822.569	3077
822.709	3157
822.849	3013
822.99	3051
823.13	3169
823.27	3230
823.41	3081
823.55	3131
823.69	3138
823.83	3176
823.97	3089
824.11	2960
824.25	3001
824.389	3058
824.529	3089
824.669	3081
824.809	3161
824.949	3237
825.089	3214
825.228	3211
825.368	2994
825.508	2902
825.648	2956
825.787	3020
825.927	3013
826.067	2914
826.206	2971
826.346	3051
826.485	3077
826.625	3112
826.765	3310
826.904	3241
827.044	3017
827.183	2963
827.323	2876
827.462	3020
827.601	2944
827.741	2952
827.88	2956
828.02	2857
828.159	2963
828.298	3036
828.437	3157
828.577	3081
828.716	3275
828.855	3131
828.994	2937
829.134	2887
829.273	2956
829.412	2914
829.551	2887
829.69	2887
829.829	3047
829.968	3184
830.107	3017
830.246	3066
830.385	2956
830.524	2937
830.663	2868
830.802	2766
830.941	2689
831.08	2629
831.219	2804
831.357	2826
831.496	3013
831.635	2746
831.774	2693
831.913	2697
832.051	2590
832.19	2621
832.329	2724
832.467	2594
832.606	2514
832.744	2644
832.883	2629
833.022	2625
833.16	2720
833.299	2743
833.437	2724
833.576	2712
833.714	2724
833.852	2766
833.991	2769
834.129	2891
834.267	2868
834.406	2796
834.544	2895
834.682	2925
834.821	2899
834.959	3108
835.097	2922
835.235	3138
835.373	3051
835.511	3032
835.65	2994
835.788	3005
835.926	2906
836.064	2823
836.202	2861
836.34	3131
836.478	3188
836.615	3085
836.753	3131
836.891	3253
837.029	3169
837.167	3176
837.305	3108
837.443	3097
837.58	2967
837.718	3165
837.856	3077
837.993	3077
838.131	3127
838.269	3146
838.406	3116
838.544	3131
838.681	2971
838.819	2929
838.956	2849
839.094	2914
839.231	2914
839.369	3047
839.506	3378
839.643	3272
839.781	3032
839.918	3009
840.055	3074
840.193	3062
840.33	3093
840.467	3108
840.604	3184
840.742	3409
840.879	3077
841.016	3104
841.153	3108
841.29	3363
841.427	3359
841.564	3260
841.701	3332
841.838	3256
841.975	3184
842.112	3245
842.249	3077
842.385	3036
842.522	3241
842.659	3112
842.796	3097
842.933	3135
843.069	3100
843.206	3062
843.343	3241
843.479	3131
843.616	3173
843.752	2910
843.889	2914
844.025	3127
844.162	2918
844.298	3135
844.435	2994
844.571	2960
844.708	3116
844.844	3226
844.98	3272
845.117	3218
845.253	3089
845.389	3017
845.525	3100
845.661	3119
845.798	3043
845.934	3157
846.07	3104
846.206	3241
846.342	3291
846.478	3268
846.614	3104
846.75	3047
846.886	3043
847.022	3245
847.158	3180
847.294	3218
847.429	3283
847.565	3241
847.701	3492
847.837	3036
847.972	3005
848.108	3180
848.244	3169
848.379	3020
848.515	2960
848.65	2952
848.786	2990
848.921	3051
849.057	3150
849.192	3161
849.328	3089
849.463	3138
849.598	3085
849.734	3020
849.869	3020
850.004	2922
850.14	2998
850.275	2948
850.41	2876
850.545	2902
850.68	2948
850.815	3020
850.95	2982
851.085	3245
851.22	3150
851.355	3055
851.49	2979
851.625	3058
851.76	3058
851.895	2967
852.03	2982
852.165	3055
852.299	3146
852.434	3218
852.569	3116
852.703	3203
852.838	3283
852.973	3348
853.107	3363
853.242	3150
853.376	3112
853.511	3024
853.645	3077
853.78	3260
853.914	3131
854.048	3119
854.183	3127
854.317	3207
854.451	3363
854.585	3180
854.72	3089
854.854	3237
854.988	3089
855.122	3127
855.256	2982
855.39	3169
855.524	3233
855.658	3203
855.792	3173
855.926	3207
856.06	3260
856.194	3329
856.327	3169
856.461	3127
856.595	3104
856.729	3112
856.862	3253
856.996	3184
857.13	3218
857.263	3241
857.397	3287
857.53	3116
857.664	3253
857.797	3268
857.931	3264
858.064	3203
858.197	3211
858.331	3146
858.464	3135
858.597	3066
858.731	3150
858.864	3169
858.997	3081
859.13	3154
859.263	3173
859.396	3195
859.529	3108
859.662	3135
859.795	3077
859.928	3157
860.061	3291
860.194	3294
860.327	3169
860.46	3116
860.592	3253
860.725	3264
860.858	3253
860.99	3108
861.123	3070
861.256	3077
861.388	3188
861.521	3956
861.653	3028
861.786	3017
861.918	3081
862.05	3070
862.183	3161
862.315	3180
862.447	3211
862.58	3100
862.712	2986
862.844	2914
862.976	3036
863.108	3043
863.24	3363
863.372	2906
863.504	2963
863.636	2960
863.768	3077
863.9	3043
864.032	2937
864.164	2944
864.296	3032
864.428	3119
864.559	3123
864.691	3081
864.823	3089
864.954	3036
865.086	3058
865.217	3051
865.349	2982
865.48	3020
865.612	3039
865.743	3199
865.875	3009
866.006	2948
866.137	2990
866.269	2975
866.4	2937
866.531	2937
866.662	2906
866.793	2918
866.924	2918
867.055	2998
867.186	2948
867.317	2899
867.448	2864
867.579	2861
867.71	2853
867.841	2883
867.972	2937
868.103	2891
868.233	2925
868.364	2899
868.495	2937
868.625	3097
868.756	3169
868.886	2982
869.017	3043
869.147	3184
869.278	3184
869.408	3070
869.539	3070
869.669	3100
869.799	3074
869.929	3157
870.06	3150
870.19	3401
870.32	3306
870.45	3332
870.58	3393
870.71	3454
870.84	3454
870.97	3310
871.1	3283
871.23	3492
871.36	3469
871.489	3393
871.619	3401
871.749	3443
871.879	3458
872.008	3523
872.138	3389
872.267	3294
872.397	3211
872.526	3135
872.656	3055
872.785	3127
872.915	3279
873.044	3348
873.173	3207
873.303	3230
873.432	3253
873.561	3260
873.69	3150
873.819	3154
873.948	3222
874.077	3135
874.206	3081
874.335	3135
874.464	3222
874.593	3363
874.722	3264
874.851	3409
874.979	3359
875.108	3294
875.237	3192
875.365	3161
875.494	3138
875.623	3249
875.751	3123
875.88	3135
876.008	3180
876.136	3233
876.265	3386
876.393	3557
876.521	3473
876.65	3378
876.778	3351
876.906	3279
877.034	3199
877.162	3256
877.29	3180
877.418	3233
877.546	3260
877.674	3291
877.802	3256
877.93	3230
878.058	3173
878.185	3104
878.313	3218
878.441	3253
878.568	3081
878.696	3161
878.824	3253
878.951	3348
879.079	3447
879.206	3606
879.333	3420
879.461	3355
879.588	3386
879.715	3488
879.842	3633
879.97	3435
880.097	3207
880.224	3146
880.351	3226
880.478	3214
880.605	3218
880.732	3173
880.859	3496
880.986	3329
881.112	3351
881.239	3237
881.366	3104
881.493	3043
881.619	3024
881.746	3081
881.872	3112
881.999	3119
882.125	3161
882.252	3279
882.378	3310
882.505	3462
882.631	3291
882.757	3176
882.883	3203
883.01	3245
883.136	3161
883.262	3097
883.388	3108
883.514	3351
883.64	3374
883.766	3340
883.892	3199
884.018	3230
884.143	3420
884.269	3515
884.395	3218
884.52	3207
884.646	3199
884.772	3135
884.897	3146
885.023	3173
885.148	3321
885.274	3469
885.399	3401
885.524	3306
885.65	3291
885.775	3336
885.9	3287
886.025	3397
886.15	3367
886.275	3313
886.4	3218
886.525	3313
886.65	3302
886.775	3306
886.9	3523
887.025	3667
887.149	3431
887.274	3260
887.399	3169
887.523	3211
887.648	3169
887.773	3199
887.897	3355
888.021	3412
888.146	3287
888.27	3450
888.395	3549
888.519	3435
888.643	3450
888.767	3466
888.891	3351
889.015	3226
889.139	3310
889.263	3256
889.387	3481
889.511	3549
889.635	3439
889.759	3294
889.883	3313
890.006	3412
890.13	3488
890.254	3268
890.377	3340
890.501	3241
890.624	3222
890.748	3279
890.871	3176
890.995	3138
891.118	3097
891.241	3199
891.364	3253
891.488	3340
891.611	3195
891.734	3253
891.857	3291
891.98	3237
892.103	3348
892.226	3336
892.349	3222
892.471	3165
892.594	3214
892.717	3310
892.839	3302
892.962	3340
893.085	3332
893.207	3294
893.33	3165
893.452	3226
893.575	3420
893.697	3291
893.819	3462
893.941	3542
894.064	3466
894.186	3275
894.308	3283
894.43	3458
894.552	3561
894.674	3485
894.796	3325
894.918	3317
895.04	3348
895.161	3420
895.283	3409
895.405	3302
895.526	3344
895.648	3424
895.769	3428
895.891	3435
896.012	3507
896.134	3473
896.255	3389
896.376	3374
896.498	3389
896.619	3435
896.74	3332
896.861	3389
896.982	3717
897.103	3884
897.224	3629
897.345	3542
897.466	3439
897.587	3481
897.708	3610
897.828	3530
897.949	3424
898.07	3332
898.19	3367
898.311	3652
898.431	3477
898.552	3545
898.672	3580
898.792	3580
898.913	3526
899.033	3393
899.153	3306
899.273	3207
899.393	3321
899.513	3302
899.633	3344
899.753	3336
899.873	3283
899.993	3443
900.113	3325
900.232	3401
900.352	3351
900.472	3329
900.591	3180
900.711	3344
900.83	3245
900.95	3382
901.069	3488
901.189	3332
901.308	3188
901.427	3127
901.546	3203
901.665	3310
901.784	3351
901.904	3249
902.023	3188
902.141	3058
902.26	3028
902.379	3154
902.498	3100
902.617	3032
902.735	3233
902.854	3241
902.973	3226
903.091	3066
903.21	3055
903.328	3146
903.446	3150
903.565	3127
903.683	3203
903.801	3150
903.919	3279
904.038	3329
904.156	3203
904.274	3306
904.392	3275
904.51	3313
904.627	3336
904.745	3454
904.863	3507
904.981	3272
905.098	3199
905.216	3287
905.334	3313
905.451	3336
905.569	3298
905.686	3439
905.803	3454
905.921	3351
906.038	3424
906.155	3393
906.272	3306
906.389	3393
906.506	3279
906.623	3336
906.74	3306
906.857	3264
906.974	3294
907.091	3477
907.208	3606
907.324	3492
907.441	3431
907.557	3264
907.674	3287
907.79	3275
907.907	3298
908.023	3412
908.139	3397
908.256	3382
908.372	3405
908.488	3431
908.604	3302
908.72	3302
908.836	3310
908.952	3321
909.068	3393
909.184	3507
909.3	3405
909.415	3553
909.531	3519
909.647	3363
909.762	3348
909.878	3329
909.993	3405
910.108	3355
910.224	3382
910.339	3481
910.454	3424
910.57	3302
910.685	3268
910.8	3701
910.915	3564
911.03	3473
911.145	3317
911.259	3302
911.374	3359
911.489	3294
911.604	3275
911.718	3146
911.833	3195
911.947	3081
912.062	3043
912.176	3237
912.291	3245
912.405	3260
912.519	3485
912.633	3500
912.748	3374
912.862	3294
912.976	3203
913.09	3108
913.204	3157
913.318	3260
913.431	3389
913.545	3401
913.659	3443
913.772	3374
913.886	3249
914	3226
914.113	3386
914.226	3424
914.34	3382
914.453	3264
914.566	3416
914.68	3355
914.793	3340
914.906	3176
915.019	3146
915.132	3123
915.245	3233
915.358	3241
915.47	3264
915.583	3306
915.696	3348
915.809	3492
915.921	3473
916.034	3310
916.146	3313
916.259	3230
916.371	3450
916.483	3416
916.595	3351
916.708	3348
916.82	3389
916.932	3374
917.044	3363
917.156	3401
917.268	3279
917.38	3317
917.491	3313
917.603	3420
917.715	3507
917.826	3485
917.938	3424
918.049	3325
918.161	3454
918.272	3576
918.384	3576
918.495	3545
918.606	3378
918.717	3279
918.828	3412
918.939	3477
919.05	3332
919.161	3378
919.272	3203
919.383	3294
919.494	3526
919.604	3720
919.715	3515
919.826	3454
919.936	3488
920.047	3625
920.157	3542
920.267	3789
920.378	3637
920.488	3622
920.598	3827
920.708	3972
920.818	3869
920.928	3899
921.038	4040
921.148	4067
921.258	3728
921.368	3656
921.477	3595
921.587	3549
921.697	3477
921.806	3656
921.916	3549
922.025	3386
922.134	3382
922.244	3348
922.353	3462
922.462	3351
922.571	3287
922.68	3157
922.789	3116
922.898	3203
923.007	3157
923.116	3249
923.224	3199
923.333	3222
923.442	3146
923.55	3112
923.659	3165
923.767	3237
923.876	3169
923.984	3275
924.092	3127
924.201	3230
924.309	3287
924.417	3275
924.525	3214
924.633	3249
924.741	4185
924.849	3123
924.956	3310
925.064	3138
925.172	3058
925.279	3123
925.387	3241
925.494	3241
925.602	3386
925.709	3374
925.816	3195
925.924	3275
926.031	3389
926.138	3351
926.245	3401
926.352	3256
926.459	3466
926.566	3469
926.673	3355
926.779	3294
926.886	3291
926.993	3169
927.099	3146
927.206	3123
927.312	3154
927.419	3264
927.525	3268
927.631	3306
927.737	3199
927.843	3157
927.95	3047
928.056	3142
928.162	3211
928.267	3253
928.373	3812
928.479	3336
928.585	3081
928.69	3245
928.796	3294
928.901	3222
929.007	3077
929.112	3222
929.218	3192
929.323	3176
929.428	3169
929.533	3363
929.638	3138
929.743	3207
929.848	3279
929.953	3214
930.058	3154
930.163	3017
930.267	3104
930.372	3233
930.477	3077
930.581	3321
930.685	3211
930.79	3100
930.894	3154
930.998	3135
931.103	3317
931.207	2979
931.311	2998
931.415	2960
931.519	2819
931.623	2868
