Data from test_V78500241_1162.txt Node
Date: Fri Mar 25 16:23:15 CST 2022
User: usil
Spectrometer: V785-0024
Trigger mode: 0
Integration Time (sec): 4.000000E-1
Scans to average: 1
Nonlinearity correction enabled: false
Boxcar width: 0
Storing dark spectrum: false
XAxis mode: Wavelengths
Number of Pixels in Spectrum: 1024
>>>>>Begin Spectral Data<<<<<
801.071	2910
801.214	2971
801.356	2830
801.499	2910
801.641	2868
801.783	2887
801.926	3017
802.068	2986
802.211	3009
802.353	3036
802.496	2941
802.638	2963
802.78	3024
802.923	3077
803.065	2971
803.208	2868
803.35	2906
803.492	2929
803.635	2902
803.777	2758
803.919	2838
804.061	3180
804.204	2918
804.346	2906
804.488	2834
804.63	2982
804.773	2868
804.915	2876
805.057	3116
805.199	2925
805.341	2986
805.483	3020
805.626	2998
805.768	2948
805.91	3062
806.052	3089
806.194	3051
806.336	3203
806.478	3020
806.62	2937
806.762	2956
806.904	3017
807.046	3207
807.188	2979
807.33	2895
807.472	2971
807.614	2922
807.756	2971
807.898	2910
808.04	2899
808.182	2998
808.324	2963
808.465	2857
808.607	2914
808.749	2785
808.891	2819
809.033	2986
809.174	2937
809.316	2800
809.458	2895
809.6	2758
809.741	2766
809.883	2792
810.025	2845
810.166	2842
810.308	2830
810.45	2849
810.591	2762
810.733	2750
810.875	2826
811.016	2762
811.158	2758
811.299	2769
811.441	2929
811.582	2899
811.724	2792
811.865	2830
812.007	2876
812.148	2902
812.29	2842
812.431	2883
812.573	2944
812.714	2937
812.855	3043
812.997	3062
813.138	3108
813.279	3001
813.421	2982
813.562	2967
813.703	2872
813.845	2842
813.986	2773
814.127	2720
814.268	2815
814.41	2838
814.551	2800
814.692	2868
814.833	2792
814.974	2883
815.115	2952
815.256	2811
815.397	2796
815.539	2853
815.68	2758
815.821	2773
815.962	2929
816.103	2902
816.244	2868
816.385	2868
816.526	2967
816.666	2914
816.807	2746
816.948	2861
817.089	2891
817.23	2849
817.371	2796
817.512	2815
817.653	2804
817.793	2777
817.934	2845
818.075	2979
818.216	3024
818.356	3001
818.497	2887
818.638	2800
818.778	2811
818.919	2804
819.06	2758
819.2	2902
819.341	2819
819.481	2823
819.622	2937
819.762	3100
819.903	3047
820.043	2929
820.184	2910
820.324	2891
820.465	3001
820.605	2937
820.746	3024
820.886	2925
821.026	3119
821.167	3131
821.307	3222
821.447	3272
821.588	3195
821.728	3184
821.868	3203
822.008	3055
822.149	3161
822.289	3218
822.429	3074
822.569	3077
822.709	3207
822.849	3039
822.99	3062
823.13	3131
823.27	3195
823.41	3127
823.55	3146
823.69	3142
823.83	3165
823.97	3055
824.11	2979
824.25	2967
824.389	3058
824.529	3085
824.669	3043
824.809	3195
824.949	3188
825.089	3253
825.228	3131
825.368	3001
825.508	2956
825.648	2956
825.787	2998
825.927	3032
826.067	3013
826.206	2918
826.346	3032
826.485	3062
826.625	3108
826.765	3249
826.904	3222
827.044	2982
827.183	2922
827.323	2872
827.462	2960
827.601	2902
827.741	2910
827.88	2941
828.02	2823
828.159	2963
828.298	3017
828.437	3116
828.577	3039
828.716	3237
828.855	3081
828.994	2910
829.134	2891
829.273	2925
829.412	2845
829.551	2868
829.69	2914
829.829	2990
829.968	3097
830.107	3032
830.246	3020
830.385	2887
830.524	2868
830.663	2819
830.802	2697
830.941	2640
831.08	2648
831.219	2712
831.357	2766
831.496	2982
831.635	2720
831.774	2651
831.913	2648
832.051	2556
832.19	2583
832.329	2678
832.467	2549
832.606	2476
832.744	2541
832.883	2556
833.022	2564
833.16	2667
833.299	2701
833.437	2667
833.576	2678
833.714	2735
833.852	2773
833.991	2750
834.129	2811
834.267	2815
834.406	2758
834.544	2861
834.682	2849
834.821	2838
834.959	3051
835.097	2910
835.235	3047
835.373	2963
835.511	3047
835.65	2933
835.788	2933
835.926	2826
836.064	2796
836.202	2845
836.34	3119
836.478	3169
836.615	3028
836.753	3157
836.891	3188
837.029	3154
837.167	3116
837.305	3036
837.443	3093
837.58	2979
837.718	3127
837.856	3074
837.993	3013
838.131	3116
838.269	3100
838.406	3093
838.544	3089
838.681	2910
838.819	2902
838.956	2796
839.094	2826
839.231	2914
839.369	2998
839.506	3389
839.643	3203
839.781	3005
839.918	2975
840.055	3047
840.193	3020
840.33	3051
840.467	3100
840.604	3100
840.742	3416
840.879	3036
841.016	3058
841.153	3142
841.29	3321
841.427	3302
841.564	3214
841.701	3329
841.838	3176
841.975	3169
842.112	3192
842.249	3028
842.385	3036
842.522	3310
842.659	3051
842.796	3043
842.933	3089
843.069	3017
843.206	3024
843.343	3184
843.479	3100
843.616	3142
843.752	2891
843.889	2853
844.025	3089
844.162	2868
844.298	3028
844.435	2941
844.571	2883
844.708	3093
844.844	3180
844.98	3249
845.117	3192
845.253	2998
845.389	3013
845.525	3051
845.661	3085
845.798	3028
845.934	3093
846.07	3066
846.206	3237
846.342	3298
846.478	3233
846.614	3074
846.75	3036
846.886	3051
847.022	3230
847.158	3138
847.294	3188
847.429	3241
847.565	3211
847.701	3473
847.837	3024
847.972	2982
848.108	3104
848.244	3116
848.379	2956
848.515	2952
848.65	2910
848.786	2960
848.921	3013
849.057	3100
849.192	3138
849.328	3085
849.463	3116
849.598	3024
849.734	3001
849.869	2982
850.004	2922
850.14	2948
850.275	2876
850.41	2842
850.545	2891
850.68	2937
850.815	2933
850.95	2948
851.085	3207
851.22	3081
851.355	3028
851.49	2971
851.625	2982
851.76	3032
851.895	2937
852.03	2929
852.165	2994
852.299	3093
852.434	3199
852.569	3135
852.703	3161
852.838	3249
852.973	3294
853.107	3275
853.242	3123
853.376	3097
853.511	2933
853.645	3001
853.78	3233
853.914	3089
854.048	3104
854.183	3043
854.317	3146
854.451	3298
854.585	3104
854.72	3074
854.854	3184
854.988	3024
855.122	3100
855.256	2948
855.39	3108
855.524	3260
855.658	3169
855.792	3131
855.926	3192
856.06	3203
856.194	3275
856.327	3161
856.461	3089
856.595	3085
856.729	3062
856.862	3230
856.996	3165
857.13	3161
857.263	3207
857.397	3329
857.53	3119
857.664	3237
857.797	3245
857.931	3222
858.064	3142
858.197	3211
858.331	3119
858.464	3108
858.597	2982
858.731	3089
858.864	3142
858.997	3070
859.13	3150
859.263	3169
859.396	3233
859.529	3047
859.662	3116
859.795	3020
859.928	3135
860.061	3249
860.194	3279
860.327	3154
860.46	3077
860.592	3199
860.725	3230
860.858	3268
860.99	3051
861.123	3077
861.256	3055
861.388	3142
861.521	3694
861.653	3013
861.786	2971
861.918	2979
862.05	3074
862.183	3138
862.315	3165
862.447	3195
862.58	3047
862.712	2952
862.844	2842
862.976	3020
863.108	3001
863.24	3344
863.372	2883
863.504	2963
863.636	2941
863.768	3036
863.9	2960
864.032	2880
864.164	2952
864.296	3009
864.428	3074
864.559	3119
864.691	3047
864.823	3028
864.954	3028
865.086	3020
865.217	2982
865.349	2956
865.48	2963
865.612	3013
865.743	3135
865.875	3009
866.006	2960
866.137	2967
866.269	2937
866.4	2937
866.531	2914
866.662	2902
866.793	2880
866.924	2876
867.055	2952
867.186	2922
867.317	2842
867.448	2830
867.579	2834
867.71	2849
867.841	2838
867.972	2861
868.103	2899
868.233	2876
868.364	2842
868.495	2910
868.625	3055
868.756	3146
868.886	2937
869.017	3036
869.147	3146
869.278	3138
869.408	3039
869.539	3024
869.669	3116
869.799	3017
869.929	3104
870.06	3131
870.19	3275
870.32	3272
870.45	3329
870.58	3389
870.71	3412
870.84	3420
870.97	3264
871.1	3226
871.23	3481
871.36	3454
871.489	3348
871.619	3393
871.749	3386
871.879	3428
872.008	3447
872.138	3359
872.267	3237
872.397	3176
872.526	3062
872.656	3005
872.785	3112
872.915	3245
873.044	3317
873.173	3211
873.303	3268
873.432	3245
873.561	3268
873.69	3135
873.819	3104
873.948	3195
874.077	3089
874.206	3051
874.335	3100
874.464	3222
874.593	3355
874.722	3203
874.851	3439
874.979	3329
875.108	3321
875.237	3154
875.365	3127
875.494	3169
875.623	3222
875.751	3077
875.88	3097
876.008	3184
876.136	3222
876.265	3351
876.393	3530
876.521	3389
876.65	3378
876.778	3348
876.906	3241
877.034	3203
877.162	3207
877.29	3180
877.418	3268
877.546	3253
877.674	3192
877.802	3249
877.93	3249
878.058	3150
878.185	3077
878.313	3233
878.441	3211
878.568	3051
878.696	3138
878.824	3233
878.951	3302
879.079	3412
879.206	3625
879.333	3443
879.461	3283
879.588	3340
879.715	3481
879.842	3580
879.97	3370
880.097	3161
880.224	3119
880.351	3173
880.478	3157
880.605	3207
880.732	3184
880.859	3481
880.986	3313
881.112	3306
881.239	3188
881.366	3070
881.493	3020
881.619	2982
881.746	3058
881.872	3062
881.999	3081
882.125	3150
882.252	3256
882.378	3268
882.505	3416
882.631	3287
882.757	3150
882.883	3218
883.01	3211
883.136	3157
883.262	3081
883.388	3100
883.514	3325
883.64	3378
883.766	3294
883.892	3169
884.018	3203
884.143	3420
884.269	3572
884.395	3203
884.52	3123
884.646	3184
884.772	3089
884.897	3047
885.023	3214
885.148	3332
885.274	3409
885.399	3359
885.524	3279
885.65	3245
885.775	3321
885.9	3253
886.025	3386
886.15	3378
886.275	3302
886.4	3222
886.525	3329
886.65	3264
886.775	3256
886.9	3492
887.025	3618
887.149	3412
887.274	3237
887.399	3131
887.523	3218
887.648	3165
887.773	3211
887.897	3370
888.021	3382
888.146	3256
888.27	3435
888.395	3519
888.519	3431
888.643	3454
888.767	3428
888.891	3332
889.015	3199
889.139	3253
889.263	3222
889.387	3382
889.511	3481
889.635	3439
889.759	3291
889.883	3317
890.006	3363
890.13	3454
890.254	3260
890.377	3313
890.501	3169
890.624	3154
890.748	3287
890.871	3203
890.995	3093
891.118	3051
891.241	3173
891.364	3180
891.488	3325
891.611	3154
891.734	3230
891.857	3260
891.98	3222
892.103	3344
892.226	3241
892.349	3214
892.471	3085
892.594	3188
892.717	3279
892.839	3253
892.962	3313
893.085	3359
893.207	3306
893.33	3176
893.452	3199
893.575	3329
893.697	3222
893.819	3466
893.941	3507
894.064	3405
894.186	3226
894.308	3249
894.43	3447
894.552	3530
894.674	3469
894.796	3279
894.918	3287
895.04	3264
895.161	3405
895.283	3378
895.405	3336
895.526	3363
895.648	3420
895.769	3409
895.891	3409
896.012	3454
896.134	3443
896.255	3370
896.376	3367
896.498	3359
896.619	3405
896.74	3351
896.861	3332
896.982	3701
897.103	3838
897.224	3542
897.345	3481
897.466	3443
897.587	3473
897.708	3637
897.828	3534
897.949	3409
898.07	3344
898.19	3409
898.311	3587
898.431	3409
898.552	3534
898.672	3561
898.792	3576
898.913	3507
899.033	3409
899.153	3249
899.273	3203
899.393	3256
899.513	3279
899.633	3291
899.753	3317
899.873	3340
899.993	3355
900.113	3321
900.232	3409
900.352	3363
900.472	3264
900.591	3226
900.711	3264
900.83	3233
900.95	3424
901.069	3462
901.189	3321
901.308	3176
901.427	3146
901.546	3176
901.665	3302
901.784	3317
901.904	3218
902.023	3138
902.141	3028
902.26	2998
902.379	3157
902.498	3097
902.617	3055
902.735	3214
902.854	3199
902.973	3237
903.091	3070
903.21	3047
903.328	3146
903.446	3081
903.565	3104
903.683	3207
903.801	3093
903.919	3211
904.038	3310
904.156	3150
904.274	3264
904.392	3264
904.51	3302
904.627	3329
904.745	3393
904.863	3428
904.981	3249
905.098	3169
905.216	3199
905.334	3302
905.451	3302
905.569	3340
905.686	3412
905.803	3450
905.921	3325
906.038	3412
906.155	3374
906.272	3260
906.389	3313
906.506	3218
906.623	3291
906.74	3291
906.857	3192
906.974	3226
907.091	3443
907.208	3526
907.324	3420
907.441	3348
907.557	3199
907.674	3214
907.79	3157
907.907	3241
908.023	3355
908.139	3359
908.256	3336
908.372	3378
908.488	3348
908.604	3230
908.72	3253
908.836	3294
908.952	3245
909.068	3298
909.184	3466
909.3	3363
909.415	3469
909.531	3447
909.647	3241
909.762	3279
909.878	3237
909.993	3344
910.108	3317
910.224	3321
910.339	3374
910.454	3329
910.57	3291
910.685	3245
910.8	3591
910.915	3534
911.03	3393
911.145	3249
911.259	3275
911.374	3272
911.489	3230
911.604	3184
911.718	3104
911.833	3142
911.947	3013
912.062	2971
912.176	3146
912.291	3233
912.405	3203
912.519	3401
912.633	3450
912.748	3374
912.862	3279
912.976	3150
913.09	3024
913.204	3138
913.318	3218
913.431	3298
913.545	3302
913.659	3401
913.772	3313
913.886	3203
914	3176
914.113	3340
914.226	3393
914.34	3340
914.453	3214
914.566	3439
914.68	3294
914.793	3310
914.906	3165
915.019	3131
915.132	3043
915.245	3180
915.358	3211
915.47	3249
915.583	3283
915.696	3302
915.809	3447
915.921	3420
916.034	3283
916.146	3241
916.259	3283
916.371	3409
916.483	3370
916.595	3264
916.708	3401
916.82	3348
916.932	3359
917.044	3389
917.156	3412
917.268	3249
917.38	3351
917.491	3329
917.603	3351
917.715	3500
917.826	3481
917.938	3401
918.049	3302
918.161	3466
918.272	3618
918.384	3603
918.495	3545
918.606	3351
918.717	3313
918.828	3416
918.939	3466
919.05	3348
919.161	3412
919.272	3218
919.383	3294
919.494	3530
919.604	3736
919.715	3496
919.826	3443
919.936	3504
920.047	3606
920.157	3564
920.267	3797
920.378	3625
920.488	3618
920.598	3812
920.708	3960
920.818	3854
920.928	3880
921.038	4109
921.148	4067
921.258	3698
921.368	3724
921.477	3694
921.587	3572
921.697	3496
921.806	3679
921.916	3545
922.025	3458
922.134	3420
922.244	3351
922.353	3450
922.462	3287
922.571	3275
922.68	3146
922.789	3112
922.898	3169
923.007	3119
923.116	3207
923.224	3207
923.333	3199
923.442	3142
923.55	3100
923.659	3230
923.767	3222
923.876	3157
923.984	3275
924.092	3142
924.201	3218
924.309	3241
924.417	3283
924.525	3226
924.633	3287
924.741	4006
924.849	3085
924.956	3344
925.064	3138
925.172	3085
925.279	3104
925.387	3237
925.494	3233
925.602	3351
925.709	3332
925.816	3218
925.924	3313
926.031	3401
926.138	3340
926.245	3389
926.352	3275
926.459	3481
926.566	3515
926.673	3340
926.779	3294
926.886	3279
926.993	3184
927.099	3161
927.206	3131
927.312	3146
927.419	3256
927.525	3230
927.631	3291
927.737	3146
927.843	3161
927.95	3070
928.056	3180
928.162	3199
928.267	3249
928.373	3892
928.479	3329
928.585	3127
928.69	3245
928.796	3287
928.901	3214
929.007	3077
929.112	3226
929.218	3222
929.323	3142
929.428	3199
929.533	3370
929.638	3154
929.743	3199
929.848	3256
929.953	3226
930.058	3188
930.163	3024
930.267	3066
930.372	3230
930.477	3043
930.581	3363
930.685	3184
930.79	3077
930.894	3154
930.998	3097
931.103	3298
931.207	3017
931.311	2948
931.415	2944
931.519	2796
931.623	2853
