Data from test_V78500241_1371.txt Node
Date: Fri Mar 25 16:24:42 CST 2022
User: usil
Spectrometer: V785-0024
Trigger mode: 0
Integration Time (sec): 4.000000E-1
Scans to average: 1
Nonlinearity correction enabled: false
Boxcar width: 0
Storing dark spectrum: false
XAxis mode: Wavelengths
Number of Pixels in Spectrum: 1024
>>>>>Begin Spectral Data<<<<<
801.071	2899
801.214	2956
801.356	2864
801.499	2883
801.641	2857
801.783	2891
801.926	3066
802.068	2979
802.211	2975
802.353	2979
802.496	2956
802.638	3017
802.78	3013
802.923	3085
803.065	2956
803.208	2872
803.35	2918
803.492	2906
803.635	2933
803.777	2804
803.919	2842
804.061	3192
804.204	2933
804.346	2902
804.488	2845
804.63	2963
804.773	2876
804.915	2883
805.057	3066
805.199	2918
805.341	2967
805.483	3055
805.626	2975
805.768	2975
805.91	3058
806.052	3150
806.194	3070
806.336	3233
806.478	3024
806.62	2914
806.762	2982
806.904	3085
807.046	3112
807.188	2975
807.33	2910
807.472	3020
807.614	2861
807.756	2982
807.898	2937
808.04	2899
808.182	2963
808.324	2922
808.465	2857
808.607	2880
808.749	2785
808.891	2838
809.033	2960
809.174	2952
809.316	2868
809.458	2880
809.6	2773
809.741	2743
809.883	2739
810.025	2815
810.166	2868
810.308	2861
810.45	2861
810.591	2777
810.733	2781
810.875	2819
811.016	2800
811.158	2727
811.299	2815
811.441	2941
811.582	2880
811.724	2823
811.865	2792
812.007	2895
812.148	2883
812.29	2842
812.431	2868
812.573	2925
812.714	2979
812.855	3043
812.997	3017
813.138	3081
813.279	2982
813.421	2979
813.562	2963
813.703	2864
813.845	2864
813.986	2773
814.127	2754
814.268	2807
814.41	2838
814.551	2830
814.692	2872
814.833	2830
814.974	2868
815.115	2952
815.256	2815
815.397	2807
815.539	2868
815.68	2754
815.821	2750
815.962	2902
816.103	2922
816.244	2880
816.385	2872
816.526	2956
816.666	2899
816.807	2735
816.948	2906
817.089	2910
817.23	2857
817.371	2777
817.512	2773
817.653	2838
817.793	2838
817.934	2830
818.075	2918
818.216	3013
818.356	3028
818.497	2876
818.638	2769
818.778	2826
818.919	2800
819.06	2758
819.2	2906
819.341	2811
819.481	2800
819.622	2929
819.762	3062
819.903	3047
820.043	2918
820.184	2906
820.324	2872
820.465	3036
820.605	3024
820.746	2979
820.886	2918
821.026	3089
821.167	3157
821.307	3233
821.447	3268
821.588	3260
821.728	3161
821.868	3218
822.008	3039
822.149	3184
822.289	3226
822.429	3104
822.569	3070
822.709	3161
822.849	3005
822.99	3070
823.13	3150
823.27	3199
823.41	3100
823.55	3184
823.69	3150
823.83	3203
823.97	3081
824.11	2971
824.25	2971
824.389	3039
824.529	3112
824.669	3066
824.809	3222
824.949	3256
825.089	3199
825.228	3176
825.368	3017
825.508	2925
825.648	2952
825.787	3028
825.927	3013
826.067	2956
826.206	2967
826.346	3055
826.485	3051
826.625	3135
826.765	3249
826.904	3207
827.044	3009
827.183	2906
827.323	2883
827.462	2975
827.601	2918
827.741	2910
827.88	2956
828.02	2807
828.159	2982
828.298	3024
828.437	3104
828.577	2963
828.716	3233
828.855	3051
828.994	2887
829.134	2876
829.273	2906
829.412	2857
829.551	2880
829.69	2876
829.829	2979
829.968	3081
830.107	3005
830.246	3013
830.385	2929
830.524	2845
830.663	2788
830.802	2724
830.941	2648
831.08	2663
831.219	2750
831.357	2781
831.496	2956
831.635	2689
831.774	2667
831.913	2644
832.051	2560
832.19	2568
832.329	2663
832.467	2541
832.606	2488
832.744	2583
832.883	2625
833.022	2598
833.16	2659
833.299	2697
833.437	2636
833.576	2716
833.714	2701
833.852	2712
833.991	2750
834.129	2804
834.267	2807
834.406	2785
834.544	2868
834.682	2872
834.821	2853
834.959	3085
835.097	2902
835.235	3047
835.373	2986
835.511	3043
835.65	2944
835.788	2944
835.926	2842
836.064	2785
836.202	2815
836.34	3074
836.478	3127
836.615	3024
836.753	3108
836.891	3169
837.029	3150
837.167	3085
837.305	3051
837.443	3047
837.58	2918
837.718	3119
837.856	3036
837.993	3020
838.131	3074
838.269	3093
838.406	3085
838.544	3081
838.681	2944
838.819	2910
838.956	2796
839.094	2819
839.231	2929
839.369	3001
839.506	3382
839.643	3226
839.781	2998
839.918	2979
840.055	3039
840.193	3051
840.33	3066
840.467	3062
840.604	3138
840.742	3401
840.879	3036
841.016	3051
841.153	3089
841.29	3272
841.427	3298
841.564	3275
841.701	3313
841.838	3211
841.975	3142
842.112	3203
842.249	3051
842.385	3036
842.522	3211
842.659	3085
842.796	3070
842.933	3108
843.069	3020
843.206	3039
843.343	3199
843.479	3077
843.616	3116
843.752	2872
843.889	2838
844.025	3077
844.162	2845
844.298	3028
844.435	2906
844.571	2880
844.708	3051
844.844	3157
844.98	3214
845.117	3188
845.253	3043
845.389	3013
845.525	3077
845.661	3085
845.798	2979
845.934	3116
846.07	3070
846.206	3199
846.342	3313
846.478	3211
846.614	3085
846.75	3032
846.886	3017
847.022	3268
847.158	3119
847.294	3184
847.429	3233
847.565	3195
847.701	3485
847.837	3039
847.972	2967
848.108	3116
848.244	3131
848.379	2960
848.515	2914
848.65	2902
848.786	2952
848.921	2982
849.057	3089
849.192	3161
849.328	3032
849.463	3123
849.598	3074
849.734	3005
849.869	2971
850.004	2914
850.14	2941
850.275	2914
850.41	2796
850.545	2880
850.68	2941
850.815	2948
850.95	2944
851.085	3195
851.22	3085
851.355	2998
851.49	2967
851.625	2979
851.76	2990
851.895	2914
852.03	2918
852.165	3017
852.299	3100
852.434	3176
852.569	3112
852.703	3165
852.838	3279
852.973	3275
853.107	3302
853.242	3116
853.376	3081
853.511	2975
853.645	2998
853.78	3230
853.914	3104
854.048	3074
854.183	3070
854.317	3138
854.451	3287
854.585	3123
854.72	3074
854.854	3203
854.988	2994
855.122	3097
855.256	2960
855.39	3089
855.524	3249
855.658	3127
855.792	3169
855.926	3195
856.06	3184
856.194	3245
856.327	3173
856.461	3047
856.595	3070
856.729	3051
856.862	3173
856.996	3161
857.13	3199
857.263	3199
857.397	3256
857.53	3154
857.664	3222
857.797	3230
857.931	3268
858.064	3146
858.197	3192
858.331	3127
858.464	3070
858.597	3028
858.731	3138
858.864	3112
858.997	3085
859.13	3188
859.263	3161
859.396	3195
859.529	3108
859.662	3100
859.795	3097
859.928	3135
860.061	3279
860.194	3298
860.327	3169
860.46	3123
860.592	3245
860.725	3260
860.858	3298
860.99	3135
861.123	3043
861.256	3051
861.388	3165
861.521	3789
861.653	3047
861.786	2994
861.918	3032
862.05	3100
862.183	3119
862.315	3176
862.447	3207
862.58	3135
862.712	2948
862.844	2895
862.976	3055
863.108	3039
863.24	3378
863.372	2880
863.504	2979
863.636	2982
863.768	3062
863.9	2998
864.032	2948
864.164	2979
864.296	3055
864.428	3142
864.559	3097
864.691	3104
864.823	3127
864.954	3100
865.086	3036
865.217	3005
865.349	2982
865.48	3036
865.612	3070
865.743	3192
865.875	3001
866.006	2952
866.137	3058
866.269	3005
866.4	2986
866.531	2975
866.662	2918
866.793	2960
866.924	2906
867.055	2982
867.186	2998
867.317	2929
867.448	2845
867.579	2868
867.71	2883
867.841	2845
867.972	2963
868.103	2914
868.233	2922
868.364	2887
868.495	2952
868.625	3085
868.756	3188
868.886	3036
869.017	3085
869.147	3218
869.278	3230
869.408	3108
869.539	3066
869.669	3142
869.799	3062
869.929	3176
870.06	3154
870.19	3351
870.32	3310
870.45	3310
870.58	3424
870.71	3488
870.84	3481
870.97	3336
871.1	3264
871.23	3477
871.36	3519
871.489	3389
871.619	3393
871.749	3447
871.879	3485
872.008	3500
872.138	3393
872.267	3298
872.397	3199
872.526	3116
872.656	3051
872.785	3108
872.915	3294
873.044	3332
873.173	3275
873.303	3264
873.432	3298
873.561	3291
873.69	3176
873.819	3169
873.948	3192
874.077	3119
874.206	3066
874.335	3100
874.464	3233
874.593	3386
874.722	3203
874.851	3454
874.979	3355
875.108	3340
875.237	3207
875.365	3188
875.494	3199
875.623	3279
875.751	3085
875.88	3119
876.008	3264
876.136	3241
876.265	3405
876.393	3549
876.521	3450
876.65	3428
876.778	3355
876.906	3256
877.034	3211
877.162	3268
877.29	3211
877.418	3291
877.546	3272
877.674	3313
877.802	3283
877.93	3230
878.058	3169
878.185	3150
878.313	3233
878.441	3256
878.568	3074
878.696	3203
878.824	3268
878.951	3321
879.079	3488
879.206	3644
879.333	3496
879.461	3374
879.588	3367
879.715	3496
879.842	3648
879.97	3367
880.097	3173
880.224	3154
880.351	3195
880.478	3260
880.605	3222
880.732	3184
880.859	3523
880.986	3340
881.112	3336
881.239	3222
881.366	3112
881.493	3116
881.619	3062
881.746	3119
881.872	3142
881.999	3123
882.125	3195
882.252	3283
882.378	3294
882.505	3431
882.631	3302
882.757	3207
882.883	3226
883.01	3256
883.136	3195
883.262	3142
883.388	3123
883.514	3344
883.64	3344
883.766	3325
883.892	3218
884.018	3237
884.143	3435
884.269	3564
884.395	3233
884.52	3169
884.646	3184
884.772	3150
884.897	3154
885.023	3195
885.148	3393
885.274	3443
885.399	3382
885.524	3294
885.65	3287
885.775	3336
885.9	3306
886.025	3424
886.15	3409
886.275	3313
886.4	3264
886.525	3275
886.65	3325
886.775	3310
886.9	3507
887.025	3675
887.149	3428
887.274	3264
887.399	3169
887.523	3218
887.648	3214
887.773	3245
887.897	3401
888.021	3431
888.146	3336
888.27	3481
888.395	3530
888.519	3439
888.643	3462
888.767	3454
888.891	3325
889.015	3253
889.139	3321
889.263	3264
889.387	3397
889.511	3530
889.635	3488
889.759	3329
889.883	3317
890.006	3439
890.13	3534
890.254	3306
890.377	3332
890.501	3222
890.624	3245
890.748	3340
890.871	3222
890.995	3142
891.118	3089
891.241	3237
891.364	3275
891.488	3355
891.611	3226
891.734	3245
891.857	3317
891.98	3260
892.103	3355
892.226	3313
892.349	3233
892.471	3112
892.594	3275
892.717	3321
892.839	3336
892.962	3272
893.085	3393
893.207	3287
893.33	3184
893.452	3253
893.575	3344
893.697	3256
893.819	3447
893.941	3511
894.064	3458
894.186	3291
894.308	3325
894.43	3469
894.552	3599
894.674	3500
894.796	3294
894.918	3340
895.04	3294
895.161	3443
895.283	3428
895.405	3306
895.526	3367
895.648	3450
895.769	3435
895.891	3443
896.012	3477
896.134	3447
896.255	3435
896.376	3405
896.498	3332
896.619	3435
896.74	3370
896.861	3450
896.982	3701
897.103	3869
897.224	3603
897.345	3504
897.466	3477
897.587	3511
897.708	3663
897.828	3599
897.949	3458
898.07	3355
898.19	3420
898.311	3610
898.431	3481
898.552	3511
898.672	3606
898.792	3614
898.913	3492
899.033	3420
899.153	3351
899.273	3222
899.393	3313
899.513	3351
899.633	3363
899.753	3340
899.873	3351
899.993	3378
900.113	3367
900.232	3393
900.352	3348
900.472	3321
900.591	3249
900.711	3325
900.83	3287
900.95	3412
901.069	3500
901.189	3367
901.308	3161
901.427	3157
901.546	3211
901.665	3298
901.784	3336
901.904	3241
902.023	3146
902.141	3028
902.26	3009
902.379	3146
902.498	3127
902.617	3097
902.735	3218
902.854	3245
902.973	3230
903.091	3055
903.21	3081
903.328	3169
903.446	3142
903.565	3138
903.683	3222
903.801	3146
903.919	3264
904.038	3313
904.156	3169
904.274	3302
904.392	3302
904.51	3302
904.627	3401
904.745	3469
904.863	3504
904.981	3279
905.098	3211
905.216	3245
905.334	3291
905.451	3374
905.569	3313
905.686	3466
905.803	3443
905.921	3302
906.038	3431
906.155	3359
906.272	3287
906.389	3363
906.506	3256
906.623	3256
906.74	3310
906.857	3180
906.974	3294
907.091	3435
907.208	3599
907.324	3496
907.441	3374
907.557	3230
907.674	3302
907.79	3245
907.907	3283
908.023	3370
908.139	3389
908.256	3336
908.372	3409
908.488	3370
908.604	3283
908.72	3237
908.836	3272
908.952	3317
909.068	3359
909.184	3496
909.3	3389
909.415	3545
909.531	3454
909.647	3329
909.762	3340
909.878	3291
909.993	3367
910.108	3313
910.224	3378
910.339	3466
910.454	3348
910.57	3325
910.685	3298
910.8	3595
910.915	3526
911.03	3481
911.145	3321
911.259	3298
911.374	3332
911.489	3253
911.604	3241
911.718	3100
911.833	3226
911.947	3009
912.062	3024
912.176	3184
912.291	3214
912.405	3268
912.519	3469
912.633	3435
912.748	3367
912.862	3253
912.976	3192
913.09	3058
913.204	3169
913.318	3211
913.431	3363
913.545	3313
913.659	3401
913.772	3351
913.886	3222
914	3218
914.113	3367
914.226	3439
914.34	3389
914.453	3233
914.566	3447
914.68	3306
914.793	3298
914.906	3142
915.019	3123
915.132	3039
915.245	3237
915.358	3226
915.47	3245
915.583	3287
915.696	3348
915.809	3412
915.921	3454
916.034	3249
916.146	3237
916.259	3241
916.371	3374
916.483	3374
916.595	3306
916.708	3351
916.82	3367
916.932	3378
917.044	3367
917.156	3370
917.268	3253
917.38	3325
917.491	3275
917.603	3389
917.715	3488
917.826	3469
917.938	3340
918.049	3332
918.161	3462
918.272	3568
918.384	3584
918.495	3488
918.606	3317
918.717	3302
918.828	3401
918.939	3469
919.05	3325
919.161	3386
919.272	3173
919.383	3306
919.494	3507
919.604	3690
919.715	3523
919.826	3401
919.936	3431
920.047	3603
920.157	3545
920.267	3789
920.378	3618
920.488	3580
920.598	3827
920.708	3979
920.818	3831
920.928	3865
921.038	4044
921.148	3983
921.258	3698
921.368	3663
921.477	3591
921.587	3549
921.697	3466
921.806	3629
921.916	3507
922.025	3389
922.134	3363
922.244	3329
922.353	3454
922.462	3241
922.571	3237
922.68	3112
922.789	3074
922.898	3184
923.007	3085
923.116	3173
923.224	3161
923.333	3195
923.442	3074
923.55	3116
923.659	3188
923.767	3233
923.876	3123
923.984	3249
924.092	3135
924.201	3226
924.309	3207
924.417	3291
924.525	3180
924.633	3291
924.741	3994
924.849	3077
924.956	3279
925.064	3081
925.172	3032
925.279	3119
925.387	3180
925.494	3207
925.602	3397
925.709	3393
925.816	3253
925.924	3317
926.031	3416
926.138	3370
926.245	3367
926.352	3287
926.459	3439
926.566	3507
926.673	3344
926.779	3260
926.886	3298
926.993	3195
927.099	3138
927.206	3173
927.312	3173
927.419	3249
927.525	3211
927.631	3329
927.737	3176
927.843	3138
927.95	3077
928.056	3184
928.162	3222
928.267	3298
928.373	3949
928.479	3340
928.585	3135
928.69	3241
928.796	3344
928.901	3241
929.007	3116
929.112	3241
929.218	3245
929.323	3222
929.428	3222
929.533	3329
929.638	3180
929.743	3237
929.848	3268
929.953	3237
930.058	3199
930.163	3013
930.267	3089
930.372	3249
930.477	3093
930.581	3363
930.685	3211
930.79	3081
930.894	3192
930.998	3150
931.103	3332
931.207	3009
931.311	2979
931.415	2944
931.519	2842
931.623	2857
