Data from test_V78500241_525.txt Node
Date: Fri Mar 25 16:18:50 CST 2022
User: usil
Spectrometer: V785-0024
Trigger mode: 0
Integration Time (sec): 4.000000E-1
Scans to average: 1
Nonlinearity correction enabled: false
Boxcar width: 0
Storing dark spectrum: false
XAxis mode: Wavelengths
Number of Pixels in Spectrum: 1024
>>>>>Begin Spectral Data<<<<<
801.071	2906
801.214	2933
801.356	2868
801.499	2880
801.641	2853
801.783	2899
801.926	3039
802.068	2986
802.211	2990
802.353	3024
802.496	2963
802.638	3005
802.78	3024
802.923	3074
803.065	3017
803.208	2910
803.35	2876
803.492	2925
803.635	2899
803.777	2773
803.919	2864
804.061	3207
804.204	2963
804.346	2868
804.488	2849
804.63	2979
804.773	2876
804.915	2910
805.057	3085
805.199	2944
805.341	2994
805.483	3024
805.626	2990
805.768	2941
805.91	3070
806.052	3116
806.194	3009
806.336	3199
806.478	3013
806.62	2948
806.762	2929
806.904	3058
807.046	3184
807.188	2933
807.33	2925
807.472	2986
807.614	2864
807.756	2975
807.898	2887
808.04	2819
808.182	2982
808.324	2914
808.465	2906
808.607	2853
808.749	2796
808.891	2849
809.033	2986
809.174	2998
809.316	2887
809.458	2864
809.6	2777
809.741	2766
809.883	2781
810.025	2887
810.166	2861
810.308	2834
810.45	2857
810.591	2750
810.733	2777
810.875	2819
811.016	2766
811.158	2758
811.299	2819
811.441	2872
811.582	2849
811.724	2804
811.865	2861
812.007	2883
812.148	2845
812.29	2845
812.431	2868
812.573	2929
812.714	2971
812.855	3024
812.997	3070
813.138	3150
813.279	3009
813.421	2967
813.562	2952
813.703	2857
813.845	2880
813.986	2754
814.127	2750
814.268	2823
814.41	2868
814.551	2815
814.692	2872
814.833	2853
814.974	2895
815.115	2960
815.256	2830
815.397	2769
815.539	2883
815.68	2781
815.821	2800
815.962	2902
816.103	2933
816.244	2830
816.385	2834
816.526	2948
816.666	2922
816.807	2724
816.948	2872
817.089	2933
817.23	2834
817.371	2804
817.512	2746
817.653	2834
817.793	2826
817.934	2849
818.075	2944
818.216	3017
818.356	3020
818.497	2899
818.638	2819
818.778	2819
818.919	2785
819.06	2785
819.2	2883
819.341	2815
819.481	2792
819.622	2876
819.762	3077
819.903	3036
820.043	2910
820.184	2895
820.324	2891
820.465	3020
820.605	3047
820.746	3024
820.886	2952
821.026	3081
821.167	3123
821.307	3245
821.447	3272
821.588	3237
821.728	3173
821.868	3142
822.008	3093
822.149	3146
822.289	3207
822.429	3097
822.569	3055
822.709	3207
822.849	3020
822.99	3062
823.13	3123
823.27	3184
823.41	3119
823.55	3161
823.69	3108
823.83	3218
823.97	3089
824.11	2979
824.25	2982
824.389	3062
824.529	3131
824.669	3036
824.809	3150
824.949	3226
825.089	3211
825.228	3146
825.368	2986
825.508	2918
825.648	2979
825.787	2998
825.927	3001
826.067	2971
826.206	2948
826.346	3062
826.485	3039
826.625	3123
826.765	3233
826.904	3245
827.044	2971
827.183	2922
827.323	2823
827.462	3001
827.601	2929
827.741	2902
827.88	2948
828.02	2861
828.159	2948
828.298	3066
828.437	3074
828.577	3055
828.716	3237
828.855	3066
828.994	2883
829.134	2857
829.273	2925
829.412	2861
829.551	2861
829.69	2902
829.829	2982
829.968	3055
830.107	2986
830.246	3013
830.385	2906
830.524	2910
830.663	2788
830.802	2731
830.941	2636
831.08	2606
831.219	2750
831.357	2758
831.496	2937
831.635	2705
831.774	2644
831.913	2651
832.051	2511
832.19	2583
832.329	2674
832.467	2556
832.606	2503
832.744	2579
832.883	2575
833.022	2568
833.16	2610
833.299	2705
833.437	2716
833.576	2708
833.714	2720
833.852	2766
833.991	2766
834.129	2826
834.267	2830
834.406	2762
834.544	2834
834.682	2880
834.821	2845
834.959	3055
835.097	2910
835.235	3058
835.373	2963
835.511	2994
835.65	2922
835.788	2922
835.926	2838
836.064	2777
836.202	2815
836.34	3116
836.478	3108
836.615	3020
836.753	3154
836.891	3165
837.029	3165
837.167	3089
837.305	3058
837.443	3062
837.58	2971
837.718	3116
837.856	3081
837.993	3020
838.131	3116
838.269	3123
838.406	3089
838.544	3108
838.681	2876
838.819	2937
838.956	2811
839.094	2838
839.231	2925
839.369	3051
839.506	3378
839.643	3184
839.781	2975
839.918	2982
840.055	3070
840.193	3024
840.33	3047
840.467	3104
840.604	3154
840.742	3401
840.879	3028
841.016	3032
841.153	3127
841.29	3336
841.427	3313
841.564	3233
841.701	3329
841.838	3188
841.975	3165
842.112	3157
842.249	3062
842.385	3020
842.522	3272
842.659	3066
842.796	3043
842.933	3097
843.069	2990
843.206	3036
843.343	3161
843.479	3093
843.616	3146
843.752	2876
843.889	2883
844.025	3097
844.162	2868
844.298	3043
844.435	2948
844.571	2910
844.708	3070
844.844	3154
844.98	3214
845.117	3165
845.253	3070
845.389	2990
845.525	3089
845.661	3074
845.798	2982
845.934	3093
846.07	3062
846.206	3214
846.342	3310
846.478	3268
846.614	3081
846.75	3024
846.886	3001
847.022	3264
847.158	3100
847.294	3184
847.429	3207
847.565	3211
847.701	3447
847.837	3028
847.972	2982
848.108	3165
848.244	3135
848.379	2948
848.515	2952
848.65	2914
848.786	2971
848.921	2998
849.057	3070
849.192	3131
849.328	3047
849.463	3119
849.598	3047
849.734	3039
849.869	2975
850.004	2902
850.14	2960
850.275	2902
850.41	2834
850.545	2876
850.68	2967
850.815	2982
850.95	2971
851.085	3169
851.22	3070
851.355	3043
851.49	2944
851.625	2986
851.76	3017
851.895	2937
852.03	2906
852.165	3039
852.299	3123
852.434	3180
852.569	3131
852.703	3161
852.838	3222
852.973	3348
853.107	3351
853.242	3142
853.376	3093
853.511	2937
853.645	3001
853.78	3207
853.914	3119
854.048	3119
854.183	3070
854.317	3154
854.451	3253
854.585	3131
854.72	3081
854.854	3188
854.988	3028
855.122	3119
855.256	2941
855.39	3123
855.524	3260
855.658	3165
855.792	3176
855.926	3146
856.06	3203
856.194	3233
856.327	3199
856.461	3062
856.595	3070
856.729	3116
856.862	3184
856.996	3104
857.13	3207
857.263	3199
857.397	3287
857.53	3123
857.664	3184
857.797	3211
857.931	3237
858.064	3203
858.197	3192
858.331	3135
858.464	3055
858.597	3028
858.731	3097
858.864	3165
858.997	3062
859.13	3135
859.263	3188
859.396	3188
859.529	3070
859.662	3081
859.795	3062
859.928	3146
860.061	3233
860.194	3256
860.327	3108
860.46	3119
860.592	3211
860.725	3253
860.858	3279
860.99	3077
861.123	3047
861.256	3028
861.388	3135
861.521	3888
861.653	3028
861.786	2994
861.918	3009
862.05	3032
862.183	3081
862.315	3154
862.447	3169
862.58	3066
862.712	2910
862.844	2883
862.976	3001
863.108	2994
863.24	3393
863.372	2883
863.504	2967
863.636	2933
863.768	3001
863.9	3001
864.032	2914
864.164	2918
864.296	3039
864.428	3074
864.559	3081
864.691	3058
864.823	3039
864.954	2990
865.086	3013
865.217	2979
865.349	2914
865.48	2998
865.612	3028
865.743	3131
865.875	2948
866.006	2922
866.137	2975
866.269	2941
866.4	2948
866.531	2899
866.662	2887
866.793	2868
866.924	2883
867.055	3001
867.186	2895
867.317	2861
867.448	2830
867.579	2880
867.71	2830
867.841	2838
867.972	2868
868.103	2887
868.233	2876
868.364	2834
868.495	2880
868.625	3055
868.756	3119
868.886	2952
869.017	2998
869.147	3184
869.278	3169
869.408	3032
869.539	3032
869.669	3112
869.799	3028
869.929	3104
870.06	3131
870.19	3325
870.32	3287
870.45	3260
870.58	3397
870.71	3454
870.84	3431
870.97	3313
871.1	3218
871.23	3500
871.36	3435
871.489	3351
871.619	3382
871.749	3405
871.879	3412
872.008	3454
872.138	3370
872.267	3233
872.397	3093
872.526	3074
872.656	3017
872.785	3085
872.915	3226
873.044	3302
873.173	3195
873.303	3253
873.432	3218
873.561	3222
873.69	3119
873.819	3116
873.948	3176
874.077	3085
874.206	3024
874.335	3039
874.464	3218
874.593	3336
874.722	3180
874.851	3351
874.979	3302
875.108	3313
875.237	3203
875.365	3100
875.494	3142
875.623	3230
875.751	3051
875.88	3112
876.008	3165
876.136	3226
876.265	3359
876.393	3511
876.521	3420
876.65	3367
876.778	3298
876.906	3237
877.034	3169
877.162	3214
877.29	3188
877.418	3256
877.546	3237
877.674	3245
877.802	3176
877.93	3188
878.058	3093
878.185	3074
878.313	3173
878.441	3180
878.568	3051
878.696	3142
878.824	3275
878.951	3283
879.079	3428
879.206	3606
879.333	3458
879.461	3344
879.588	3344
879.715	3477
879.842	3561
879.97	3393
880.097	3112
880.224	3116
880.351	3211
880.478	3222
880.605	3203
880.732	3176
880.859	3485
880.986	3298
881.112	3317
881.239	3222
881.366	3116
881.493	3005
881.619	3051
881.746	3077
881.872	3058
881.999	3123
882.125	3176
882.252	3275
882.378	3310
882.505	3443
882.631	3351
882.757	3176
882.883	3275
883.01	3237
883.136	3203
883.262	3116
883.388	3138
883.514	3348
883.64	3431
883.766	3355
883.892	3199
884.018	3272
884.143	3439
884.269	3618
884.395	3237
884.52	3188
884.646	3192
884.772	3184
884.897	3135
885.023	3207
885.148	3340
885.274	3420
885.399	3405
885.524	3329
885.65	3272
885.775	3329
885.9	3317
886.025	3447
886.15	3378
886.275	3321
886.4	3260
886.525	3348
886.65	3344
886.775	3306
886.9	3519
887.025	3656
887.149	3424
887.274	3275
887.399	3249
887.523	3226
887.648	3233
887.773	3249
887.897	3435
888.021	3431
888.146	3321
888.27	3473
888.395	3553
888.519	3466
888.643	3519
888.767	3485
888.891	3348
889.015	3233
889.139	3310
889.263	3313
889.387	3435
889.511	3564
889.635	3469
889.759	3325
889.883	3313
890.006	3409
890.13	3500
890.254	3268
890.377	3382
890.501	3245
890.624	3218
890.748	3325
890.871	3207
890.995	3119
891.118	3051
891.241	3249
891.364	3256
891.488	3344
891.611	3222
891.734	3264
891.857	3306
891.98	3279
892.103	3393
892.226	3279
892.349	3230
892.471	3184
892.594	3287
892.717	3302
892.839	3298
892.962	3363
893.085	3397
893.207	3332
893.33	3165
893.452	3249
893.575	3374
893.697	3272
893.819	3519
893.941	3511
894.064	3469
894.186	3313
894.308	3275
894.43	3485
894.552	3557
894.674	3496
894.796	3306
894.918	3332
895.04	3348
895.161	3485
895.283	3397
895.405	3359
895.526	3378
895.648	3466
895.769	3447
895.891	3477
896.012	3469
896.134	3500
896.255	3420
896.376	3401
896.498	3355
896.619	3447
896.74	3412
896.861	3458
896.982	3679
897.103	3846
897.224	3622
897.345	3549
897.466	3462
897.587	3500
897.708	3637
897.828	3576
897.949	3450
898.07	3332
898.19	3409
898.311	3625
898.431	3492
898.552	3553
898.672	3629
898.792	3633
898.913	3542
899.033	3435
899.153	3363
899.273	3214
899.393	3344
899.513	3363
899.633	3340
899.753	3367
899.873	3336
899.993	3424
900.113	3367
900.232	3409
900.352	3370
900.472	3325
900.591	3245
900.711	3351
900.83	3332
900.95	3435
901.069	3553
901.189	3378
901.308	3230
901.427	3157
901.546	3245
901.665	3287
901.784	3367
901.904	3218
902.023	3184
902.141	3043
902.26	2994
902.379	3150
902.498	3100
902.617	3089
902.735	3218
902.854	3291
902.973	3241
903.091	3097
903.21	3100
903.328	3138
903.446	3150
903.565	3100
903.683	3230
903.801	3173
903.919	3222
904.038	3283
904.156	3192
904.274	3317
904.392	3291
904.51	3344
904.627	3344
904.745	3462
904.863	3519
904.981	3260
905.098	3214
905.216	3283
905.334	3321
905.451	3317
905.569	3363
905.686	3492
905.803	3462
905.921	3332
906.038	3450
906.155	3397
906.272	3294
906.389	3332
906.506	3260
906.623	3268
906.74	3310
906.857	3233
906.974	3260
907.091	3507
907.208	3595
907.324	3553
907.441	3428
907.557	3287
907.674	3287
907.79	3245
907.907	3321
908.023	3431
908.139	3367
908.256	3367
908.372	3397
908.488	3374
908.604	3275
908.72	3230
908.836	3329
908.952	3336
909.068	3378
909.184	3507
909.3	3401
909.415	3511
909.531	3477
909.647	3310
909.762	3332
909.878	3298
909.993	3405
910.108	3386
910.224	3374
910.339	3409
910.454	3355
910.57	3340
910.685	3260
910.8	3652
910.915	3603
911.03	3469
911.145	3272
911.259	3298
911.374	3336
911.489	3272
911.604	3253
911.718	3123
911.833	3195
911.947	3066
912.062	3036
912.176	3157
912.291	3218
912.405	3199
912.519	3450
912.633	3507
912.748	3389
912.862	3279
912.976	3180
913.09	3081
913.204	3131
913.318	3233
913.431	3370
913.545	3374
913.659	3405
913.772	3317
913.886	3260
914	3249
914.113	3382
914.226	3450
914.34	3409
914.453	3268
914.566	3416
914.68	3302
914.793	3325
914.906	3195
915.019	3150
915.132	3127
915.245	3188
915.358	3226
915.47	3260
915.583	3241
915.696	3321
915.809	3431
915.921	3412
916.034	3291
916.146	3272
916.259	3260
916.371	3389
916.483	3397
916.595	3298
916.708	3340
916.82	3367
916.932	3348
917.044	3367
917.156	3363
917.268	3268
917.38	3325
917.491	3321
917.603	3424
917.715	3500
917.826	3458
917.938	3386
918.049	3321
918.161	3462
918.272	3595
918.384	3587
918.495	3488
918.606	3336
918.717	3279
918.828	3424
918.939	3435
919.05	3325
919.161	3370
919.272	3188
919.383	3302
919.494	3549
919.604	3701
919.715	3507
919.826	3439
919.936	3466
920.047	3633
920.157	3572
920.267	3793
920.378	3641
920.488	3595
920.598	3827
920.708	3937
920.818	3819
920.928	3857
921.038	4029
921.148	4006
921.258	3709
921.368	3625
921.477	3572
921.587	3561
921.697	3500
921.806	3610
921.916	3523
922.025	3374
922.134	3363
922.244	3332
922.353	3424
922.462	3321
922.571	3226
922.68	3112
922.789	3127
922.898	3165
923.007	3161
923.116	3245
923.224	3218
923.333	3161
923.442	3112
923.55	3108
923.659	3165
923.767	3230
923.876	3157
923.984	3253
924.092	3085
924.201	3161
924.309	3237
924.417	3226
924.525	3233
924.633	3283
924.741	4196
924.849	3039
924.956	3302
925.064	3127
925.172	3081
925.279	3112
925.387	3233
925.494	3203
925.602	3412
925.709	3370
925.816	3237
925.924	3298
926.031	3351
926.138	3321
926.245	3355
926.352	3283
926.459	3428
926.566	3443
926.673	3370
926.779	3260
926.886	3268
926.993	3180
927.099	3093
927.206	3116
927.312	3108
927.419	3249
927.525	3218
927.631	3313
927.737	3131
927.843	3146
927.95	3062
928.056	3100
928.162	3169
928.267	3272
928.373	3808
928.479	3313
928.585	3066
928.69	3199
928.796	3237
928.901	3161
929.007	3089
929.112	3237
929.218	3146
929.323	3135
929.428	3192
929.533	3348
929.638	3127
929.743	3180
929.848	3279
929.953	3218
930.058	3161
930.163	3005
930.267	3085
930.372	3203
930.477	3055
930.581	3336
930.685	3195
930.79	3077
930.894	3138
930.998	3104
931.103	3249
931.207	2963
931.311	2933
931.415	2944
931.519	2777
931.623	2811
