Data from test_V78500241_750.txt Node
Date: Fri Mar 25 16:20:23 CST 2022
User: usil
Spectrometer: V785-0024
Trigger mode: 0
Integration Time (sec): 4.000000E-1
Scans to average: 1
Nonlinearity correction enabled: false
Boxcar width: 0
Storing dark spectrum: false
XAxis mode: Wavelengths
Number of Pixels in Spectrum: 1024
>>>>>Begin Spectral Data<<<<<
801.071	2906
801.214	2948
801.356	2868
801.499	2891
801.641	2853
801.783	2914
801.926	3028
802.068	2998
802.211	3009
802.353	3036
802.496	2944
802.638	3009
802.78	3009
802.923	3070
803.065	2952
803.208	2849
803.35	2910
803.492	2910
803.635	2922
803.777	2766
803.919	2842
804.061	3173
804.204	2933
804.346	2902
804.488	2861
804.63	2990
804.773	2845
804.915	2876
805.057	3108
805.199	2887
805.341	2956
805.483	3028
805.626	3001
805.768	2941
805.91	3062
806.052	3066
806.194	3028
806.336	3203
806.478	3077
806.62	2914
806.762	2948
806.904	3051
807.046	3150
807.188	2971
807.33	2914
807.472	2952
807.614	2887
807.756	2967
807.898	2895
808.04	2891
808.182	2986
808.324	2902
808.465	2902
808.607	2899
808.749	2766
808.891	2861
809.033	2994
809.174	2975
809.316	2876
809.458	2895
809.6	2762
809.741	2766
809.883	2762
810.025	2845
810.166	2857
810.308	2815
810.45	2834
810.591	2777
810.733	2758
810.875	2826
811.016	2788
811.158	2766
811.299	2823
811.441	2914
811.582	2891
811.724	2811
811.865	2785
812.007	2910
812.148	2887
812.29	2880
812.431	2872
812.573	2952
812.714	2952
812.855	3020
812.997	3020
813.138	3127
813.279	3028
813.421	2948
813.562	2952
813.703	2883
813.845	2899
813.986	2769
814.127	2769
814.268	2807
814.41	2834
814.551	2815
814.692	2914
814.833	2788
814.974	2876
815.115	2952
815.256	2811
815.397	2773
815.539	2842
815.68	2754
815.821	2788
815.962	2963
816.103	2906
816.244	2891
816.385	2887
816.526	2967
816.666	2914
816.807	2769
816.948	2906
817.089	2929
817.23	2838
817.371	2769
817.512	2788
817.653	2842
817.793	2811
817.934	2868
818.075	2971
818.216	2979
818.356	3013
818.497	2849
818.638	2769
818.778	2811
818.919	2804
819.06	2777
819.2	2853
819.341	2804
819.481	2781
819.622	2937
819.762	3070
819.903	3028
820.043	2941
820.184	2910
820.324	2922
820.465	3009
820.605	3005
820.746	3013
820.886	2933
821.026	3108
821.167	3207
821.307	3226
821.447	3272
821.588	3203
821.728	3169
821.868	3180
822.008	3093
822.149	3169
822.289	3207
822.429	3085
822.569	3093
822.709	3161
822.849	3028
822.99	3032
823.13	3157
823.27	3180
823.41	3093
823.55	3176
823.69	3123
823.83	3165
823.97	3089
824.11	2994
824.25	3028
824.389	3085
824.529	3123
824.669	3123
824.809	3195
824.949	3253
825.089	3249
825.228	3138
825.368	3005
825.508	2960
825.648	2929
825.787	2986
825.927	3024
826.067	2948
826.206	2986
826.346	3074
826.485	3089
826.625	3070
826.765	3268
826.904	3188
827.044	3009
827.183	2918
827.323	2861
827.462	2971
827.601	2925
827.741	2918
827.88	2914
828.02	2849
828.159	2982
828.298	3066
828.437	3116
828.577	3051
828.716	3218
828.855	3119
828.994	2906
829.134	2899
829.273	2929
829.412	2891
829.551	2830
829.69	2906
829.829	2960
829.968	3104
830.107	3013
830.246	3032
830.385	2902
830.524	2857
830.663	2769
830.802	2754
830.941	2625
831.08	2621
831.219	2727
831.357	2762
831.496	2941
831.635	2693
831.774	2632
831.913	2670
832.051	2530
832.19	2568
832.329	2701
832.467	2552
832.606	2499
832.744	2594
832.883	2602
833.022	2598
833.16	2655
833.299	2655
833.437	2689
833.576	2686
833.714	2697
833.852	2724
833.991	2758
834.129	2800
834.267	2830
834.406	2788
834.544	2857
834.682	2857
834.821	2876
834.959	3051
835.097	2883
835.235	3097
835.373	2971
835.511	2956
835.65	2960
835.788	2922
835.926	2849
836.064	2796
836.202	2773
836.34	3066
836.478	3173
836.615	3024
836.753	3135
836.891	3226
837.029	3138
837.167	3066
837.305	3039
837.443	3032
837.58	2948
837.718	3119
837.856	3077
837.993	3058
838.131	3138
838.269	3119
838.406	3077
838.544	3074
838.681	2952
838.819	2883
838.956	2819
839.094	2845
839.231	2891
839.369	3013
839.506	3370
839.643	3195
839.781	2967
839.918	2952
840.055	3051
840.193	3074
840.33	3055
840.467	3093
840.604	3119
840.742	3397
840.879	3058
841.016	3043
841.153	3112
841.29	3359
841.427	3260
841.564	3287
841.701	3294
841.838	3207
841.975	3150
842.112	3211
842.249	3093
842.385	3020
842.522	3230
842.659	3100
842.796	3097
842.933	3108
843.069	3051
843.206	3032
843.343	3173
843.479	3100
843.616	3127
843.752	2880
843.889	2857
844.025	3112
844.162	2891
844.298	3081
844.435	2971
844.571	2933
844.708	3051
844.844	3176
844.98	3222
845.117	3146
845.253	3051
845.389	2979
845.525	3127
845.661	3066
845.798	2975
845.934	3100
846.07	3024
846.206	3218
846.342	3306
846.478	3253
846.614	3100
846.75	3009
846.886	3005
847.022	3192
847.158	3138
847.294	3203
847.429	3237
847.565	3188
847.701	3496
847.837	2998
847.972	2994
848.108	3165
848.244	3157
848.379	3013
848.515	2986
848.65	2933
848.786	2963
848.921	3028
849.057	3131
849.192	3131
849.328	3051
849.463	3142
849.598	3074
849.734	3055
849.869	2956
850.004	2895
850.14	2948
850.275	2918
850.41	2819
850.545	2887
850.68	2918
850.815	2929
850.95	2956
851.085	3180
851.22	3055
851.355	3028
851.49	2960
851.625	2994
851.76	2998
851.895	2914
852.03	2918
852.165	2998
852.299	3112
852.434	3165
852.569	3165
852.703	3195
852.838	3226
852.973	3329
853.107	3317
853.242	3176
853.376	3077
853.511	3036
853.645	3036
853.78	3222
853.914	3108
854.048	3089
854.183	3039
854.317	3138
854.451	3275
854.585	3097
854.72	3081
854.854	3195
854.988	3055
855.122	3062
855.256	2975
855.39	3108
855.524	3203
855.658	3154
855.792	3135
855.926	3176
856.06	3195
856.194	3264
856.327	3142
856.461	3058
856.595	3089
856.729	3051
856.862	3237
856.996	3119
857.13	3169
857.263	3222
857.397	3283
857.53	3146
857.664	3165
857.797	3222
857.931	3207
858.064	3154
858.197	3192
858.331	3138
858.464	3097
858.597	2998
858.731	3108
858.864	3146
858.997	3089
859.13	3138
859.263	3214
859.396	3195
859.529	3058
859.662	3077
859.795	3017
859.928	3146
860.061	3291
860.194	3272
860.327	3116
860.46	3085
860.592	3260
860.725	3214
860.858	3287
860.99	3074
861.123	3028
861.256	3058
861.388	3154
861.521	3915
861.653	2986
861.786	2979
861.918	3009
862.05	3070
862.183	3055
862.315	3135
862.447	3180
862.58	3085
862.712	2918
862.844	2845
862.976	3005
863.108	2979
863.24	3386
863.372	2899
863.504	2960
863.636	2929
863.768	3017
863.9	2963
864.032	2914
864.164	2960
864.296	2975
864.428	3051
864.559	3093
864.691	3070
864.823	3055
864.954	3062
865.086	3020
865.217	2975
865.349	2948
865.48	3005
865.612	3009
865.743	3138
865.875	2967
866.006	2925
866.137	2994
866.269	2944
866.4	2933
866.531	2914
866.662	2895
866.793	2887
866.924	2883
867.055	2971
867.186	2944
867.317	2864
867.448	2823
867.579	2857
867.71	2849
867.841	2819
867.972	2872
868.103	2857
868.233	2861
868.364	2868
868.495	2864
868.625	3100
868.756	3165
868.886	2937
869.017	3062
869.147	3119
869.278	3146
869.408	2979
869.539	2986
869.669	3127
869.799	3043
869.929	3123
870.06	3116
870.19	3275
870.32	3298
870.45	3313
870.58	3386
870.71	3409
870.84	3409
870.97	3355
871.1	3237
871.23	3447
871.36	3454
871.489	3336
871.619	3344
871.749	3428
871.879	3416
872.008	3481
872.138	3344
872.267	3253
872.397	3119
872.526	3070
872.656	3017
872.785	3093
872.915	3245
873.044	3287
873.173	3203
873.303	3222
873.432	3245
873.561	3245
873.69	3119
873.819	3116
873.948	3195
874.077	3104
874.206	3020
874.335	3024
874.464	3214
874.593	3367
874.722	3237
874.851	3409
874.979	3344
875.108	3302
875.237	3195
875.365	3131
875.494	3176
875.623	3237
875.751	3135
875.88	3123
876.008	3176
876.136	3192
876.265	3317
876.393	3500
876.521	3435
876.65	3374
876.778	3370
876.906	3222
877.034	3173
877.162	3195
877.29	3169
877.418	3253
877.546	3233
877.674	3287
877.802	3241
877.93	3211
878.058	3138
878.185	3085
878.313	3184
878.441	3165
878.568	3074
878.696	3142
878.824	3230
878.951	3287
879.079	3420
879.206	3637
879.333	3409
879.461	3291
879.588	3321
879.715	3466
879.842	3595
879.97	3329
880.097	3192
880.224	3146
880.351	3173
880.478	3199
880.605	3184
880.732	3165
880.859	3500
880.986	3291
881.112	3291
881.239	3207
881.366	3058
881.493	3013
881.619	3032
881.746	3055
881.872	3119
881.999	3074
882.125	3123
882.252	3222
882.378	3302
882.505	3428
882.631	3230
882.757	3184
882.883	3226
883.01	3233
883.136	3165
883.262	3074
883.388	3081
883.514	3329
883.64	3344
883.766	3317
883.892	3150
884.018	3268
884.143	3416
884.269	3553
884.395	3222
884.52	3180
884.646	3207
884.772	3108
884.897	3119
885.023	3165
885.148	3313
885.274	3401
885.399	3355
885.524	3332
885.65	3264
885.775	3272
885.9	3264
886.025	3439
886.15	3367
886.275	3291
886.4	3195
886.525	3275
886.65	3253
886.775	3249
886.9	3466
887.025	3591
887.149	3370
887.274	3279
887.399	3199
887.523	3211
887.648	3188
887.773	3199
887.897	3359
888.021	3409
888.146	3249
888.27	3416
888.395	3545
888.519	3393
888.643	3447
888.767	3454
888.891	3294
889.015	3249
889.139	3291
889.263	3230
889.387	3393
889.511	3488
889.635	3443
889.759	3283
889.883	3317
890.006	3363
890.13	3447
890.254	3291
890.377	3321
890.501	3195
890.624	3173
890.748	3336
890.871	3161
890.995	3085
891.118	3066
891.241	3188
891.364	3218
891.488	3298
891.611	3165
891.734	3237
891.857	3313
891.98	3256
892.103	3351
892.226	3291
892.349	3199
892.471	3104
892.594	3233
892.717	3245
892.839	3253
892.962	3291
893.085	3351
893.207	3272
893.33	3173
893.452	3176
893.575	3298
893.697	3207
893.819	3435
893.941	3492
894.064	3458
894.186	3241
894.308	3340
894.43	3428
894.552	3504
894.674	3447
894.796	3283
894.918	3321
895.04	3287
895.161	3397
895.283	3412
895.405	3310
895.526	3344
895.648	3416
895.769	3386
895.891	3454
896.012	3439
896.134	3458
896.255	3439
896.376	3405
896.498	3382
896.619	3397
896.74	3355
896.861	3409
896.982	3690
897.103	3846
897.224	3553
897.345	3469
897.466	3424
897.587	3504
897.708	3625
897.828	3526
897.949	3454
898.07	3355
898.19	3397
898.311	3584
898.431	3412
898.552	3526
898.672	3564
898.792	3591
898.913	3504
899.033	3393
899.153	3249
899.273	3188
899.393	3272
899.513	3329
899.633	3325
899.753	3340
899.873	3283
899.993	3367
900.113	3325
900.232	3393
900.352	3348
900.472	3275
900.591	3192
900.711	3275
900.83	3233
900.95	3435
901.069	3523
901.189	3393
901.308	3173
901.427	3154
901.546	3195
901.665	3302
901.784	3325
901.904	3211
902.023	3161
902.141	3024
902.26	2975
902.379	3127
902.498	3074
902.617	3039
902.735	3199
902.854	3237
902.973	3180
903.091	3036
903.21	3055
903.328	3131
903.446	3093
903.565	3119
903.683	3188
903.801	3116
903.919	3222
904.038	3260
904.156	3157
904.274	3275
904.392	3256
904.51	3272
904.627	3325
904.745	3466
904.863	3454
904.981	3272
905.098	3150
905.216	3211
905.334	3306
905.451	3306
905.569	3272
905.686	3420
905.803	3458
905.921	3279
906.038	3462
906.155	3355
906.272	3298
906.389	3332
906.506	3203
906.623	3256
906.74	3260
906.857	3180
906.974	3253
907.091	3428
907.208	3572
907.324	3450
907.441	3374
907.557	3260
907.674	3233
907.79	3188
907.907	3344
908.023	3405
908.139	3348
908.256	3306
908.372	3405
908.488	3336
908.604	3291
908.72	3237
908.836	3325
908.952	3264
909.068	3332
909.184	3469
909.3	3386
909.415	3481
909.531	3424
909.647	3230
909.762	3306
909.878	3272
909.993	3370
910.108	3260
910.224	3298
910.339	3355
910.454	3321
910.57	3287
910.685	3256
910.8	3591
910.915	3500
911.03	3424
911.145	3260
911.259	3275
911.374	3264
911.489	3214
911.604	3226
911.718	3127
911.833	3146
911.947	2971
912.062	2990
912.176	3138
912.291	3180
912.405	3245
912.519	3367
912.633	3488
912.748	3325
912.862	3291
912.976	3161
913.09	3028
913.204	3142
913.318	3207
913.431	3294
913.545	3310
913.659	3435
913.772	3306
913.886	3218
914	3173
914.113	3348
914.226	3424
914.34	3374
914.453	3207
914.566	3389
914.68	3241
914.793	3363
914.906	3112
915.019	3127
915.132	3039
915.245	3199
915.358	3207
915.47	3222
915.583	3245
915.696	3306
915.809	3382
915.921	3416
916.034	3279
916.146	3230
916.259	3245
916.371	3374
916.483	3355
916.595	3283
916.708	3313
916.82	3317
916.932	3355
917.044	3340
917.156	3363
917.268	3249
917.38	3325
917.491	3313
917.603	3378
917.715	3454
917.826	3462
917.938	3348
918.049	3268
918.161	3454
918.272	3561
918.384	3538
918.495	3473
918.606	3317
918.717	3283
918.828	3359
918.939	3405
919.05	3332
919.161	3370
919.272	3157
919.383	3264
919.494	3488
919.604	3671
919.715	3488
919.826	3370
919.936	3492
920.047	3576
920.157	3557
920.267	3778
920.378	3587
920.488	3553
920.598	3781
920.708	3956
920.818	3846
920.928	3816
921.038	4002
921.148	3972
921.258	3667
921.368	3603
921.477	3591
921.587	3492
921.697	3454
921.806	3637
921.916	3488
922.025	3378
922.134	3363
922.244	3313
922.353	3412
922.462	3249
922.571	3195
922.68	3112
922.789	3097
922.898	3119
923.007	3077
923.116	3188
923.224	3146
923.333	3192
923.442	3138
923.55	3085
923.659	3119
923.767	3218
923.876	3093
923.984	3241
924.092	3074
924.201	3207
924.309	3245
924.417	3237
924.525	3165
924.633	3256
924.741	4169
924.849	3047
924.956	3279
925.064	3093
925.172	3047
925.279	3097
925.387	3226
925.494	3199
925.602	3344
925.709	3321
925.816	3192
925.924	3291
926.031	3397
926.138	3310
926.245	3370
926.352	3218
926.459	3382
926.566	3428
926.673	3310
926.779	3249
926.886	3264
926.993	3165
927.099	3165
927.206	3112
927.312	3131
927.419	3222
927.525	3173
927.631	3294
927.737	3154
927.843	3142
927.95	3024
928.056	3142
928.162	3135
928.267	3256
928.373	3827
928.479	3302
928.585	3085
928.69	3180
928.796	3268
928.901	3180
929.007	3020
929.112	3165
929.218	3165
929.323	3169
929.428	3119
929.533	3310
929.638	3104
929.743	3176
929.848	3287
929.953	3169
930.058	3123
930.163	3013
930.267	3062
930.372	3192
930.477	3047
930.581	3294
930.685	3161
930.79	3028
930.894	3135
930.998	3089
931.103	3275
931.207	2956
931.311	2963
931.415	2914
931.519	2758
931.623	2792
