Data from test_V78500241_301.txt Node
Date: Fri Mar 25 16:17:17 CST 2022
User: usil
Spectrometer: V785-0024
Trigger mode: 0
Integration Time (sec): 4.000000E-1
Scans to average: 1
Nonlinearity correction enabled: false
Boxcar width: 0
Storing dark spectrum: false
XAxis mode: Wavelengths
Number of Pixels in Spectrum: 1024
>>>>>Begin Spectral Data<<<<<
801.071	2899
801.214	2960
801.356	2895
801.499	2887
801.641	2872
801.783	2952
801.926	3036
802.068	2986
802.211	2979
802.353	3024
802.496	2979
802.638	3024
802.78	3001
802.923	3077
803.065	2963
803.208	2906
803.35	2937
803.492	2937
803.635	2899
803.777	2758
803.919	2849
804.061	3222
804.204	2956
804.346	2929
804.488	2887
804.63	3036
804.773	2864
804.915	2906
805.057	3077
805.199	2963
805.341	2956
805.483	3032
805.626	3032
805.768	2963
805.91	3104
806.052	3104
806.194	3036
806.336	3218
806.478	3005
806.62	2944
806.762	2975
806.904	3055
807.046	3165
807.188	3005
807.33	2902
807.472	2994
807.614	2922
807.756	3017
807.898	2918
808.04	2883
808.182	2979
808.324	2960
808.465	2864
808.607	2887
808.749	2804
808.891	2838
809.033	2967
809.174	2979
809.316	2899
809.458	2842
809.6	2781
809.741	2785
809.883	2769
810.025	2838
810.166	2864
810.308	2842
810.45	2857
810.591	2766
810.733	2785
810.875	2838
811.016	2773
811.158	2746
811.299	2823
811.441	2967
811.582	2925
811.724	2819
811.865	2800
812.007	2883
812.148	2868
812.29	2838
812.431	2906
812.573	2937
812.714	2956
812.855	3058
812.997	3070
813.138	3104
813.279	3047
813.421	2971
813.562	2948
813.703	2857
813.845	2902
813.986	2796
814.127	2727
814.268	2826
814.41	2815
814.551	2826
814.692	2880
814.833	2853
814.974	2887
815.115	2952
815.256	2792
815.397	2815
815.539	2845
815.68	2800
815.821	2804
815.962	2941
816.103	2929
816.244	2864
816.385	2853
816.526	2952
816.666	2933
816.807	2777
816.948	2864
817.089	2918
817.23	2861
817.371	2788
817.512	2796
817.653	2834
817.793	2811
817.934	2899
818.075	2990
818.216	2994
818.356	3036
818.497	2861
818.638	2800
818.778	2815
818.919	2781
819.06	2746
819.2	2880
819.341	2804
819.481	2785
819.622	2902
819.762	3062
819.903	3051
820.043	2933
820.184	2925
820.324	2902
820.465	3036
820.605	3009
820.746	3009
820.886	2941
821.026	3112
821.167	3104
821.307	3245
821.447	3230
821.588	3249
821.728	3207
821.868	3195
822.008	3085
822.149	3195
822.289	3260
822.429	3123
822.569	3108
822.709	3180
822.849	3017
822.99	3062
823.13	3135
823.27	3192
823.41	3089
823.55	3119
823.69	3142
823.83	3207
823.97	3123
824.11	3024
824.25	2994
824.389	3070
824.529	3108
824.669	3085
824.809	3176
824.949	3275
825.089	3218
825.228	3150
825.368	3055
825.508	3013
825.648	2967
825.787	3028
825.927	2998
826.067	2979
826.206	2960
826.346	3036
826.485	3066
826.625	3093
826.765	3256
826.904	3214
827.044	2975
827.183	2941
827.323	2876
827.462	2963
827.601	2910
827.741	2899
827.88	2933
828.02	2872
828.159	2994
828.298	3043
828.437	3097
828.577	3062
828.716	3249
828.855	3097
828.994	2918
829.134	2864
829.273	2929
829.412	2868
829.551	2887
829.69	2906
829.829	2944
829.968	3104
830.107	3055
830.246	2998
830.385	2899
830.524	2922
830.663	2823
830.802	2720
830.941	2655
831.08	2651
831.219	2766
831.357	2762
831.496	2922
831.635	2735
831.774	2648
831.913	2648
832.051	2571
832.19	2598
832.329	2693
832.467	2533
832.606	2499
832.744	2583
832.883	2594
833.022	2610
833.16	2655
833.299	2651
833.437	2686
833.576	2705
833.714	2739
833.852	2716
833.991	2754
834.129	2849
834.267	2815
834.406	2769
834.544	2868
834.682	2910
834.821	2872
834.959	3058
835.097	2891
835.235	3055
835.373	3047
835.511	3017
835.65	2952
835.788	2944
835.926	2868
836.064	2781
836.202	2804
836.34	3100
836.478	3112
836.615	3036
836.753	3173
836.891	3211
837.029	3146
837.167	3081
837.305	3070
837.443	3036
837.58	2925
837.718	3097
837.856	3055
837.993	3028
838.131	3112
838.269	3135
838.406	3100
838.544	3081
838.681	2986
838.819	2933
838.956	2781
839.094	2826
839.231	2918
839.369	3047
839.506	3378
839.643	3233
839.781	2998
839.918	2956
840.055	3032
840.193	3039
840.33	3074
840.467	3085
840.604	3161
840.742	3374
840.879	3062
841.016	3058
841.153	3161
841.29	3363
841.427	3306
841.564	3268
841.701	3317
841.838	3218
841.975	3173
842.112	3199
842.249	3089
842.385	3032
842.522	3245
842.659	3112
842.796	3047
842.933	3127
843.069	3039
843.206	3020
843.343	3199
843.479	3104
843.616	3146
843.752	2918
843.889	2887
844.025	3089
844.162	2857
844.298	3093
844.435	2937
844.571	2914
844.708	3047
844.844	3165
844.98	3253
845.117	3207
845.253	3081
845.389	3001
845.525	3119
845.661	3085
845.798	3036
845.934	3085
846.07	3070
846.206	3199
846.342	3283
846.478	3268
846.614	3097
846.75	3058
846.886	3055
847.022	3199
847.158	3138
847.294	3211
847.429	3279
847.565	3176
847.701	3485
847.837	3036
847.972	3032
848.108	3169
848.244	3119
848.379	2982
848.515	2933
848.65	2986
848.786	2956
848.921	3005
849.057	3127
849.192	3146
849.328	3081
849.463	3112
849.598	3032
849.734	3036
849.869	2963
850.004	2902
850.14	2982
850.275	2918
850.41	2826
850.545	2868
850.68	2941
850.815	2982
850.95	2979
851.085	3199
851.22	3116
851.355	3070
851.49	2986
851.625	3028
851.76	2990
851.895	2941
852.03	2902
852.165	3051
852.299	3138
852.434	3138
852.569	3146
852.703	3154
852.838	3203
852.973	3355
853.107	3340
853.242	3154
853.376	3108
853.511	2971
853.645	3051
853.78	3207
853.914	3097
854.048	3123
854.183	3066
854.317	3123
854.451	3325
854.585	3135
854.72	3081
854.854	3237
854.988	3058
855.122	3074
855.256	2979
855.39	3150
855.524	3233
855.658	3180
855.792	3135
855.926	3169
856.06	3272
856.194	3272
856.327	3161
856.461	3047
856.595	3051
856.729	3081
856.862	3230
856.996	3184
857.13	3199
857.263	3233
857.397	3260
857.53	3100
857.664	3184
857.797	3264
857.931	3264
858.064	3173
858.197	3211
858.331	3131
858.464	3066
858.597	2990
858.731	3097
858.864	3138
858.997	3077
859.13	3154
859.263	3142
859.396	3176
859.529	3077
859.662	3066
859.795	3070
859.928	3154
860.061	3272
860.194	3317
860.327	3100
860.46	3070
860.592	3192
860.725	3264
860.858	3241
860.99	3085
861.123	3032
861.256	3039
861.388	3138
861.521	3846
861.653	3024
861.786	3009
861.918	2941
862.05	3070
862.183	3123
862.315	3157
862.447	3211
862.58	3104
862.712	2960
862.844	2887
862.976	3066
863.108	2982
863.24	3302
863.372	2891
863.504	2971
863.636	2929
863.768	3024
863.9	2982
864.032	2883
864.164	2975
864.296	3009
864.428	3074
864.559	3097
864.691	3055
864.823	3036
864.954	3017
865.086	3062
865.217	2967
865.349	2967
865.48	3001
865.612	3020
865.743	3180
865.875	2982
866.006	2952
866.137	2979
866.269	2960
866.4	2941
866.531	2910
866.662	2876
866.793	2895
866.924	2933
867.055	2971
867.186	2948
867.317	2876
867.448	2826
867.579	2845
867.71	2849
867.841	2807
867.972	2895
868.103	2933
868.233	2880
868.364	2895
868.495	2895
868.625	3074
868.756	3138
868.886	2967
869.017	3051
869.147	3119
869.278	3150
869.408	3104
869.539	3020
869.669	3081
869.799	3043
869.929	3135
870.06	3093
870.19	3302
870.32	3291
870.45	3283
870.58	3340
870.71	3420
870.84	3462
870.97	3283
871.1	3249
871.23	3469
871.36	3466
871.489	3367
871.619	3329
871.749	3409
871.879	3374
872.008	3443
872.138	3382
872.267	3253
872.397	3173
872.526	3070
872.656	3005
872.785	3081
872.915	3233
873.044	3336
873.173	3249
873.303	3253
873.432	3230
873.561	3264
873.69	3150
873.819	3169
873.948	3222
874.077	3112
874.206	3013
874.335	3097
874.464	3192
874.593	3359
874.722	3241
874.851	3359
874.979	3340
875.108	3302
875.237	3188
875.365	3184
875.494	3176
875.623	3279
875.751	3104
875.88	3119
876.008	3195
876.136	3253
876.265	3359
876.393	3477
876.521	3382
876.65	3428
876.778	3374
876.906	3211
877.034	3207
877.162	3233
877.29	3176
877.418	3268
877.546	3214
877.674	3241
877.802	3230
877.93	3222
878.058	3154
878.185	3085
878.313	3214
878.441	3199
878.568	3039
878.696	3138
878.824	3245
878.951	3306
879.079	3458
879.206	3614
879.333	3466
879.461	3321
879.588	3336
879.715	3496
879.842	3622
879.97	3370
880.097	3161
880.224	3108
880.351	3188
880.478	3188
880.605	3188
880.732	3131
880.859	3504
880.986	3287
881.112	3310
881.239	3241
881.366	3097
881.493	3043
881.619	2986
881.746	3093
881.872	3093
881.999	3119
882.125	3131
882.252	3256
882.378	3272
882.505	3431
882.631	3298
882.757	3131
882.883	3214
883.01	3203
883.136	3165
883.262	3097
883.388	3085
883.514	3321
883.64	3378
883.766	3306
883.892	3161
884.018	3211
884.143	3420
884.269	3519
884.395	3195
884.52	3157
884.646	3180
884.772	3138
884.897	3058
885.023	3211
885.148	3355
885.274	3439
885.399	3348
885.524	3291
885.65	3283
885.775	3348
885.9	3272
886.025	3412
886.15	3382
886.275	3306
886.4	3283
886.525	3325
886.65	3272
886.775	3279
886.9	3500
887.025	3614
887.149	3397
887.274	3237
887.399	3199
887.523	3199
887.648	3199
887.773	3188
887.897	3405
888.021	3348
888.146	3325
888.27	3424
888.395	3545
888.519	3450
888.643	3435
888.767	3481
888.891	3313
889.015	3230
889.139	3302
889.263	3268
889.387	3420
889.511	3507
889.635	3435
889.759	3336
889.883	3298
890.006	3405
890.13	3496
890.254	3279
890.377	3332
890.501	3192
890.624	3207
890.748	3336
890.871	3165
890.995	3100
891.118	3074
891.241	3203
891.364	3214
891.488	3291
891.611	3211
891.734	3260
891.857	3272
891.98	3241
892.103	3336
892.226	3249
892.349	3207
892.471	3093
892.594	3237
892.717	3275
892.839	3279
892.962	3317
893.085	3359
893.207	3256
893.33	3142
893.452	3176
893.575	3340
893.697	3253
893.819	3473
893.941	3507
894.064	3439
894.186	3275
894.308	3275
894.43	3447
894.552	3523
894.674	3488
894.796	3310
894.918	3325
895.04	3279
895.161	3443
895.283	3355
895.405	3336
895.526	3370
895.648	3412
895.769	3443
895.891	3447
896.012	3454
896.134	3447
896.255	3431
896.376	3355
896.498	3367
896.619	3454
896.74	3386
896.861	3401
896.982	3679
897.103	3873
897.224	3603
897.345	3542
897.466	3439
897.587	3496
897.708	3656
897.828	3568
897.949	3462
898.07	3359
898.19	3416
898.311	3603
898.431	3469
898.552	3553
898.672	3637
898.792	3568
898.913	3515
899.033	3393
899.153	3306
899.273	3256
899.393	3317
899.513	3329
899.633	3340
899.753	3313
899.873	3298
899.993	3416
900.113	3321
900.232	3389
900.352	3340
900.472	3306
900.591	3230
900.711	3325
900.83	3211
900.95	3405
901.069	3507
901.189	3351
901.308	3180
901.427	3138
901.546	3199
901.665	3260
901.784	3363
901.904	3233
902.023	3157
902.141	3017
902.26	3013
902.379	3116
902.498	3127
902.617	3093
902.735	3176
902.854	3226
902.973	3188
903.091	3013
903.21	3070
903.328	3138
903.446	3100
903.565	3116
903.683	3237
903.801	3176
903.919	3207
904.038	3233
904.156	3169
904.274	3313
904.392	3287
904.51	3272
904.627	3340
904.745	3409
904.863	3481
904.981	3233
905.098	3184
905.216	3226
905.334	3298
905.451	3298
905.569	3260
905.686	3443
905.803	3447
905.921	3268
906.038	3420
906.155	3336
906.272	3256
906.389	3321
906.506	3222
906.623	3222
906.74	3279
906.857	3169
906.974	3237
907.091	3447
907.208	3542
907.324	3443
907.441	3409
907.557	3222
907.674	3241
907.79	3184
907.907	3256
908.023	3359
908.139	3378
908.256	3306
908.372	3367
908.488	3374
908.604	3218
908.72	3245
908.836	3272
908.952	3264
909.068	3310
909.184	3488
909.3	3370
909.415	3542
909.531	3485
909.647	3302
909.762	3287
909.878	3241
909.993	3344
910.108	3317
910.224	3367
910.339	3435
910.454	3389
910.57	3302
910.685	3237
910.8	3526
910.915	3549
911.03	3409
911.145	3279
911.259	3279
911.374	3313
911.489	3294
911.604	3211
911.718	3131
911.833	3169
911.947	3032
912.062	2998
912.176	3135
912.291	3180
912.405	3184
912.519	3462
912.633	3439
912.748	3325
912.862	3302
912.976	3169
913.09	3081
913.204	3142
913.318	3199
913.431	3313
913.545	3332
913.659	3393
913.772	3351
913.886	3241
914	3192
914.113	3386
914.226	3450
914.34	3351
914.453	3222
914.566	3393
914.68	3287
914.793	3321
914.906	3165
915.019	3097
915.132	3085
915.245	3138
915.358	3203
915.47	3195
915.583	3302
915.696	3268
915.809	3389
915.921	3397
916.034	3253
916.146	3272
916.259	3241
916.371	3378
916.483	3386
916.595	3287
916.708	3332
916.82	3332
916.932	3336
917.044	3332
917.156	3340
917.268	3272
917.38	3291
917.491	3310
917.603	3386
917.715	3466
917.826	3462
917.938	3386
918.049	3279
918.161	3450
918.272	3568
918.384	3606
918.495	3507
918.606	3336
918.717	3260
918.828	3374
918.939	3420
919.05	3294
919.161	3359
919.272	3222
919.383	3256
919.494	3466
919.604	3705
919.715	3511
919.826	3412
919.936	3477
920.047	3595
920.157	3564
920.267	3743
920.378	3637
920.488	3584
920.598	3808
920.708	3960
920.818	3812
920.928	3838
921.038	3994
921.148	4002
921.258	3679
921.368	3629
921.477	3625
921.587	3599
921.697	3473
921.806	3648
921.916	3526
922.025	3336
922.134	3355
922.244	3332
922.353	3393
922.462	3264
922.571	3214
922.68	3066
922.789	3070
922.898	3165
923.007	3104
923.116	3237
923.224	3192
923.333	3203
923.442	3089
923.55	3093
923.659	3161
923.767	3214
923.876	3097
923.984	3249
924.092	3123
924.201	3199
924.309	3233
924.417	3275
924.525	3192
924.633	3230
924.741	4181
924.849	3032
924.956	3264
925.064	3112
925.172	3028
925.279	3089
925.387	3214
925.494	3184
925.602	3370
925.709	3321
925.816	3214
925.924	3283
926.031	3363
926.138	3351
926.245	3412
926.352	3272
926.459	3447
926.566	3492
926.673	3313
926.779	3230
926.886	3294
926.993	3169
927.099	3100
927.206	3077
927.312	3150
927.419	3260
927.525	3241
927.631	3260
927.737	3142
927.843	3138
927.95	3032
928.056	3142
928.162	3203
928.267	3233
928.373	3899
928.479	3348
928.585	3085
928.69	3207
928.796	3264
928.901	3173
929.007	3032
929.112	3203
929.218	3176
929.323	3138
929.428	3104
929.533	3313
929.638	3173
929.743	3199
929.848	3291
929.953	3146
930.058	3173
930.163	2986
930.267	3039
930.372	3214
930.477	3036
930.581	3302
930.685	3192
930.79	3089
930.894	3123
930.998	3108
931.103	3294
931.207	2986
931.311	2971
931.415	2941
931.519	2773
931.623	2849
