Data from test_V78500241_1152.txt Node
Date: Fri Mar 25 16:23:11 CST 2022
User: usil
Spectrometer: V785-0024
Trigger mode: 0
Integration Time (sec): 4.000000E-1
Scans to average: 1
Nonlinearity correction enabled: false
Boxcar width: 0
Storing dark spectrum: false
XAxis mode: Wavelengths
Number of Pixels in Spectrum: 1024
>>>>>Begin Spectral Data<<<<<
801.071	2914
801.214	2990
801.356	2876
801.499	2929
801.641	2883
801.783	2952
801.926	3097
802.068	2998
802.211	2994
802.353	3058
802.496	2982
802.638	3028
802.78	3074
802.923	3093
803.065	3039
803.208	2902
803.35	2902
803.492	2933
803.635	2941
803.777	2746
803.919	2899
804.061	3184
804.204	2944
804.346	2891
804.488	2872
804.63	2990
804.773	2899
804.915	2937
805.057	3085
805.199	2922
805.341	2994
805.483	3043
805.626	2998
805.768	3001
805.91	3066
806.052	3138
806.194	3024
806.336	3199
806.478	3005
806.62	2952
806.762	2979
806.904	3074
807.046	3161
807.188	2979
807.33	2933
807.472	3013
807.614	2925
807.756	2963
807.898	2937
808.04	2887
808.182	2971
808.324	2975
808.465	2876
808.607	2872
808.749	2796
808.891	2807
809.033	3001
809.174	2975
809.316	2880
809.458	2910
809.6	2769
809.741	2773
809.883	2766
810.025	2853
810.166	2872
810.308	2845
810.45	2849
810.591	2807
810.733	2785
810.875	2845
811.016	2796
811.158	2762
811.299	2804
811.441	2918
811.582	2895
811.724	2838
811.865	2838
812.007	2906
812.148	2868
812.29	2880
812.431	2876
812.573	2925
812.714	2944
812.855	3058
812.997	3013
813.138	3097
813.279	2967
813.421	2979
813.562	2967
813.703	2887
813.845	2876
813.986	2807
814.127	2727
814.268	2826
814.41	2781
814.551	2815
814.692	2880
814.833	2826
814.974	2842
815.115	2941
815.256	2830
815.397	2815
815.539	2876
815.68	2781
815.821	2785
815.962	2944
816.103	2918
816.244	2872
816.385	2895
816.526	2982
816.666	2971
816.807	2735
816.948	2861
817.089	2902
817.23	2853
817.371	2781
817.512	2807
817.653	2815
817.793	2849
817.934	2925
818.075	2960
818.216	2948
818.356	3005
818.497	2876
818.638	2800
818.778	2807
818.919	2788
819.06	2724
819.2	2891
819.341	2830
819.481	2834
819.622	2899
819.762	3131
819.903	3043
820.043	2918
820.184	2857
820.324	2918
820.465	3017
820.605	3039
820.746	3043
820.886	2918
821.026	3112
821.167	3142
821.307	3279
821.447	3279
821.588	3249
821.728	3184
821.868	3207
822.008	3066
822.149	3165
822.289	3218
822.429	3081
822.569	3097
822.709	3161
822.849	3024
822.99	3070
823.13	3135
823.27	3180
823.41	3119
823.55	3154
823.69	3131
823.83	3199
823.97	3116
824.11	3020
824.25	3013
824.389	3036
824.529	3108
824.669	3089
824.809	3211
824.949	3241
825.089	3245
825.228	3146
825.368	2963
825.508	2956
825.648	2979
825.787	3001
825.927	3058
826.067	2971
826.206	2941
826.346	3066
826.485	3093
826.625	3123
826.765	3245
826.904	3230
827.044	2967
827.183	2902
827.323	2861
827.462	2956
827.601	2918
827.741	2960
827.88	2971
828.02	2857
828.159	3024
828.298	3062
828.437	3104
828.577	3051
828.716	3203
828.855	3119
828.994	2941
829.134	2891
829.273	2937
829.412	2853
829.551	2857
829.69	2891
829.829	3001
829.968	3142
830.107	3024
830.246	3036
830.385	2948
830.524	2872
830.663	2823
830.802	2708
830.941	2689
831.08	2644
831.219	2773
831.357	2766
831.496	2975
831.635	2727
831.774	2617
831.913	2663
832.051	2560
832.19	2568
832.329	2686
832.467	2541
832.606	2495
832.744	2560
832.883	2587
833.022	2590
833.16	2632
833.299	2678
833.437	2701
833.576	2689
833.714	2743
833.852	2716
833.991	2750
834.129	2872
834.267	2819
834.406	2773
834.544	2902
834.682	2823
834.821	2876
834.959	3074
835.097	2910
835.235	3055
835.373	2994
835.511	2971
835.65	2933
835.788	2925
835.926	2788
836.064	2830
836.202	2826
836.34	3074
836.478	3169
836.615	3039
836.753	3142
836.891	3230
837.029	3195
837.167	3112
837.305	3070
837.443	3055
837.58	2990
837.718	3135
837.856	3089
837.993	3024
838.131	3116
838.269	3127
838.406	3077
838.544	3077
838.681	2933
838.819	2933
838.956	2807
839.094	2849
839.231	2937
839.369	2986
839.506	3378
839.643	3180
839.781	2998
839.918	2941
840.055	3017
840.193	3020
840.33	3043
840.467	3108
840.604	3127
840.742	3435
840.879	3039
841.016	3074
841.153	3081
841.29	3332
841.427	3298
841.564	3291
841.701	3317
841.838	3180
841.975	3184
842.112	3241
842.249	3085
842.385	3032
842.522	3279
842.659	3085
842.796	3036
842.933	3104
843.069	3043
843.206	3017
843.343	3195
843.479	3135
843.616	3138
843.752	2895
843.889	2872
844.025	3093
844.162	2845
844.298	3036
844.435	2937
844.571	2902
844.708	3104
844.844	3207
844.98	3211
845.117	3161
845.253	3047
845.389	3032
845.525	3131
845.661	3100
845.798	3039
845.934	3104
846.07	3028
846.206	3214
846.342	3329
846.478	3237
846.614	3108
846.75	3077
846.886	3013
847.022	3241
847.158	3127
847.294	3176
847.429	3249
847.565	3195
847.701	3466
847.837	3005
847.972	3013
848.108	3192
848.244	3119
848.379	2960
848.515	2910
848.65	2956
848.786	2975
848.921	3024
849.057	3112
849.192	3150
849.328	3062
849.463	3085
849.598	3070
849.734	3051
849.869	2986
850.004	2918
850.14	2956
850.275	2895
850.41	2804
850.545	2899
850.68	2937
850.815	2941
850.95	2960
851.085	3180
851.22	3077
851.355	3062
851.49	2963
851.625	2986
851.76	2998
851.895	2914
852.03	2929
852.165	3051
852.299	3123
852.434	3176
852.569	3123
852.703	3176
852.838	3237
852.973	3325
853.107	3310
853.242	3184
853.376	3123
853.511	2971
853.645	3043
853.78	3230
853.914	3097
854.048	3108
854.183	3062
854.317	3150
854.451	3287
854.585	3138
854.72	3058
854.854	3207
854.988	3074
855.122	3108
855.256	2975
855.39	3123
855.524	3256
855.658	3180
855.792	3135
855.926	3161
856.06	3195
856.194	3291
856.327	3165
856.461	3043
856.595	3070
856.729	3081
856.862	3230
856.996	3123
857.13	3169
857.263	3211
857.397	3256
857.53	3123
857.664	3214
857.797	3180
857.931	3241
858.064	3150
858.197	3230
858.331	3104
858.464	3085
858.597	3009
858.731	3093
858.864	3138
858.997	3085
859.13	3116
859.263	3176
859.396	3203
859.529	3066
859.662	3017
859.795	3047
859.928	3108
860.061	3279
860.194	3283
860.327	3161
860.46	3108
860.592	3199
860.725	3233
860.858	3279
860.99	3085
861.123	3039
861.256	3058
861.388	3161
861.521	3736
861.653	3001
861.786	3013
861.918	2956
862.05	3081
862.183	3093
862.315	3127
862.447	3195
862.58	3097
862.712	2975
862.844	2849
862.976	3047
863.108	3001
863.24	3313
863.372	2853
863.504	2990
863.636	2963
863.768	3047
863.9	3001
864.032	2910
864.164	2933
864.296	2986
864.428	3081
864.559	3081
864.691	3062
864.823	3017
864.954	3001
865.086	3051
865.217	2971
865.349	2967
865.48	3009
865.612	3009
865.743	3119
865.875	2975
866.006	2925
866.137	2948
866.269	2944
866.4	2914
866.531	2937
866.662	2899
866.793	2876
866.924	2887
867.055	2963
867.186	2922
867.317	2861
867.448	2838
867.579	2815
867.71	2826
867.841	2796
867.972	2925
868.103	2880
868.233	2883
868.364	2895
868.495	2876
868.625	3074
868.756	3173
868.886	2956
869.017	2979
869.147	3176
869.278	3157
869.408	3005
869.539	3028
869.669	3066
869.799	3036
869.929	3146
870.06	3108
870.19	3329
870.32	3287
870.45	3302
870.58	3389
870.71	3447
870.84	3439
870.97	3294
871.1	3214
871.23	3462
871.36	3447
871.489	3351
871.619	3435
871.749	3344
871.879	3447
872.008	3466
872.138	3382
872.267	3256
872.397	3116
872.526	3097
872.656	3001
872.785	3097
872.915	3241
873.044	3302
873.173	3222
873.303	3230
873.432	3230
873.561	3222
873.69	3135
873.819	3165
873.948	3173
874.077	3085
874.206	3032
874.335	3020
874.464	3272
874.593	3325
874.722	3245
874.851	3386
874.979	3344
875.108	3291
875.237	3176
875.365	3131
875.494	3146
875.623	3237
875.751	3066
875.88	3108
876.008	3176
876.136	3226
876.265	3355
876.393	3485
876.521	3443
876.65	3401
876.778	3348
876.906	3264
877.034	3184
877.162	3173
877.29	3142
877.418	3241
877.546	3253
877.674	3203
877.802	3214
877.93	3222
878.058	3154
878.185	3089
878.313	3241
878.441	3207
878.568	3032
878.696	3176
878.824	3275
878.951	3310
879.079	3428
879.206	3618
879.333	3424
879.461	3336
879.588	3359
879.715	3458
879.842	3534
879.97	3405
880.097	3188
880.224	3135
880.351	3188
880.478	3199
880.605	3192
880.732	3180
880.859	3473
880.986	3291
881.112	3298
881.239	3173
881.366	3074
881.493	3024
881.619	3047
881.746	3077
881.872	3062
881.999	3116
882.125	3112
882.252	3245
882.378	3275
882.505	3424
882.631	3287
882.757	3146
882.883	3214
883.01	3203
883.136	3123
883.262	3074
883.388	3089
883.514	3321
883.64	3348
883.766	3302
883.892	3222
884.018	3207
884.143	3370
884.269	3553
884.395	3184
884.52	3150
884.646	3165
884.772	3081
884.897	3074
885.023	3218
885.148	3329
885.274	3401
885.399	3351
885.524	3260
885.65	3283
885.775	3355
885.9	3283
886.025	3401
886.15	3336
886.275	3272
886.4	3218
886.525	3302
886.65	3291
886.775	3272
886.9	3492
887.025	3606
887.149	3424
887.274	3230
887.399	3173
887.523	3233
887.648	3214
887.773	3203
887.897	3367
888.021	3370
888.146	3306
888.27	3462
888.395	3545
888.519	3416
888.643	3454
888.767	3447
888.891	3325
889.015	3264
889.139	3249
889.263	3226
889.387	3412
889.511	3500
889.635	3485
889.759	3264
889.883	3298
890.006	3401
890.13	3485
890.254	3275
890.377	3359
890.501	3173
890.624	3176
890.748	3275
890.871	3169
890.995	3077
891.118	3066
891.241	3192
891.364	3207
891.488	3291
891.611	3169
891.734	3199
891.857	3321
891.98	3253
892.103	3291
892.226	3279
892.349	3275
892.471	3116
892.594	3241
892.717	3275
892.839	3256
892.962	3310
893.085	3355
893.207	3268
893.33	3131
893.452	3146
893.575	3310
893.697	3211
893.819	3496
893.941	3481
894.064	3439
894.186	3268
894.308	3241
894.43	3405
894.552	3500
894.674	3481
894.796	3268
894.918	3329
895.04	3302
895.161	3416
895.283	3389
895.405	3321
895.526	3332
895.648	3416
895.769	3389
895.891	3435
896.012	3458
896.134	3500
896.255	3412
896.376	3382
896.498	3351
896.619	3428
896.74	3382
896.861	3378
896.982	3667
897.103	3835
897.224	3625
897.345	3511
897.466	3405
897.587	3492
897.708	3644
897.828	3530
897.949	3424
898.07	3332
898.19	3389
898.311	3603
898.431	3431
898.552	3496
898.672	3564
898.792	3568
898.913	3534
899.033	3370
899.153	3283
899.273	3192
899.393	3264
899.513	3302
899.633	3264
899.753	3325
899.873	3287
899.993	3374
900.113	3351
900.232	3389
900.352	3329
900.472	3294
900.591	3203
900.711	3279
900.83	3253
900.95	3389
901.069	3488
901.189	3321
901.308	3150
901.427	3112
901.546	3157
901.665	3291
901.784	3287
901.904	3218
902.023	3169
902.141	3047
902.26	2982
902.379	3146
902.498	3058
902.617	3036
902.735	3180
902.854	3264
902.973	3173
903.091	3013
903.21	3051
903.328	3165
903.446	3112
903.565	3081
903.683	3214
903.801	3081
903.919	3218
904.038	3302
904.156	3173
904.274	3272
904.392	3260
904.51	3287
904.627	3348
904.745	3431
904.863	3473
904.981	3260
905.098	3150
905.216	3237
905.334	3291
905.451	3256
905.569	3313
905.686	3389
905.803	3450
905.921	3241
906.038	3389
906.155	3332
906.272	3264
906.389	3332
906.506	3211
906.623	3237
906.74	3245
906.857	3180
906.974	3275
907.091	3435
907.208	3557
907.324	3473
907.441	3351
907.557	3218
907.674	3218
907.79	3218
907.907	3298
908.023	3355
908.139	3351
908.256	3329
908.372	3363
908.488	3348
908.604	3260
908.72	3184
908.836	3279
908.952	3264
909.068	3325
909.184	3492
909.3	3367
909.415	3462
909.531	3485
909.647	3283
909.762	3291
909.878	3264
909.993	3336
910.108	3302
910.224	3313
910.339	3409
910.454	3313
910.57	3321
910.685	3222
910.8	3511
910.915	3504
911.03	3428
911.145	3264
911.259	3230
911.374	3332
911.489	3249
911.604	3233
911.718	3135
911.833	3146
911.947	3009
912.062	2975
912.176	3176
912.291	3211
912.405	3241
912.519	3443
912.633	3462
912.748	3367
912.862	3272
912.976	3135
913.09	3024
913.204	3085
913.318	3199
913.431	3321
913.545	3310
913.659	3378
913.772	3313
913.886	3226
914	3180
914.113	3344
914.226	3389
914.34	3351
914.453	3222
914.566	3409
914.68	3294
914.793	3321
914.906	3116
915.019	3135
915.132	3074
915.245	3211
915.358	3192
915.47	3233
915.583	3272
915.696	3268
915.809	3409
915.921	3409
916.034	3287
916.146	3268
916.259	3195
916.371	3370
916.483	3367
916.595	3264
916.708	3340
916.82	3310
916.932	3317
917.044	3367
917.156	3321
917.268	3226
917.38	3279
917.491	3260
917.603	3367
917.715	3424
917.826	3481
917.938	3344
918.049	3260
918.161	3428
918.272	3572
918.384	3542
918.495	3507
918.606	3344
918.717	3291
918.828	3428
918.939	3428
919.05	3279
919.161	3348
919.272	3195
919.383	3249
919.494	3500
919.604	3667
919.715	3488
919.826	3439
919.936	3454
920.047	3568
920.157	3572
920.267	3743
920.378	3576
920.488	3587
920.598	3759
920.708	3979
920.818	3804
920.928	3812
921.038	4017
921.148	3975
921.258	3705
921.368	3652
921.477	3561
921.587	3538
921.697	3469
921.806	3599
921.916	3515
922.025	3363
922.134	3382
922.244	3313
922.353	3401
922.462	3256
922.571	3211
922.68	3100
922.789	3062
922.898	3142
923.007	3070
923.116	3207
923.224	3188
923.333	3142
923.442	3100
923.55	3123
923.659	3157
923.767	3230
923.876	3085
923.984	3211
924.092	3100
924.201	3169
924.309	3226
924.417	3253
924.525	3157
924.633	3218
924.741	4006
924.849	3036
924.956	3268
925.064	3108
925.172	3036
925.279	3089
925.387	3173
925.494	3237
925.602	3351
925.709	3344
925.816	3188
925.924	3233
926.031	3374
926.138	3325
926.245	3382
926.352	3233
926.459	3439
926.566	3401
926.673	3291
926.779	3253
926.886	3233
926.993	3119
927.099	3146
927.206	3127
927.312	3085
927.419	3233
927.525	3218
927.631	3291
927.737	3154
927.843	3108
927.95	3039
928.056	3138
928.162	3195
928.267	3230
928.373	3842
928.479	3325
928.585	3043
928.69	3241
928.796	3272
928.901	3207
929.007	3024
929.112	3195
929.218	3176
929.323	3146
929.428	3150
929.533	3348
929.638	3138
929.743	3127
929.848	3260
929.953	3207
930.058	3161
930.163	2975
930.267	3055
930.372	3169
930.477	3009
930.581	3325
930.685	3169
930.79	3024
930.894	3066
930.998	3116
931.103	3253
931.207	2963
931.311	2910
931.415	2906
931.519	2754
931.623	2811
