Data from test_V78500241_935.txt Node
Date: Fri Mar 25 16:21:40 CST 2022
User: usil
Spectrometer: V785-0024
Trigger mode: 0
Integration Time (sec): 4.000000E-1
Scans to average: 1
Nonlinearity correction enabled: false
Boxcar width: 0
Storing dark spectrum: false
XAxis mode: Wavelengths
Number of Pixels in Spectrum: 1024
>>>>>Begin Spectral Data<<<<<
801.071	2914
801.214	2933
801.356	2876
801.499	2910
801.641	2872
801.783	2891
801.926	3043
802.068	2956
802.211	2979
802.353	3024
802.496	2944
802.638	2998
802.78	3009
802.923	3058
803.065	3017
803.208	2906
803.35	2887
803.492	2948
803.635	2906
803.777	2766
803.919	2842
804.061	3203
804.204	2918
804.346	2937
804.488	2849
804.63	2971
804.773	2872
804.915	2906
805.057	3093
805.199	2925
805.341	2948
805.483	3032
805.626	3024
805.768	2956
805.91	3047
806.052	3116
806.194	3043
806.336	3203
806.478	3039
806.62	2963
806.762	2941
806.904	3047
807.046	3116
807.188	2979
807.33	2918
807.472	2994
807.614	2914
807.756	2990
807.898	2891
808.04	2880
808.182	2941
808.324	2937
808.465	2891
808.607	2902
808.749	2800
808.891	2868
809.033	2986
809.174	2963
809.316	2899
809.458	2880
809.6	2785
809.741	2766
809.883	2766
810.025	2826
810.166	2838
810.308	2834
810.45	2826
810.591	2804
810.733	2766
810.875	2804
811.016	2788
811.158	2766
811.299	2807
811.441	2929
811.582	2918
811.724	2830
811.865	2788
812.007	2891
812.148	2880
812.29	2834
812.431	2880
812.573	2914
812.714	2948
812.855	3070
812.997	3036
813.138	3108
813.279	3020
813.421	2994
813.562	2952
813.703	2891
813.845	2883
813.986	2777
814.127	2727
814.268	2842
814.41	2830
814.551	2811
814.692	2853
814.833	2849
814.974	2853
815.115	2960
815.256	2800
815.397	2788
815.539	2861
815.68	2754
815.821	2796
815.962	2948
816.103	2929
816.244	2845
816.385	2868
816.526	2952
816.666	2918
816.807	2735
816.948	2899
817.089	2880
817.23	2868
817.371	2754
817.512	2838
817.653	2838
817.793	2811
817.934	2887
818.075	2948
818.216	2990
818.356	2998
818.497	2864
818.638	2796
818.778	2788
818.919	2758
819.06	2727
819.2	2895
819.341	2800
819.481	2777
819.622	2918
819.762	3119
819.903	3051
820.043	2941
820.184	2887
820.324	2857
820.465	3013
820.605	2994
820.746	3028
820.886	2906
821.026	3131
821.167	3146
821.307	3241
821.447	3306
821.588	3222
821.728	3184
821.868	3180
822.008	3085
822.149	3192
822.289	3237
822.429	3085
822.569	3070
822.709	3180
822.849	3001
822.99	3093
823.13	3180
823.27	3226
823.41	3104
823.55	3131
823.69	3161
823.83	3203
823.97	3077
824.11	3013
824.25	2982
824.389	3043
824.529	3108
824.669	3100
824.809	3192
824.949	3226
825.089	3188
825.228	3157
825.368	2994
825.508	2929
825.648	2948
825.787	2975
825.927	2979
826.067	2925
826.206	2963
826.346	3055
826.485	3104
826.625	3093
826.765	3233
826.904	3211
827.044	2994
827.183	2948
827.323	2872
827.462	2979
827.601	2902
827.741	2937
827.88	2944
828.02	2834
828.159	2967
828.298	3039
828.437	3085
828.577	3039
828.716	3214
828.855	3104
828.994	2922
829.134	2910
829.273	2925
829.412	2872
829.551	2872
829.69	2849
829.829	2967
829.968	3116
830.107	3028
830.246	3039
830.385	2933
830.524	2891
830.663	2777
830.802	2769
830.941	2640
831.08	2663
831.219	2735
831.357	2743
831.496	2933
831.635	2697
831.774	2644
831.913	2648
832.051	2530
832.19	2568
832.329	2655
832.467	2507
832.606	2488
832.744	2571
832.883	2575
833.022	2560
833.16	2632
833.299	2686
833.437	2708
833.576	2689
833.714	2720
833.852	2727
833.991	2773
834.129	2826
834.267	2788
834.406	2800
834.544	2880
834.682	2899
834.821	2857
834.959	3047
835.097	2872
835.235	3081
835.373	2990
835.511	3028
835.65	2937
835.788	2960
835.926	2849
836.064	2796
836.202	2819
836.34	3100
836.478	3184
836.615	3043
836.753	3150
836.891	3180
837.029	3146
837.167	3116
837.305	3043
837.443	3005
837.58	2963
837.718	3131
837.856	3062
837.993	3017
838.131	3097
838.269	3131
838.406	3108
838.544	3066
838.681	2929
838.819	2876
838.956	2800
839.094	2819
839.231	2902
839.369	2982
839.506	3348
839.643	3207
839.781	2994
839.918	2952
840.055	3070
840.193	3020
840.33	3036
840.467	3097
840.604	3138
840.742	3370
840.879	3058
841.016	3028
841.153	3154
841.29	3329
841.427	3313
841.564	3237
841.701	3279
841.838	3241
841.975	3154
842.112	3237
842.249	3093
842.385	3051
842.522	3230
842.659	3089
842.796	3093
842.933	3093
843.069	3055
843.206	3043
843.343	3146
843.479	3104
843.616	3150
843.752	2872
843.889	2857
844.025	3036
844.162	2838
844.298	3055
844.435	2944
844.571	2910
844.708	3062
844.844	3165
844.98	3233
845.117	3180
845.253	3024
845.389	3005
845.525	3043
845.661	3074
845.798	2994
845.934	3119
846.07	3043
846.206	3203
846.342	3332
846.478	3222
846.614	3047
846.75	3066
846.886	2979
847.022	3207
847.158	3127
847.294	3211
847.429	3249
847.565	3192
847.701	3466
847.837	3005
847.972	2960
848.108	3161
848.244	3150
848.379	3005
848.515	2910
848.65	2944
848.786	2990
848.921	3051
849.057	3081
849.192	3195
849.328	3058
849.463	3093
849.598	3036
849.734	3028
849.869	3001
850.004	2902
850.14	2944
850.275	2899
850.41	2823
850.545	2876
850.68	2956
850.815	2918
850.95	2986
851.085	3157
851.22	3077
851.355	3047
851.49	2994
851.625	2952
851.76	2986
851.895	2944
852.03	2895
852.165	3097
852.299	3119
852.434	3192
852.569	3100
852.703	3157
852.838	3264
852.973	3313
853.107	3287
853.242	3169
853.376	3055
853.511	2948
853.645	3024
853.78	3199
853.914	3146
854.048	3138
854.183	3085
854.317	3119
854.451	3294
854.585	3119
854.72	3036
854.854	3169
854.988	3039
855.122	3089
855.256	2994
855.39	3138
855.524	3214
855.658	3184
855.792	3135
855.926	3180
856.06	3222
856.194	3241
856.327	3165
856.461	3070
856.595	3047
856.729	3093
856.862	3226
856.996	3146
857.13	3161
857.263	3245
857.397	3272
857.53	3154
857.664	3199
857.797	3222
857.931	3272
858.064	3157
858.197	3203
858.331	3123
858.464	3058
858.597	3024
858.731	3104
858.864	3131
858.997	3070
859.13	3142
859.263	3154
859.396	3176
859.529	3108
859.662	3085
859.795	3020
859.928	3108
860.061	3264
860.194	3329
860.327	3123
860.46	3097
860.592	3222
860.725	3245
860.858	3249
860.99	3116
861.123	3047
861.256	3055
861.388	3116
861.521	3854
861.653	2998
861.786	2982
861.918	2994
862.05	3047
862.183	3081
862.315	3123
862.447	3188
862.58	3066
862.712	2952
862.844	2868
862.976	2994
863.108	2979
863.24	3416
863.372	2868
863.504	2956
863.636	2967
863.768	2975
863.9	2998
864.032	2944
864.164	2933
864.296	2998
864.428	3070
864.559	3123
864.691	3036
864.823	3066
864.954	3047
865.086	3028
865.217	2982
865.349	2994
865.48	2982
865.612	3009
865.743	3157
865.875	2979
866.006	2960
866.137	2948
866.269	2963
866.4	2944
866.531	2895
866.662	2922
866.793	2891
866.924	2857
867.055	2948
867.186	2948
867.317	2887
867.448	2811
867.579	2830
867.71	2853
867.841	2823
867.972	2883
868.103	2842
868.233	2864
868.364	2887
868.495	2842
868.625	3036
868.756	3119
868.886	2998
869.017	3009
869.147	3154
869.278	3135
869.408	3043
869.539	3013
869.669	3074
869.799	3058
869.929	3112
870.06	3093
870.19	3340
870.32	3272
870.45	3302
870.58	3359
870.71	3462
870.84	3481
870.97	3291
871.1	3180
871.23	3447
871.36	3458
871.489	3405
871.619	3393
871.749	3401
871.879	3458
872.008	3504
872.138	3378
872.267	3256
872.397	3123
872.526	3036
872.656	2990
872.785	3116
872.915	3253
873.044	3302
873.173	3260
873.303	3233
873.432	3214
873.561	3233
873.69	3138
873.819	3146
873.948	3203
874.077	3135
874.206	3070
874.335	3051
874.464	3241
874.593	3310
874.722	3249
874.851	3431
874.979	3359
875.108	3306
875.237	3211
875.365	3173
875.494	3150
875.623	3268
875.751	3089
875.88	3089
876.008	3161
876.136	3230
876.265	3359
876.393	3496
876.521	3428
876.65	3412
876.778	3340
876.906	3226
877.034	3218
877.162	3211
877.29	3199
877.418	3233
877.546	3218
877.674	3230
877.802	3233
877.93	3222
878.058	3195
878.185	3104
878.313	3176
878.441	3203
878.568	3074
878.696	3093
878.824	3199
878.951	3321
879.079	3439
879.206	3610
879.333	3405
879.461	3287
879.588	3321
879.715	3447
879.842	3603
879.97	3367
880.097	3173
880.224	3173
880.351	3165
880.478	3195
880.605	3169
880.732	3226
880.859	3504
880.986	3302
881.112	3306
881.239	3184
881.366	3104
881.493	3043
881.619	3062
881.746	3058
881.872	3093
881.999	3077
882.125	3150
882.252	3264
882.378	3256
882.505	3466
882.631	3272
882.757	3154
882.883	3184
883.01	3218
883.136	3154
883.262	3051
883.388	3093
883.514	3287
883.64	3348
883.766	3294
883.892	3146
884.018	3226
884.143	3462
884.269	3530
884.395	3169
884.52	3150
884.646	3195
884.772	3123
884.897	3100
885.023	3214
885.148	3351
885.274	3412
885.399	3351
885.524	3253
885.65	3260
885.775	3298
885.9	3253
886.025	3462
886.15	3348
886.275	3298
886.4	3264
886.525	3298
886.65	3207
886.775	3310
886.9	3492
887.025	3614
887.149	3431
887.274	3226
887.399	3150
887.523	3214
887.648	3192
887.773	3150
887.897	3340
888.021	3393
888.146	3313
888.27	3450
888.395	3530
888.519	3450
888.643	3450
888.767	3439
888.891	3302
889.015	3214
889.139	3264
889.263	3249
889.387	3378
889.511	3454
889.635	3428
889.759	3298
889.883	3294
890.006	3389
890.13	3496
890.254	3222
890.377	3359
890.501	3176
890.624	3154
890.748	3268
890.871	3180
890.995	3138
891.118	3051
891.241	3207
891.364	3203
891.488	3351
891.611	3184
891.734	3214
891.857	3275
891.98	3211
892.103	3321
892.226	3275
892.349	3233
892.471	3112
892.594	3233
892.717	3279
892.839	3253
892.962	3260
893.085	3344
893.207	3302
893.33	3116
893.452	3195
893.575	3321
893.697	3245
893.819	3488
893.941	3458
894.064	3466
894.186	3268
894.308	3283
894.43	3435
894.552	3530
894.674	3431
894.796	3294
894.918	3283
895.04	3283
895.161	3389
895.283	3393
895.405	3310
895.526	3363
895.648	3431
895.769	3435
895.891	3443
896.012	3477
896.134	3462
896.255	3416
896.376	3431
896.498	3344
896.619	3409
896.74	3367
896.861	3393
896.982	3660
897.103	3842
897.224	3618
897.345	3496
897.466	3435
897.587	3477
897.708	3614
897.828	3492
897.949	3462
898.07	3321
898.19	3431
898.311	3568
898.431	3450
898.552	3496
898.672	3599
898.792	3572
898.913	3515
899.033	3420
899.153	3279
899.273	3218
899.393	3264
899.513	3332
899.633	3302
899.753	3313
899.873	3306
899.993	3378
900.113	3355
900.232	3382
900.352	3412
900.472	3275
900.591	3233
900.711	3310
900.83	3211
900.95	3458
901.069	3485
901.189	3321
901.308	3150
901.427	3127
901.546	3161
901.665	3283
901.784	3378
901.904	3226
902.023	3131
902.141	3020
902.26	2982
902.379	3146
902.498	3047
902.617	3055
902.735	3230
902.854	3230
902.973	3184
903.091	3028
903.21	3062
903.328	3157
903.446	3131
903.565	3127
903.683	3176
903.801	3112
903.919	3253
904.038	3294
904.156	3150
904.274	3253
904.392	3233
904.51	3291
904.627	3325
904.745	3424
904.863	3488
904.981	3249
905.098	3146
905.216	3203
905.334	3325
905.451	3260
905.569	3294
905.686	3447
905.803	3416
905.921	3268
906.038	3393
906.155	3351
906.272	3264
906.389	3294
906.506	3226
906.623	3275
906.74	3249
906.857	3192
906.974	3260
907.091	3431
907.208	3572
907.324	3481
907.441	3374
907.557	3222
907.674	3237
907.79	3192
907.907	3294
908.023	3393
908.139	3336
908.256	3294
908.372	3389
908.488	3378
908.604	3249
908.72	3268
908.836	3245
908.952	3253
909.068	3351
909.184	3511
909.3	3405
909.415	3481
909.531	3469
909.647	3241
909.762	3260
909.878	3241
909.993	3329
910.108	3336
910.224	3329
910.339	3431
910.454	3367
910.57	3279
910.685	3218
910.8	3595
910.915	3526
911.03	3431
911.145	3253
911.259	3275
911.374	3317
911.489	3230
911.604	3241
911.718	3142
911.833	3169
911.947	3017
912.062	2967
912.176	3169
912.291	3165
912.405	3203
912.519	3439
912.633	3462
912.748	3336
912.862	3260
912.976	3161
913.09	3036
913.204	3097
913.318	3226
913.431	3302
913.545	3313
913.659	3386
913.772	3348
913.886	3184
914	3188
914.113	3291
914.226	3405
914.34	3367
914.453	3245
914.566	3412
914.68	3245
914.793	3298
914.906	3112
915.019	3100
915.132	3070
915.245	3154
915.358	3211
915.47	3199
915.583	3253
915.696	3283
915.809	3378
915.921	3412
916.034	3226
916.146	3264
916.259	3214
916.371	3401
916.483	3374
916.595	3310
916.708	3332
916.82	3351
916.932	3363
917.044	3359
917.156	3340
917.268	3233
917.38	3264
917.491	3279
917.603	3370
917.715	3481
917.826	3435
917.938	3401
918.049	3291
918.161	3416
918.272	3599
918.384	3568
918.495	3500
918.606	3374
918.717	3272
918.828	3359
918.939	3397
919.05	3306
919.161	3340
919.272	3195
919.383	3291
919.494	3492
919.604	3648
919.715	3488
919.826	3389
919.936	3424
920.047	3618
920.157	3538
920.267	3778
920.378	3595
920.488	3561
920.598	3770
920.708	3953
920.818	3861
920.928	3827
921.038	3975
921.148	3987
921.258	3679
921.368	3641
921.477	3545
921.587	3545
921.697	3458
921.806	3603
921.916	3538
922.025	3344
922.134	3382
922.244	3294
922.353	3443
922.462	3275
922.571	3199
922.68	3089
922.789	3074
922.898	3154
923.007	3066
923.116	3211
923.224	3169
923.333	3169
923.442	3150
923.55	3135
923.659	3157
923.767	3211
923.876	3146
923.984	3253
924.092	3093
924.201	3169
924.309	3211
924.417	3253
924.525	3184
924.633	3222
924.741	4169
924.849	3051
924.956	3237
925.064	3085
925.172	3047
925.279	3093
925.387	3184
925.494	3203
925.602	3370
925.709	3340
925.816	3184
925.924	3283
926.031	3424
926.138	3294
926.245	3321
926.352	3241
926.459	3439
926.566	3424
926.673	3321
926.779	3245
926.886	3275
926.993	3154
927.099	3138
927.206	3127
927.312	3131
927.419	3214
927.525	3180
927.631	3237
927.737	3169
927.843	3116
927.95	3039
928.056	3146
928.162	3146
928.267	3268
928.373	3911
928.479	3302
928.585	3047
928.69	3195
928.796	3291
928.901	3165
929.007	3043
929.112	3161
929.218	3188
929.323	3161
929.428	3131
929.533	3302
929.638	3108
929.743	3169
929.848	3287
929.953	3218
930.058	3176
930.163	2998
930.267	3039
930.372	3188
930.477	3043
930.581	3317
930.685	3165
930.79	3028
930.894	3146
930.998	3108
931.103	3256
931.207	2933
931.311	2952
931.415	2925
931.519	2739
931.623	2819
