Data from test_V78500241_122.txt Node
Date: Fri Mar 25 16:16:02 CST 2022
User: usil
Spectrometer: V785-0024
Trigger mode: 0
Integration Time (sec): 4.000000E-1
Scans to average: 1
Nonlinearity correction enabled: false
Boxcar width: 0
Storing dark spectrum: false
XAxis mode: Wavelengths
Number of Pixels in Spectrum: 1024
>>>>>Begin Spectral Data<<<<<
801.071	2990
801.214	3001
801.356	2922
801.499	2944
801.641	2902
801.783	2967
801.926	3127
802.068	3020
802.211	3001
802.353	3100
802.496	3036
802.638	3058
802.78	3100
802.923	3119
803.065	3032
803.208	2929
803.35	2937
803.492	2944
803.635	3001
803.777	2804
803.919	2952
804.061	3245
804.204	2990
804.346	2937
804.488	2880
804.63	3032
804.773	2902
804.915	2952
805.057	3123
805.199	2971
805.341	3013
805.483	3070
805.626	3074
805.768	2998
805.91	3127
806.052	3173
806.194	3074
806.336	3310
806.478	3039
806.62	2979
806.762	3013
806.904	3085
807.046	3207
807.188	3013
807.33	2975
807.472	3017
807.614	2956
807.756	3001
807.898	2944
808.04	2952
808.182	2994
808.324	2979
808.465	2960
808.607	2933
808.749	2845
808.891	2933
809.033	2994
809.174	2994
809.316	2956
809.458	2952
809.6	2826
809.741	2849
809.883	2845
810.025	2853
810.166	2918
810.308	2864
810.45	2895
810.591	2811
810.733	2819
810.875	2895
811.016	2819
811.158	2815
811.299	2891
811.441	2975
811.582	2963
811.724	2887
811.865	2868
812.007	2963
812.148	2895
812.29	2883
812.431	2941
812.573	2971
812.714	3039
812.855	3058
812.997	3074
813.138	3142
813.279	3066
813.421	3017
813.562	2971
813.703	2948
813.845	2948
813.986	2853
814.127	2777
814.268	2845
814.41	2887
814.551	2853
814.692	2914
814.833	2849
814.974	2918
815.115	2986
815.256	2891
815.397	2830
815.539	2948
815.68	2834
815.821	2853
815.962	2990
816.103	3001
816.244	2914
816.385	2899
816.526	2998
816.666	2975
816.807	2811
816.948	2918
817.089	2941
817.23	2906
817.371	2826
817.512	2853
817.653	2861
817.793	2872
817.934	2922
818.075	3013
818.216	3070
818.356	3081
818.497	2933
818.638	2853
818.778	2830
818.919	2872
819.06	2811
819.2	2944
819.341	2857
819.481	2857
819.622	2979
819.762	3188
819.903	3058
820.043	2975
820.184	2944
820.324	2960
820.465	3085
820.605	3028
820.746	3058
820.886	3001
821.026	3146
821.167	3184
821.307	3332
821.447	3310
821.588	3306
821.728	3253
821.868	3241
822.008	3154
822.149	3214
822.289	3237
822.429	3173
822.569	3146
822.709	3199
822.849	3066
822.99	3123
823.13	3245
823.27	3287
823.41	3135
823.55	3218
823.69	3199
823.83	3268
823.97	3146
824.11	3036
824.25	3017
824.389	3127
824.529	3135
824.669	3135
824.809	3233
824.949	3226
825.089	3302
825.228	3195
825.368	3020
825.508	2982
825.648	2990
825.787	3058
825.927	3104
826.067	3020
826.206	2982
826.346	3085
826.485	3131
826.625	3154
826.765	3256
826.904	3253
827.044	3028
827.183	2975
827.323	2902
827.462	3005
827.601	2952
827.741	2948
827.88	3020
828.02	2922
828.159	3020
828.298	3058
828.437	3176
828.577	3085
828.716	3264
828.855	3112
828.994	2960
829.134	2902
829.273	2952
829.412	2944
829.551	2899
829.69	2933
829.829	3020
829.968	3150
830.107	3104
830.246	3051
830.385	2963
830.524	2918
830.663	2883
830.802	2766
830.941	2712
831.08	2659
831.219	2819
831.357	2819
831.496	2979
831.635	2773
831.774	2689
831.913	2701
832.051	2590
832.19	2613
832.329	2746
832.467	2613
832.606	2526
832.744	2598
832.883	2644
833.022	2613
833.16	2701
833.299	2739
833.437	2712
833.576	2720
833.714	2766
833.852	2766
833.991	2811
834.129	2857
834.267	2876
834.406	2842
834.544	2933
834.682	2914
834.821	2918
834.959	3085
835.097	2925
835.235	3116
835.373	2994
835.511	3089
835.65	2960
835.788	2998
835.926	2842
836.064	2830
836.202	2861
836.34	3173
836.478	3195
836.615	3104
836.753	3169
836.891	3230
837.029	3245
837.167	3150
837.305	3089
837.443	3055
837.58	2990
837.718	3161
837.856	3097
837.993	3070
838.131	3165
838.269	3169
838.406	3157
838.544	3127
838.681	2990
838.819	2975
838.956	2830
839.094	2838
839.231	2975
839.369	3074
839.506	3405
839.643	3272
839.781	3047
839.918	3009
840.055	3093
840.193	3093
840.33	3081
840.467	3135
840.604	3195
840.742	3431
840.879	3085
841.016	3112
841.153	3135
841.29	3393
841.427	3310
841.564	3298
841.701	3329
841.838	3272
841.975	3230
842.112	3272
842.249	3116
842.385	3081
842.522	3302
842.659	3097
842.796	3089
842.933	3127
843.069	3070
843.206	3100
843.343	3237
843.479	3146
843.616	3173
843.752	2887
843.889	2906
844.025	3131
844.162	2956
844.298	3112
844.435	2986
844.571	2952
844.708	3123
844.844	3245
844.98	3283
845.117	3222
845.253	3081
845.389	3024
845.525	3138
845.661	3131
845.798	3058
845.934	3176
846.07	3070
846.206	3241
846.342	3348
846.478	3283
846.614	3146
846.75	3100
846.886	3039
847.022	3302
847.158	3199
847.294	3245
847.429	3272
847.565	3253
847.701	3519
847.837	3051
847.972	3028
848.108	3184
848.244	3188
848.379	3017
848.515	2960
848.65	3001
848.786	3001
848.921	3028
849.057	3150
849.192	3184
849.328	3074
849.463	3150
849.598	3089
849.734	3039
849.869	3020
850.004	2948
850.14	3005
850.275	2922
850.41	2876
850.545	2933
850.68	2963
850.815	3013
850.95	3036
851.085	3222
851.22	3154
851.355	3074
851.49	3005
851.625	3062
851.76	3062
851.895	2967
852.03	2941
852.165	3062
852.299	3142
852.434	3207
852.569	3169
852.703	3230
852.838	3275
852.973	3397
853.107	3351
853.242	3211
853.376	3127
853.511	3009
853.645	3066
853.78	3233
853.914	3154
854.048	3123
854.183	3146
854.317	3195
854.451	3340
854.585	3161
854.72	3138
854.854	3226
854.988	3077
855.122	3116
855.256	3009
855.39	3157
855.524	3294
855.658	3245
855.792	3161
855.926	3207
856.06	3253
856.194	3302
856.327	3157
856.461	3131
856.595	3142
856.729	3146
856.862	3245
856.996	3226
857.13	3214
857.263	3264
857.397	3291
857.53	3176
857.664	3226
857.797	3272
857.931	3306
858.064	3169
858.197	3245
858.331	3157
858.464	3112
858.597	3017
858.731	3169
858.864	3131
858.997	3108
859.13	3199
859.263	3184
859.396	3230
859.529	3142
859.662	3081
859.795	3089
859.928	3169
860.061	3310
860.194	3287
860.327	3161
860.46	3154
860.592	3245
860.725	3260
860.858	3294
860.99	3157
861.123	3100
861.256	3112
861.388	3203
861.521	3865
861.653	3043
861.786	2990
861.918	3009
862.05	3116
862.183	3180
862.315	3192
862.447	3260
862.58	3123
862.712	2963
862.844	2902
862.976	3058
863.108	3058
863.24	3431
863.372	2902
863.504	2994
863.636	2971
863.768	3020
863.9	3032
864.032	2941
864.164	2982
864.296	3062
864.428	3112
864.559	3138
864.691	3108
864.823	3127
864.954	3051
865.086	3104
865.217	3024
865.349	3005
865.48	3047
865.612	3005
865.743	3199
865.875	3032
866.006	2998
866.137	2998
866.269	3009
866.4	2944
866.531	2933
866.662	2906
866.793	2899
866.924	2925
867.055	2990
867.186	2979
867.317	2918
867.448	2861
867.579	2861
867.71	2914
867.841	2834
867.972	2910
868.103	2952
868.233	2925
868.364	2906
868.495	2887
868.625	3108
868.756	3222
868.886	3017
869.017	3047
869.147	3207
869.278	3192
869.408	3116
869.539	3085
869.669	3154
869.799	3077
869.929	3169
870.06	3119
870.19	3313
870.32	3329
870.45	3351
870.58	3370
870.71	3504
870.84	3496
870.97	3294
871.1	3332
871.23	3469
871.36	3545
871.489	3389
871.619	3428
871.749	3443
871.879	3450
872.008	3519
872.138	3420
872.267	3310
872.397	3195
872.526	3142
872.656	3062
872.785	3112
872.915	3264
873.044	3363
873.173	3275
873.303	3230
873.432	3272
873.561	3253
873.69	3218
873.819	3203
873.948	3230
874.077	3135
874.206	3047
874.335	3100
874.464	3241
874.593	3397
874.722	3268
874.851	3435
874.979	3374
875.108	3355
875.237	3245
875.365	3203
875.494	3207
875.623	3253
875.751	3157
875.88	3157
876.008	3256
876.136	3249
876.265	3435
876.393	3549
876.521	3424
876.65	3435
876.778	3378
876.906	3237
877.034	3203
877.162	3245
877.29	3199
877.418	3283
877.546	3313
877.674	3287
877.802	3260
877.93	3287
878.058	3195
878.185	3138
878.313	3218
878.441	3226
878.568	3093
878.696	3150
878.824	3291
878.951	3329
879.079	3428
879.206	3633
879.333	3477
879.461	3370
879.588	3370
879.715	3496
879.842	3663
879.97	3431
880.097	3203
880.224	3154
880.351	3195
880.478	3256
880.605	3176
880.732	3222
880.859	3488
880.986	3317
881.112	3378
881.239	3230
881.366	3150
881.493	3058
881.619	3020
881.746	3093
881.872	3142
881.999	3135
882.125	3176
882.252	3283
882.378	3268
882.505	3466
882.631	3294
882.757	3211
882.883	3264
883.01	3226
883.136	3154
883.262	3123
883.388	3131
883.514	3382
883.64	3397
883.766	3367
883.892	3230
884.018	3253
884.143	3458
884.269	3564
884.395	3233
884.52	3180
884.646	3222
884.772	3173
884.897	3165
885.023	3230
885.148	3344
885.274	3466
885.399	3378
885.524	3302
885.65	3321
885.775	3336
885.9	3283
886.025	3481
886.15	3336
886.275	3336
886.4	3241
886.525	3378
886.65	3313
886.775	3310
886.9	3526
887.025	3663
887.149	3431
887.274	3287
887.399	3192
887.523	3218
887.648	3199
887.773	3199
887.897	3382
888.021	3389
888.146	3329
888.27	3481
888.395	3576
888.519	3447
888.643	3462
888.767	3466
888.891	3336
889.015	3283
889.139	3310
889.263	3287
889.387	3447
889.511	3515
889.635	3454
889.759	3325
889.883	3313
890.006	3386
890.13	3485
890.254	3306
890.377	3412
890.501	3226
890.624	3226
890.748	3302
890.871	3214
890.995	3138
891.118	3104
891.241	3256
891.364	3264
891.488	3348
891.611	3211
891.734	3302
891.857	3306
891.98	3264
892.103	3363
892.226	3283
892.349	3237
892.471	3119
892.594	3249
892.717	3313
892.839	3272
892.962	3291
893.085	3382
893.207	3310
893.33	3218
893.452	3195
893.575	3340
893.697	3249
893.819	3481
893.941	3542
894.064	3477
894.186	3306
894.308	3306
894.43	3469
894.552	3576
894.674	3450
894.796	3310
894.918	3332
895.04	3329
895.161	3473
895.283	3389
895.405	3363
895.526	3401
895.648	3447
895.769	3462
895.891	3488
896.012	3542
896.134	3492
896.255	3469
896.376	3397
896.498	3355
896.619	3481
896.74	3382
896.861	3409
896.982	3720
897.103	3873
897.224	3591
897.345	3549
897.466	3477
897.587	3485
897.708	3652
897.828	3584
897.949	3473
898.07	3351
898.19	3412
898.311	3629
898.431	3462
898.552	3557
898.672	3603
898.792	3564
898.913	3549
899.033	3428
899.153	3306
899.273	3275
899.393	3313
899.513	3313
899.633	3340
899.753	3382
899.873	3348
899.993	3389
900.113	3386
900.232	3401
900.352	3344
900.472	3321
900.591	3207
900.711	3351
900.83	3264
900.95	3393
901.069	3523
901.189	3367
901.308	3214
901.427	3157
901.546	3264
901.665	3306
901.784	3374
901.904	3203
902.023	3165
902.141	3043
902.26	3036
902.379	3150
902.498	3138
902.617	3081
902.735	3207
902.854	3245
902.973	3226
903.091	3085
903.21	3127
903.328	3127
903.446	3176
903.565	3108
903.683	3214
903.801	3142
903.919	3256
904.038	3317
904.156	3173
904.274	3329
904.392	3272
904.51	3325
904.627	3344
904.745	3477
904.863	3504
904.981	3287
905.098	3173
905.216	3279
905.334	3298
905.451	3332
905.569	3367
905.686	3435
905.803	3488
905.921	3313
906.038	3454
906.155	3382
906.272	3260
906.389	3359
906.506	3233
906.623	3283
906.74	3306
906.857	3237
906.974	3321
907.091	3481
907.208	3580
907.324	3515
907.441	3416
907.557	3264
907.674	3249
907.79	3260
907.907	3310
908.023	3428
908.139	3428
908.256	3340
908.372	3409
908.488	3367
908.604	3325
908.72	3230
908.836	3317
908.952	3298
909.068	3321
909.184	3496
909.3	3424
909.415	3523
909.531	3466
909.647	3283
909.762	3302
909.878	3310
909.993	3389
910.108	3344
910.224	3363
910.339	3435
910.454	3367
910.57	3313
910.685	3283
910.8	3618
910.915	3564
911.03	3473
911.145	3313
911.259	3310
911.374	3336
911.489	3272
911.604	3249
911.718	3104
911.833	3154
911.947	3058
912.062	3020
912.176	3233
912.291	3249
912.405	3275
912.519	3431
912.633	3477
912.748	3344
912.862	3325
912.976	3230
913.09	3070
913.204	3157
913.318	3253
913.431	3389
913.545	3386
913.659	3416
913.772	3336
913.886	3264
914	3230
914.113	3374
914.226	3401
914.34	3420
914.453	3283
914.566	3431
914.68	3329
914.793	3348
914.906	3184
915.019	3157
915.132	3150
915.245	3222
915.358	3211
915.47	3272
915.583	3264
915.696	3298
915.809	3447
915.921	3439
916.034	3272
916.146	3291
916.259	3245
916.371	3405
916.483	3409
916.595	3279
916.708	3367
916.82	3325
916.932	3409
917.044	3386
917.156	3336
917.268	3237
917.38	3329
917.491	3279
917.603	3378
917.715	3447
917.826	3466
917.938	3367
918.049	3279
918.161	3431
918.272	3606
918.384	3587
918.495	3485
918.606	3397
918.717	3287
918.828	3386
918.939	3424
919.05	3340
919.161	3431
919.272	3241
919.383	3313
919.494	3526
919.604	3717
919.715	3511
919.826	3431
919.936	3454
920.047	3603
920.157	3584
920.267	3755
920.378	3622
920.488	3606
920.598	3819
920.708	4006
920.818	3861
920.928	3854
921.038	4059
921.148	3975
921.258	3751
921.368	3637
921.477	3618
921.587	3561
921.697	3439
921.806	3622
921.916	3572
922.025	3378
922.134	3409
922.244	3321
922.353	3458
922.462	3272
922.571	3256
922.68	3138
922.789	3055
922.898	3157
923.007	3138
923.116	3230
923.224	3180
923.333	3195
923.442	3123
923.55	3077
923.659	3150
923.767	3253
923.876	3123
923.984	3264
924.092	3142
924.201	3214
924.309	3279
924.417	3253
924.525	3233
924.633	3237
924.741	4204
924.849	3077
924.956	3306
925.064	3112
925.172	3047
925.279	3119
925.387	3230
925.494	3195
925.602	3363
925.709	3329
925.816	3207
925.924	3317
926.031	3363
926.138	3348
926.245	3363
926.352	3260
926.459	3443
926.566	3492
926.673	3329
926.779	3283
926.886	3317
926.993	3131
927.099	3097
927.206	3138
927.312	3123
927.419	3253
927.525	3230
927.631	3249
927.737	3184
927.843	3180
927.95	3024
928.056	3165
928.162	3199
928.267	3249
928.373	3842
928.479	3389
928.585	3097
928.69	3214
928.796	3275
928.901	3169
929.007	3093
929.112	3233
929.218	3203
929.323	3188
929.428	3203
929.533	3329
929.638	3081
929.743	3218
929.848	3291
929.953	3218
930.058	3180
930.163	3001
930.267	3070
930.372	3188
930.477	3062
930.581	3306
930.685	3218
930.79	3097
930.894	3165
930.998	3112
931.103	3272
931.207	3013
931.311	2986
931.415	2933
931.519	2819
931.623	2823
