Data from test_V78500241_879.txt Node
Date: Fri Mar 25 16:21:17 CST 2022
User: usil
Spectrometer: V785-0024
Trigger mode: 0
Integration Time (sec): 4.000000E-1
Scans to average: 1
Nonlinearity correction enabled: false
Boxcar width: 0
Storing dark spectrum: false
XAxis mode: Wavelengths
Number of Pixels in Spectrum: 1024
>>>>>Begin Spectral Data<<<<<
801.071	2910
801.214	2952
801.356	2883
801.499	2910
801.641	2857
801.783	2925
801.926	3036
802.068	2982
802.211	2990
802.353	3028
802.496	2925
802.638	3013
802.78	3039
802.923	3093
803.065	2986
803.208	2914
803.35	2922
803.492	2914
803.635	2918
803.777	2746
803.919	2872
804.061	3169
804.204	2967
804.346	2918
804.488	2849
804.63	2979
804.773	2819
804.915	2918
805.057	3066
805.199	2902
805.341	2941
805.483	3066
805.626	3039
805.768	2967
805.91	3116
806.052	3119
806.194	3032
806.336	3233
806.478	3020
806.62	2933
806.762	2944
806.904	3036
807.046	3161
807.188	2929
807.33	2864
807.472	2982
807.614	2876
807.756	3020
807.898	2914
808.04	2914
808.182	2975
808.324	2975
808.465	2925
808.607	2887
808.749	2804
808.891	2857
809.033	2948
809.174	2975
809.316	2887
809.458	2906
809.6	2754
809.741	2781
809.883	2758
810.025	2861
810.166	2849
810.308	2826
810.45	2826
810.591	2773
810.733	2773
810.875	2811
811.016	2785
811.158	2758
811.299	2834
811.441	2925
811.582	2902
811.724	2819
811.865	2815
812.007	2902
812.148	2899
812.29	2849
812.431	2857
812.573	2956
812.714	2933
812.855	3024
812.997	3039
813.138	3123
813.279	3020
813.421	2956
813.562	2944
813.703	2823
813.845	2895
813.986	2781
814.127	2743
814.268	2807
814.41	2823
814.551	2807
814.692	2864
814.833	2785
814.974	2899
815.115	2956
815.256	2804
815.397	2792
815.539	2849
815.68	2792
815.821	2781
815.962	2944
816.103	2937
816.244	2842
816.385	2876
816.526	3001
816.666	2868
816.807	2720
816.948	2876
817.089	2902
817.23	2864
817.371	2788
817.512	2758
817.653	2887
817.793	2815
817.934	2902
818.075	2956
818.216	3036
818.356	3039
818.497	2857
818.638	2796
818.778	2796
818.919	2777
819.06	2758
819.2	2876
819.341	2788
819.481	2804
819.622	2895
819.762	3116
819.903	3039
820.043	2922
820.184	2899
820.324	2880
820.465	3028
820.605	3024
820.746	3001
820.886	2975
821.026	3089
821.167	3180
821.307	3218
821.447	3275
821.588	3230
821.728	3203
821.868	3195
822.008	3104
822.149	3169
822.289	3249
822.429	3062
822.569	3066
822.709	3127
822.849	3024
822.99	3074
823.13	3180
823.27	3211
823.41	3093
823.55	3119
823.69	3146
823.83	3150
823.97	3093
824.11	2986
824.25	2998
824.389	3024
824.529	3131
824.669	3081
824.809	3214
824.949	3241
825.089	3275
825.228	3150
825.368	2990
825.508	2937
825.648	2948
825.787	2990
825.927	3013
826.067	2979
826.206	2941
826.346	3001
826.485	3062
826.625	3077
826.765	3237
826.904	3218
827.044	2963
827.183	2914
827.323	2864
827.462	3005
827.601	2941
827.741	2944
827.88	2982
828.02	2830
828.159	2971
828.298	3032
828.437	3127
828.577	3013
828.716	3268
828.855	3039
828.994	2925
829.134	2883
829.273	2918
829.412	2857
829.551	2811
829.69	2864
829.829	3020
829.968	3112
830.107	2990
830.246	3043
830.385	2899
830.524	2876
830.663	2796
830.802	2735
830.941	2651
831.08	2610
831.219	2792
831.357	2777
831.496	2933
831.635	2750
831.774	2644
831.913	2636
832.051	2545
832.19	2568
832.329	2670
832.467	2488
832.606	2499
832.744	2560
832.883	2587
833.022	2598
833.16	2636
833.299	2678
833.437	2686
833.576	2739
833.714	2724
833.852	2724
833.991	2746
834.129	2800
834.267	2792
834.406	2792
834.544	2891
834.682	2861
834.821	2849
834.959	3074
835.097	2857
835.235	3017
835.373	3017
835.511	3028
835.65	2963
835.788	2971
835.926	2845
836.064	2773
836.202	2853
836.34	3119
836.478	3112
836.615	3055
836.753	3135
836.891	3237
837.029	3127
837.167	3112
837.305	3024
837.443	2998
837.58	2952
837.718	3097
837.856	3066
837.993	3001
838.131	3131
838.269	3089
838.406	3097
838.544	3081
838.681	2925
838.819	2906
838.956	2830
839.094	2815
839.231	2891
839.369	3024
839.506	3374
839.643	3192
839.781	3024
839.918	2975
840.055	3028
840.193	3066
840.33	3043
840.467	3097
840.604	3157
840.742	3420
840.879	3058
841.016	3043
841.153	3081
841.29	3279
841.427	3279
841.564	3272
841.701	3317
841.838	3253
841.975	3214
842.112	3195
842.249	3119
842.385	3039
842.522	3218
842.659	3093
842.796	3074
842.933	3077
843.069	3058
843.206	3036
843.343	3173
843.479	3100
843.616	3138
843.752	2902
843.889	2883
844.025	3058
844.162	2868
844.298	3043
844.435	2963
844.571	2933
844.708	3058
844.844	3203
844.98	3211
845.117	3195
845.253	3017
845.389	2998
845.525	3074
845.661	3062
845.798	3043
845.934	3135
846.07	3070
846.206	3222
846.342	3321
846.478	3214
846.614	3085
846.75	3028
846.886	3047
847.022	3207
847.158	3138
847.294	3214
847.429	3253
847.565	3199
847.701	3458
847.837	3028
847.972	2979
848.108	3188
848.244	3138
848.379	3001
848.515	2910
848.65	2956
848.786	2948
848.921	2994
849.057	3066
849.192	3119
849.328	3062
849.463	3070
849.598	3017
849.734	3028
849.869	2982
850.004	2891
850.14	2971
850.275	2895
850.41	2838
850.545	2895
850.68	2899
850.815	2971
850.95	2967
851.085	3173
851.22	3081
851.355	2990
851.49	2990
851.625	2975
851.76	3017
851.895	2925
852.03	2944
852.165	3020
852.299	3131
852.434	3211
852.569	3146
852.703	3192
852.838	3260
852.973	3317
853.107	3275
853.242	3135
853.376	3081
853.511	2956
853.645	3055
853.78	3233
853.914	3138
854.048	3089
854.183	3047
854.317	3169
854.451	3306
854.585	3131
854.72	3081
854.854	3203
854.988	3062
855.122	3032
855.256	2956
855.39	3104
855.524	3207
855.658	3188
855.792	3150
855.926	3173
856.06	3192
856.194	3245
856.327	3154
856.461	3058
856.595	3093
856.729	3081
856.862	3211
856.996	3108
857.13	3195
857.263	3199
857.397	3245
857.53	3097
857.664	3169
857.797	3184
857.931	3245
858.064	3138
858.197	3199
858.331	3100
858.464	3104
858.597	3001
858.731	3123
858.864	3169
858.997	3066
859.13	3138
859.263	3135
859.396	3195
859.529	3104
859.662	3032
859.795	3066
859.928	3142
860.061	3241
860.194	3256
860.327	3157
860.46	3039
860.592	3233
860.725	3237
860.858	3218
860.99	3085
861.123	3039
861.256	3032
861.388	3116
861.521	3835
861.653	3036
861.786	2979
861.918	3024
862.05	3074
862.183	3077
862.315	3138
862.447	3203
862.58	3104
862.712	2918
862.844	2883
862.976	3032
863.108	3028
863.24	3302
863.372	2849
863.504	2952
863.636	2910
863.768	2994
863.9	2971
864.032	2861
864.164	2937
864.296	3009
864.428	3104
864.559	3108
864.691	3055
864.823	3085
864.954	3009
865.086	3024
865.217	2986
865.349	2952
865.48	2986
865.612	3017
865.743	3173
865.875	2994
866.006	2937
866.137	2956
866.269	2948
866.4	2899
866.531	2933
866.662	2899
866.793	2895
866.924	2868
867.055	3001
867.186	2944
867.317	2910
867.448	2834
867.579	2853
867.71	2853
867.841	2834
867.972	2899
868.103	2899
868.233	2872
868.364	2853
868.495	2868
868.625	3062
868.756	3138
868.886	2956
869.017	3020
869.147	3150
869.278	3157
869.408	3043
869.539	3024
869.669	3081
869.799	3013
869.929	3142
870.06	3100
870.19	3317
870.32	3298
870.45	3291
870.58	3378
870.71	3412
870.84	3447
870.97	3279
871.1	3230
871.23	3447
871.36	3462
871.489	3344
871.619	3389
871.749	3431
871.879	3443
872.008	3439
872.138	3317
872.267	3256
872.397	3146
872.526	3093
872.656	3028
872.785	3123
872.915	3233
873.044	3302
873.173	3253
873.303	3214
873.432	3222
873.561	3233
873.69	3192
873.819	3161
873.948	3165
874.077	3142
874.206	3024
874.335	3066
874.464	3203
874.593	3359
874.722	3222
874.851	3424
874.979	3332
875.108	3317
875.237	3226
875.365	3203
875.494	3154
875.623	3260
875.751	3108
875.88	3104
876.008	3165
876.136	3161
876.265	3378
876.393	3481
876.521	3424
876.65	3374
876.778	3313
876.906	3260
877.034	3207
877.162	3226
877.29	3165
877.418	3268
877.546	3249
877.674	3218
877.802	3207
877.93	3230
878.058	3123
878.185	3108
878.313	3180
878.441	3214
878.568	3013
878.696	3157
878.824	3245
878.951	3306
879.079	3428
879.206	3606
879.333	3401
879.461	3325
879.588	3359
879.715	3492
879.842	3633
879.97	3401
880.097	3119
880.224	3180
880.351	3226
880.478	3211
880.605	3184
880.732	3199
880.859	3492
880.986	3268
881.112	3321
881.239	3188
881.366	3093
881.493	3024
881.619	2994
881.746	3093
881.872	3062
881.999	3127
882.125	3104
882.252	3218
882.378	3298
882.505	3435
882.631	3294
882.757	3112
882.883	3203
883.01	3195
883.136	3154
883.262	3093
883.388	3123
883.514	3302
883.64	3355
883.766	3298
883.892	3222
884.018	3218
884.143	3405
884.269	3507
884.395	3188
884.52	3142
884.646	3169
884.772	3089
884.897	3108
885.023	3176
885.148	3310
885.274	3386
885.399	3332
885.524	3294
885.65	3233
885.775	3317
885.9	3302
886.025	3412
886.15	3355
886.275	3294
886.4	3211
886.525	3298
886.65	3321
886.775	3211
886.9	3462
887.025	3610
887.149	3389
887.274	3283
887.399	3184
887.523	3157
887.648	3195
887.773	3211
887.897	3382
888.021	3370
888.146	3283
888.27	3431
888.395	3530
888.519	3420
888.643	3462
888.767	3454
888.891	3317
889.015	3249
889.139	3298
889.263	3233
889.387	3401
889.511	3496
889.635	3428
889.759	3275
889.883	3272
890.006	3393
890.13	3481
890.254	3237
890.377	3317
890.501	3195
890.624	3154
890.748	3332
890.871	3180
890.995	3104
891.118	3081
891.241	3161
891.364	3226
891.488	3306
891.611	3195
891.734	3214
891.857	3264
891.98	3218
892.103	3329
892.226	3272
892.349	3226
892.471	3097
892.594	3264
892.717	3268
892.839	3260
892.962	3291
893.085	3325
893.207	3287
893.33	3138
893.452	3207
893.575	3287
893.697	3195
893.819	3443
893.941	3481
894.064	3401
894.186	3279
894.308	3260
894.43	3454
894.552	3511
894.674	3439
894.796	3256
894.918	3279
895.04	3283
895.161	3450
895.283	3378
895.405	3329
895.526	3340
895.648	3370
895.769	3393
895.891	3469
896.012	3431
896.134	3477
896.255	3389
896.376	3401
896.498	3367
896.619	3447
896.74	3332
896.861	3370
896.982	3660
897.103	3842
897.224	3648
897.345	3488
897.466	3435
897.587	3473
897.708	3637
897.828	3538
897.949	3466
898.07	3321
898.19	3393
898.311	3572
898.431	3443
898.552	3496
898.672	3568
898.792	3542
898.913	3488
899.033	3401
899.153	3298
899.273	3192
899.393	3306
899.513	3317
899.633	3302
899.753	3302
899.873	3291
899.993	3348
900.113	3321
900.232	3393
900.352	3344
900.472	3298
900.591	3176
900.711	3275
900.83	3233
900.95	3386
901.069	3454
901.189	3336
901.308	3165
901.427	3093
901.546	3207
901.665	3272
901.784	3329
901.904	3195
902.023	3123
902.141	3005
902.26	2979
902.379	3169
902.498	3077
902.617	3062
902.735	3230
902.854	3253
902.973	3169
903.091	3013
903.21	3058
903.328	3112
903.446	3104
903.565	3104
903.683	3169
903.801	3123
903.919	3245
904.038	3291
904.156	3180
904.274	3275
904.392	3230
904.51	3256
904.627	3321
904.745	3420
904.863	3481
904.981	3222
905.098	3169
905.216	3203
905.334	3272
905.451	3256
905.569	3291
905.686	3405
905.803	3409
905.921	3275
906.038	3420
906.155	3317
906.272	3230
906.389	3291
906.506	3203
906.623	3222
906.74	3233
906.857	3142
906.974	3245
907.091	3420
907.208	3561
907.324	3466
907.441	3370
907.557	3192
907.674	3230
907.79	3211
907.907	3256
908.023	3378
908.139	3344
908.256	3298
908.372	3359
908.488	3298
908.604	3264
908.72	3245
908.836	3291
908.952	3321
909.068	3359
909.184	3462
909.3	3393
909.415	3492
909.531	3447
909.647	3287
909.762	3321
909.878	3279
909.993	3401
910.108	3340
910.224	3351
910.339	3420
910.454	3367
910.57	3302
910.685	3237
910.8	3618
910.915	3553
911.03	3428
911.145	3279
911.259	3317
911.374	3336
911.489	3245
911.604	3294
911.718	3146
911.833	3154
911.947	3074
912.062	3024
912.176	3207
912.291	3230
912.405	3218
912.519	3477
912.633	3500
912.748	3351
912.862	3340
912.976	3195
913.09	3074
913.204	3173
913.318	3272
913.431	3374
913.545	3389
913.659	3428
913.772	3321
913.886	3233
914	3230
914.113	3412
914.226	3466
914.34	3428
914.453	3272
914.566	3466
914.68	3313
914.793	3348
914.906	3203
915.019	3173
915.132	3100
915.245	3203
915.358	3249
915.47	3279
915.583	3294
915.696	3332
915.809	3447
915.921	3466
916.034	3306
916.146	3291
916.259	3260
916.371	3416
916.483	3370
916.595	3306
916.708	3370
916.82	3359
916.932	3370
917.044	3382
917.156	3393
917.268	3272
917.38	3332
917.491	3344
917.603	3439
917.715	3507
917.826	3500
917.938	3420
918.049	3317
918.161	3481
918.272	3614
918.384	3610
918.495	3572
918.606	3370
918.717	3321
918.828	3397
918.939	3435
919.05	3351
919.161	3374
919.272	3218
919.383	3272
919.494	3530
919.604	3713
919.715	3561
919.826	3466
919.936	3477
920.047	3587
920.157	3584
920.267	3762
920.378	3629
920.488	3606
920.598	3812
920.708	4036
920.818	3797
920.928	3876
921.038	4067
921.148	3994
921.258	3755
921.368	3648
921.477	3599
921.587	3564
921.697	3519
921.806	3694
921.916	3530
922.025	3409
922.134	3405
922.244	3332
922.353	3466
922.462	3310
922.571	3233
922.68	3157
922.789	3119
922.898	3157
923.007	3112
923.116	3218
923.224	3199
923.333	3203
923.442	3142
923.55	3108
923.659	3169
923.767	3241
923.876	3169
923.984	3268
924.092	3108
924.201	3233
924.309	3230
924.417	3264
924.525	3256
924.633	3272
924.741	4253
924.849	3089
924.956	3275
925.064	3131
925.172	3062
925.279	3157
925.387	3241
925.494	3233
925.602	3378
925.709	3325
925.816	3241
925.924	3317
926.031	3382
926.138	3351
926.245	3412
926.352	3279
926.459	3428
926.566	3504
926.673	3348
926.779	3253
926.886	3275
926.993	3192
927.099	3188
927.206	3123
927.312	3127
927.419	3272
927.525	3253
927.631	3317
927.737	3176
927.843	3154
927.95	3043
928.056	3165
928.162	3199
928.267	3260
928.373	3854
928.479	3344
928.585	3089
928.69	3260
928.796	3302
928.901	3226
929.007	3074
929.112	3188
929.218	3237
929.323	3214
929.428	3199
929.533	3329
929.638	3154
929.743	3253
929.848	3325
929.953	3256
930.058	3176
930.163	3043
930.267	3074
930.372	3272
930.477	3070
930.581	3367
930.685	3192
930.79	3100
930.894	3161
930.998	3127
931.103	3291
931.207	3020
931.311	2975
931.415	2998
931.519	2830
931.623	2838
