Data from test_V78500241_1797.txt Node
Date: Fri Mar 25 16:27:39 CST 2022
User: usil
Spectrometer: V785-0024
Trigger mode: 0
Integration Time (sec): 4.000000E-1
Scans to average: 1
Nonlinearity correction enabled: false
Boxcar width: 0
Storing dark spectrum: false
XAxis mode: Wavelengths
Number of Pixels in Spectrum: 1024
>>>>>Begin Spectral Data<<<<<
801.071	2937
801.214	2922
801.356	2823
801.499	2876
801.641	2902
801.783	2925
801.926	3043
802.068	2990
802.211	2986
802.353	3058
802.496	3017
802.638	2998
802.78	3001
802.923	3116
803.065	2982
803.208	2880
803.35	2922
803.492	2952
803.635	2902
803.777	2773
803.919	2887
804.061	3218
804.204	2937
804.346	2922
804.488	2834
804.63	3009
804.773	2872
804.915	2883
805.057	3081
805.199	2925
805.341	2986
805.483	2990
805.626	3001
805.768	2948
805.91	3051
806.052	3116
806.194	3036
806.336	3226
806.478	3013
806.62	2960
806.762	2998
806.904	3043
807.046	3135
807.188	2975
807.33	2918
807.472	2967
807.614	2895
807.756	2967
807.898	2922
808.04	2868
808.182	2967
808.324	2925
808.465	2872
808.607	2864
808.749	2769
808.891	2830
809.033	2982
809.174	2960
809.316	2914
809.458	2902
809.6	2773
809.741	2754
809.883	2811
810.025	2834
810.166	2868
810.308	2838
810.45	2853
810.591	2788
810.733	2800
810.875	2868
811.016	2750
811.158	2773
811.299	2796
811.441	2876
811.582	2929
811.724	2830
811.865	2845
812.007	2910
812.148	2899
812.29	2834
812.431	2872
812.573	2922
812.714	2963
812.855	3017
812.997	3043
813.138	3097
813.279	2967
813.421	3036
813.562	2948
813.703	2876
813.845	2887
813.986	2773
814.127	2701
814.268	2838
814.41	2811
814.551	2819
814.692	2880
814.833	2823
814.974	2872
815.115	2933
815.256	2849
815.397	2796
815.539	2830
815.68	2773
815.821	2811
815.962	2941
816.103	2941
816.244	2853
816.385	2883
816.526	2956
816.666	2941
816.807	2758
816.948	2883
817.089	2895
817.23	2864
817.371	2773
817.512	2777
817.653	2861
817.793	2838
817.934	2914
818.075	2979
818.216	3005
818.356	3020
818.497	2864
818.638	2788
818.778	2815
818.919	2781
819.06	2746
819.2	2902
819.341	2800
819.481	2815
819.622	2895
819.762	3097
819.903	3024
820.043	2902
820.184	2857
820.324	2902
820.465	3043
820.605	3028
820.746	3017
820.886	2910
821.026	3089
821.167	3150
821.307	3226
821.447	3264
821.588	3237
821.728	3173
821.868	3180
822.008	3036
822.149	3157
822.289	3218
822.429	3104
822.569	3085
822.709	3184
822.849	3024
822.99	3055
823.13	3138
823.27	3176
823.41	3112
823.55	3131
823.69	3150
823.83	3180
823.97	3085
824.11	2998
824.25	2975
824.389	3013
824.529	3085
824.669	3074
824.809	3180
824.949	3256
825.089	3214
825.228	3146
825.368	2994
825.508	2944
825.648	2937
825.787	3024
825.927	3055
826.067	2948
826.206	2952
826.346	3020
826.485	3089
826.625	3100
826.765	3279
826.904	3214
827.044	2971
827.183	2941
827.323	2857
827.462	2998
827.601	2933
827.741	2925
827.88	2948
828.02	2849
828.159	2967
828.298	3001
828.437	3108
828.577	3013
828.716	3241
828.855	3081
828.994	2899
829.134	2891
829.273	2914
829.412	2876
829.551	2857
829.69	2887
829.829	2986
829.968	3108
830.107	2986
830.246	3036
830.385	2952
830.524	2838
830.663	2834
830.802	2731
830.941	2636
831.08	2594
831.219	2735
831.357	2769
831.496	2941
831.635	2697
831.774	2640
831.913	2629
832.051	2533
832.19	2575
832.329	2689
832.467	2518
832.606	2484
832.744	2571
832.883	2606
833.022	2552
833.16	2655
833.299	2686
833.437	2701
833.576	2708
833.714	2712
833.852	2739
833.991	2727
834.129	2800
834.267	2796
834.406	2792
834.544	2880
834.682	2857
834.821	2853
834.959	3032
835.097	2857
835.235	3036
835.373	3020
835.511	3017
835.65	2952
835.788	2952
835.926	2819
836.064	2804
836.202	2842
836.34	3062
836.478	3112
836.615	3058
836.753	3146
836.891	3218
837.029	3184
837.167	3112
837.305	3051
837.443	3047
837.58	2941
837.718	3157
837.856	3077
837.993	3024
838.131	3154
838.269	3097
838.406	3100
838.544	3081
838.681	2986
838.819	2880
838.956	2800
839.094	2815
839.231	2914
839.369	3077
839.506	3367
839.643	3192
839.781	3028
839.918	2986
840.055	3020
840.193	3032
840.33	3081
840.467	3070
840.604	3108
840.742	3389
840.879	3058
841.016	3032
841.153	3123
841.29	3291
841.427	3332
841.564	3279
841.701	3275
841.838	3241
841.975	3176
842.112	3157
842.249	3093
842.385	3013
842.522	3249
842.659	3070
842.796	3028
842.933	3112
843.069	3024
843.206	3032
843.343	3203
843.479	3104
843.616	3123
843.752	2899
843.889	2864
844.025	3070
844.162	2876
844.298	3085
844.435	2910
844.571	2937
844.708	3100
844.844	3180
844.98	3241
845.117	3176
845.253	3005
845.389	3009
845.525	3085
845.661	3093
845.798	3005
845.934	3123
846.07	3062
846.206	3161
846.342	3313
846.478	3233
846.614	3074
846.75	3055
846.886	3001
847.022	3279
847.158	3123
847.294	3192
847.429	3272
847.565	3214
847.701	3477
847.837	2998
847.972	3013
848.108	3157
848.244	3146
848.379	2971
848.515	2914
848.65	2979
848.786	2979
848.921	3032
849.057	3116
849.192	3173
849.328	3093
849.463	3131
849.598	3074
849.734	3055
849.869	3001
850.004	2899
850.14	2956
850.275	2925
850.41	2849
850.545	2891
850.68	2914
850.815	2918
850.95	2967
851.085	3184
851.22	3104
851.355	3017
851.49	2967
851.625	3017
851.76	3036
851.895	2967
852.03	2902
852.165	3005
852.299	3055
852.434	3165
852.569	3089
852.703	3169
852.838	3237
852.973	3348
853.107	3325
853.242	3173
853.376	3081
853.511	2956
853.645	3055
853.78	3230
853.914	3146
854.048	3089
854.183	3058
854.317	3123
854.451	3279
854.585	3142
854.72	3100
854.854	3195
854.988	3066
855.122	3047
855.256	2944
855.39	3058
855.524	3245
855.658	3146
855.792	3173
855.926	3157
856.06	3180
856.194	3245
856.327	3138
856.461	3024
856.595	3066
856.729	3081
856.862	3249
856.996	3146
857.13	3176
857.263	3237
857.397	3306
857.53	3100
857.664	3173
857.797	3222
857.931	3249
858.064	3173
858.197	3203
858.331	3112
858.464	3077
858.597	3036
858.731	3112
858.864	3112
858.997	3051
859.13	3119
859.263	3165
859.396	3169
859.529	3112
859.662	3017
859.795	3051
859.928	3127
860.061	3268
860.194	3313
860.327	3154
860.46	3089
860.592	3260
860.725	3260
860.858	3237
860.99	3100
861.123	3055
861.256	3062
861.388	3146
861.521	3850
861.653	3036
861.786	2990
861.918	2956
862.05	3058
862.183	3104
862.315	3180
862.447	3218
862.58	3089
862.712	2948
862.844	2876
862.976	3024
863.108	3020
863.24	3420
863.372	2906
863.504	2975
863.636	2918
863.768	3055
863.9	2975
864.032	2914
864.164	2971
864.296	3013
864.428	3104
864.559	3097
864.691	3051
864.823	3032
864.954	3032
865.086	3043
865.217	2990
865.349	2933
865.48	2998
865.612	3024
865.743	3112
865.875	2952
866.006	2922
866.137	2986
866.269	2998
866.4	2914
866.531	2952
866.662	2883
866.793	2880
866.924	2887
867.055	2941
867.186	2948
867.317	2883
867.448	2804
867.579	2857
867.71	2804
867.841	2823
867.972	2902
868.103	2880
868.233	2864
868.364	2845
868.495	2887
868.625	3066
868.756	3176
868.886	2948
869.017	3032
869.147	3146
869.278	3135
869.408	3020
869.539	3062
869.669	3127
869.799	3032
869.929	3154
870.06	3135
870.19	3336
870.32	3291
870.45	3321
870.58	3378
870.71	3443
870.84	3466
870.97	3226
871.1	3230
871.23	3450
871.36	3458
871.489	3329
871.619	3397
871.749	3405
871.879	3412
872.008	3469
872.138	3329
872.267	3245
872.397	3116
872.526	3123
872.656	2994
872.785	3104
872.915	3233
873.044	3310
873.173	3237
873.303	3226
873.432	3245
873.561	3222
873.69	3097
873.819	3154
873.948	3184
874.077	3119
874.206	3074
874.335	3077
874.464	3226
874.593	3325
874.722	3195
874.851	3344
874.979	3351
875.108	3287
875.237	3211
875.365	3199
875.494	3173
875.623	3211
875.751	3066
875.88	3104
876.008	3192
876.136	3203
876.265	3401
876.393	3447
876.521	3397
876.65	3363
876.778	3313
876.906	3226
877.034	3195
877.162	3256
877.29	3154
877.418	3245
877.546	3199
877.674	3218
877.802	3230
877.93	3184
878.058	3161
878.185	3108
878.313	3180
878.441	3199
878.568	3093
878.696	3146
878.824	3264
878.951	3294
879.079	3458
879.206	3629
879.333	3431
879.461	3344
879.588	3351
879.715	3473
879.842	3568
879.97	3367
880.097	3176
880.224	3070
880.351	3169
880.478	3211
880.605	3241
880.732	3169
880.859	3485
880.986	3272
881.112	3336
881.239	3203
881.366	3097
881.493	3043
881.619	3024
881.746	3097
881.872	3108
881.999	3097
882.125	3135
882.252	3249
882.378	3283
882.505	3416
882.631	3241
882.757	3154
882.883	3241
883.01	3226
883.136	3146
883.262	3150
883.388	3085
883.514	3336
883.64	3374
883.766	3302
883.892	3176
884.018	3226
884.143	3397
884.269	3526
884.395	3173
884.52	3188
884.646	3192
884.772	3127
884.897	3112
885.023	3180
885.148	3344
885.274	3416
885.399	3374
885.524	3264
885.65	3245
885.775	3302
885.9	3253
886.025	3431
886.15	3336
886.275	3275
886.4	3222
886.525	3325
886.65	3264
886.775	3264
886.9	3500
887.025	3629
887.149	3409
887.274	3260
887.399	3184
887.523	3184
887.648	3150
887.773	3192
887.897	3336
888.021	3386
888.146	3264
888.27	3443
888.395	3515
888.519	3481
888.643	3428
888.767	3424
888.891	3317
889.015	3184
889.139	3302
889.263	3211
889.387	3370
889.511	3515
889.635	3435
889.759	3329
889.883	3317
890.006	3405
890.13	3511
890.254	3260
890.377	3340
890.501	3214
890.624	3142
890.748	3313
890.871	3146
890.995	3097
891.118	3039
891.241	3192
891.364	3195
891.488	3298
891.611	3218
891.734	3233
891.857	3264
891.98	3245
892.103	3317
892.226	3283
892.349	3203
892.471	3062
892.594	3222
892.717	3272
892.839	3256
892.962	3264
893.085	3367
893.207	3272
893.33	3169
893.452	3211
893.575	3310
893.697	3218
893.819	3473
893.941	3466
894.064	3393
894.186	3253
894.308	3272
894.43	3401
894.552	3515
894.674	3462
894.796	3268
894.918	3302
895.04	3275
895.161	3462
895.283	3321
895.405	3302
895.526	3355
895.648	3424
895.769	3405
895.891	3420
896.012	3469
896.134	3450
896.255	3405
896.376	3370
896.498	3325
896.619	3405
896.74	3374
896.861	3405
896.982	3660
897.103	3857
897.224	3633
897.345	3458
897.466	3428
897.587	3462
897.708	3629
897.828	3511
897.949	3439
898.07	3329
898.19	3389
898.311	3584
898.431	3439
898.552	3458
898.672	3606
898.792	3584
898.913	3523
899.033	3389
899.153	3260
899.273	3230
899.393	3260
899.513	3348
899.633	3344
899.753	3302
899.873	3325
899.993	3378
900.113	3351
900.232	3382
900.352	3317
900.472	3298
900.591	3218
900.711	3283
900.83	3230
900.95	3435
901.069	3504
901.189	3348
901.308	3154
901.427	3142
901.546	3192
901.665	3321
901.784	3363
901.904	3192
902.023	3138
902.141	2990
902.26	2979
902.379	3176
902.498	3043
902.617	3074
902.735	3199
902.854	3253
902.973	3176
903.091	3039
903.21	3024
903.328	3131
903.446	3093
903.565	3108
903.683	3188
903.801	3131
903.919	3256
904.038	3310
904.156	3214
904.274	3302
904.392	3253
904.51	3268
904.627	3325
904.745	3428
904.863	3504
904.981	3272
905.098	3192
905.216	3253
905.334	3298
905.451	3298
905.569	3317
905.686	3405
905.803	3466
905.921	3256
906.038	3412
906.155	3351
906.272	3253
906.389	3336
906.506	3218
906.623	3272
906.74	3272
906.857	3146
906.974	3214
907.091	3462
907.208	3545
907.324	3526
907.441	3348
907.557	3173
907.674	3226
907.79	3207
907.907	3291
908.023	3389
908.139	3367
908.256	3321
908.372	3321
908.488	3355
908.604	3214
908.72	3211
908.836	3279
908.952	3264
909.068	3344
909.184	3458
909.3	3386
909.415	3504
909.531	3500
909.647	3272
909.762	3283
909.878	3279
909.993	3351
910.108	3283
910.224	3359
910.339	3389
910.454	3306
910.57	3268
910.685	3237
910.8	3568
910.915	3549
911.03	3393
911.145	3264
911.259	3256
911.374	3283
911.489	3218
911.604	3195
911.718	3089
911.833	3180
911.947	3032
912.062	2971
912.176	3188
912.291	3195
912.405	3222
912.519	3439
912.633	3458
912.748	3329
912.862	3294
912.976	3154
913.09	3043
913.204	3138
913.318	3218
913.431	3332
913.545	3329
913.659	3431
913.772	3313
913.886	3188
914	3176
914.113	3329
914.226	3412
914.34	3355
914.453	3207
914.566	3420
914.68	3294
914.793	3310
914.906	3112
915.019	3097
915.132	3085
915.245	3138
915.358	3233
915.47	3222
915.583	3272
915.696	3279
915.809	3405
915.921	3393
916.034	3218
916.146	3211
916.259	3222
916.371	3412
916.483	3351
916.595	3218
916.708	3329
916.82	3374
916.932	3359
917.044	3351
917.156	3317
917.268	3264
917.38	3302
917.491	3298
917.603	3386
917.715	3447
917.826	3466
917.938	3378
918.049	3237
918.161	3454
918.272	3603
918.384	3572
918.495	3485
918.606	3370
918.717	3253
918.828	3367
918.939	3401
919.05	3313
919.161	3348
919.272	3184
919.383	3279
919.494	3466
919.604	3637
919.715	3462
919.826	3401
919.936	3469
920.047	3606
920.157	3584
920.267	3751
920.378	3587
920.488	3561
920.598	3793
920.708	3968
920.818	3816
920.928	3831
921.038	4006
921.148	3979
921.258	3686
921.368	3618
921.477	3549
921.587	3504
921.697	3466
921.806	3641
921.916	3519
922.025	3351
922.134	3317
922.244	3336
922.353	3409
922.462	3272
922.571	3176
922.68	3089
922.789	3055
922.898	3165
923.007	3108
923.116	3237
923.224	3180
923.333	3195
923.442	3089
923.55	3066
923.659	3123
923.767	3188
923.876	3119
923.984	3222
924.092	3085
924.201	3226
924.309	3203
924.417	3268
924.525	3237
924.633	3253
924.741	4002
924.849	3039
924.956	3283
925.064	3104
925.172	3039
925.279	3070
925.387	3226
925.494	3157
925.602	3370
925.709	3329
925.816	3195
925.924	3298
926.031	3378
926.138	3329
926.245	3351
926.352	3222
926.459	3405
926.566	3469
926.673	3317
926.779	3260
926.886	3245
926.993	3150
927.099	3123
927.206	3097
927.312	3104
927.419	3230
927.525	3233
927.631	3272
927.737	3142
927.843	3135
927.95	3013
928.056	3169
928.162	3154
928.267	3241
928.373	3869
928.479	3291
928.585	3062
928.69	3222
928.796	3256
928.901	3173
929.007	3062
929.112	3180
929.218	3195
929.323	3157
929.428	3157
929.533	3249
929.638	3112
929.743	3165
929.848	3207
929.953	3226
930.058	3157
930.163	2982
930.267	3013
930.372	3230
930.477	3028
930.581	3329
930.685	3207
930.79	3032
930.894	3116
930.998	3093
931.103	3291
931.207	2986
931.311	2918
931.415	2895
931.519	2800
931.623	2804
