Data from test_V78500241_1581.txt Node
Date: Fri Mar 25 16:26:09 CST 2022
User: usil
Spectrometer: V785-0024
Trigger mode: 0
Integration Time (sec): 4.000000E-1
Scans to average: 1
Nonlinearity correction enabled: false
Boxcar width: 0
Storing dark spectrum: false
XAxis mode: Wavelengths
Number of Pixels in Spectrum: 1024
>>>>>Begin Spectral Data<<<<<
801.071	2899
801.214	2929
801.356	2883
801.499	2872
801.641	2876
801.783	2944
801.926	3066
802.068	2990
802.211	3017
802.353	3005
802.496	2933
802.638	3009
802.78	3024
802.923	3070
803.065	3005
803.208	2891
803.35	2918
803.492	2918
803.635	2922
803.777	2750
803.919	2838
804.061	3188
804.204	2933
804.346	2895
804.488	2842
804.63	3005
804.773	2853
804.915	2868
805.057	3070
805.199	2910
805.341	2952
805.483	3009
805.626	3001
805.768	2967
805.91	3051
806.052	3081
806.194	3051
806.336	3207
806.478	3028
806.62	2956
806.762	2967
806.904	3032
807.046	3161
807.188	2994
807.33	2880
807.472	2967
807.614	2895
807.756	2960
807.898	2956
808.04	2937
808.182	2956
808.324	2944
808.465	2864
808.607	2872
808.749	2857
808.891	2834
809.033	2952
809.174	2990
809.316	2891
809.458	2861
809.6	2754
809.741	2735
809.883	2781
810.025	2868
810.166	2842
810.308	2826
810.45	2800
810.591	2754
810.733	2750
810.875	2861
811.016	2731
811.158	2781
811.299	2788
811.441	2941
811.582	2868
811.724	2838
811.865	2838
812.007	2899
812.148	2899
812.29	2849
812.431	2887
812.573	2914
812.714	2975
812.855	3070
812.997	3051
813.138	3108
813.279	3028
813.421	3001
813.562	2963
813.703	2861
813.845	2880
813.986	2804
814.127	2720
814.268	2845
814.41	2849
814.551	2807
814.692	2845
814.833	2830
814.974	2906
815.115	2963
815.256	2819
815.397	2796
815.539	2876
815.68	2750
815.821	2762
815.962	2941
816.103	2963
816.244	2899
816.385	2857
816.526	2967
816.666	2967
816.807	2750
816.948	2906
817.089	2914
817.23	2872
817.371	2781
817.512	2788
817.653	2857
817.793	2845
817.934	2834
818.075	2963
818.216	2975
818.356	3013
818.497	2891
818.638	2826
818.778	2800
818.919	2781
819.06	2773
819.2	2872
819.341	2796
819.481	2815
819.622	2922
819.762	3112
819.903	3070
820.043	2887
820.184	2883
820.324	2853
820.465	3028
820.605	3017
820.746	3051
820.886	2937
821.026	3093
821.167	3199
821.307	3264
821.447	3256
821.588	3264
821.728	3203
821.868	3184
822.008	3070
822.149	3222
822.289	3218
822.429	3055
822.569	3097
822.709	3176
822.849	3028
822.99	3062
823.13	3150
823.27	3211
823.41	3104
823.55	3138
823.69	3146
823.83	3180
823.97	3070
824.11	2967
824.25	2979
824.389	3051
824.529	3104
824.669	3051
824.809	3230
824.949	3279
825.089	3226
825.228	3142
825.368	3017
825.508	3017
825.648	2967
825.787	3001
825.927	2982
826.067	2982
826.206	2960
826.346	3051
826.485	3055
826.625	3081
826.765	3268
826.904	3207
827.044	2952
827.183	2960
827.323	2876
827.462	2982
827.601	2895
827.741	2933
827.88	2960
828.02	2838
828.159	2979
828.298	3005
828.437	3100
828.577	3047
828.716	3272
828.855	3070
828.994	2914
829.134	2887
829.273	2902
829.412	2842
829.551	2864
829.69	2876
829.829	2986
829.968	3119
830.107	3009
830.246	2990
830.385	2891
830.524	2845
830.663	2807
830.802	2735
830.941	2640
831.08	2674
831.219	2785
831.357	2735
831.496	2975
831.635	2712
831.774	2648
831.913	2659
832.051	2537
832.19	2602
832.329	2697
832.467	2530
832.606	2507
832.744	2590
832.883	2568
833.022	2610
833.16	2659
833.299	2659
833.437	2689
833.576	2682
833.714	2735
833.852	2701
833.991	2754
834.129	2819
834.267	2826
834.406	2804
834.544	2899
834.682	2834
834.821	2891
834.959	3093
835.097	2902
835.235	3077
835.373	3028
835.511	2994
835.65	2963
835.788	2971
835.926	2804
836.064	2796
836.202	2849
836.34	3081
836.478	3188
836.615	3017
836.753	3119
836.891	3207
837.029	3173
837.167	3081
837.305	3043
837.443	3039
837.58	2971
837.718	3108
837.856	3062
837.993	3051
838.131	3127
838.269	3093
838.406	3131
838.544	3108
838.681	2902
838.819	2906
838.956	2826
839.094	2823
839.231	2929
839.369	2971
839.506	3363
839.643	3218
839.781	2986
839.918	2979
840.055	3043
840.193	3062
840.33	3055
840.467	3104
840.604	3154
840.742	3355
840.879	3024
841.016	3047
841.153	3093
841.29	3321
841.427	3294
841.564	3272
841.701	3272
841.838	3211
841.975	3146
842.112	3214
842.249	3104
842.385	3032
842.522	3214
842.659	3070
842.796	3074
842.933	3119
843.069	3024
843.206	3039
843.343	3154
843.479	3116
843.616	3108
843.752	2906
843.889	2853
844.025	3089
844.162	2853
844.298	3077
844.435	2937
844.571	2914
844.708	3074
844.844	3188
844.98	3241
845.117	3173
845.253	3039
845.389	3001
845.525	3119
845.661	3089
845.798	2990
845.934	3119
846.07	3051
846.206	3226
846.342	3302
846.478	3233
846.614	3097
846.75	3036
846.886	3024
847.022	3233
847.158	3116
847.294	3207
847.429	3237
847.565	3211
847.701	3466
847.837	3009
847.972	2994
848.108	3131
848.244	3142
848.379	2952
848.515	2910
848.65	2914
848.786	2960
848.921	3024
849.057	3066
849.192	3146
849.328	3009
849.463	3135
849.598	3100
849.734	3043
849.869	2990
850.004	2906
850.14	2956
850.275	2914
850.41	2785
850.545	2883
850.68	2922
850.815	2937
850.95	2994
851.085	3188
851.22	3085
851.355	3039
851.49	2979
851.625	2990
851.76	3001
851.895	2925
852.03	2929
852.165	3032
852.299	3104
852.434	3165
852.569	3146
852.703	3169
852.838	3241
852.973	3313
853.107	3283
853.242	3116
853.376	3047
853.511	2960
853.645	3028
853.78	3256
853.914	3138
854.048	3097
854.183	3142
854.317	3157
854.451	3291
854.585	3127
854.72	3051
854.854	3161
854.988	3047
855.122	3081
855.256	2967
855.39	3131
855.524	3226
855.658	3176
855.792	3169
855.926	3165
856.06	3214
856.194	3237
856.327	3138
856.461	3100
856.595	3097
856.729	3085
856.862	3203
856.996	3173
857.13	3173
857.263	3203
857.397	3245
857.53	3085
857.664	3180
857.797	3260
857.931	3241
858.064	3146
858.197	3218
858.331	3142
858.464	3100
858.597	3047
858.731	3127
858.864	3093
858.997	3089
859.13	3123
859.263	3169
859.396	3176
859.529	3097
859.662	3138
859.795	3036
859.928	3131
860.061	3310
860.194	3268
860.327	3085
860.46	3104
860.592	3226
860.725	3237
860.858	3237
860.99	3100
861.123	3024
861.256	3039
861.388	3142
861.521	3850
861.653	3001
861.786	2963
861.918	3017
862.05	3039
862.183	3104
862.315	3123
862.447	3195
862.58	3089
862.712	2941
862.844	2861
862.976	3047
863.108	2967
863.24	3302
863.372	2861
863.504	2967
863.636	2914
863.768	3001
863.9	2956
864.032	2883
864.164	2944
864.296	3032
864.428	3081
864.559	3100
864.691	3074
864.823	3089
864.954	3024
865.086	3032
865.217	3009
865.349	2979
865.48	3017
865.612	3017
865.743	3142
865.875	2967
866.006	2944
866.137	3009
866.269	2937
866.4	2929
866.531	2910
866.662	2864
866.793	2929
866.924	2906
867.055	2910
867.186	2895
867.317	2895
867.448	2826
867.579	2868
867.71	2830
867.841	2819
867.972	2918
868.103	2883
868.233	2857
868.364	2864
868.495	2902
868.625	3085
868.756	3176
868.886	2944
869.017	3024
869.147	3161
869.278	3142
869.408	3047
869.539	3024
869.669	3051
869.799	3036
869.929	3150
870.06	3097
870.19	3355
870.32	3317
870.45	3272
870.58	3317
870.71	3454
870.84	3439
870.97	3294
871.1	3230
871.23	3443
871.36	3496
871.489	3348
871.619	3389
871.749	3412
871.879	3428
872.008	3473
872.138	3336
872.267	3222
872.397	3146
872.526	3112
872.656	3028
872.785	3100
872.915	3214
873.044	3294
873.173	3207
873.303	3233
873.432	3222
873.561	3218
873.69	3165
873.819	3116
873.948	3195
874.077	3085
874.206	3039
874.335	3097
874.464	3211
874.593	3367
874.722	3241
874.851	3359
874.979	3374
875.108	3317
875.237	3184
875.365	3180
875.494	3176
875.623	3230
875.751	3043
875.88	3131
876.008	3138
876.136	3226
876.265	3355
876.393	3515
876.521	3458
876.65	3374
876.778	3298
876.906	3260
877.034	3211
877.162	3222
877.29	3161
877.418	3241
877.546	3237
877.674	3245
877.802	3214
877.93	3249
878.058	3180
878.185	3085
878.313	3237
878.441	3188
878.568	3097
878.696	3150
878.824	3237
878.951	3310
879.079	3420
879.206	3633
879.333	3424
879.461	3317
879.588	3340
879.715	3473
879.842	3603
879.97	3348
880.097	3154
880.224	3112
880.351	3165
880.478	3214
880.605	3169
880.732	3173
880.859	3477
880.986	3302
881.112	3310
881.239	3150
881.366	3074
881.493	3043
881.619	3043
881.746	3070
881.872	3097
881.999	3093
882.125	3157
882.252	3192
882.378	3272
882.505	3428
882.631	3294
882.757	3119
882.883	3184
883.01	3222
883.136	3146
883.262	3081
883.388	3131
883.514	3302
883.64	3344
883.766	3313
883.892	3161
884.018	3245
884.143	3401
884.269	3557
884.395	3199
884.52	3165
884.646	3157
884.772	3138
884.897	3097
885.023	3199
885.148	3313
885.274	3447
885.399	3389
885.524	3233
885.65	3245
885.775	3321
885.9	3260
886.025	3397
886.15	3336
886.275	3268
886.4	3245
886.525	3313
886.65	3253
886.775	3310
886.9	3496
887.025	3606
887.149	3420
887.274	3230
887.399	3211
887.523	3173
887.648	3154
887.773	3161
887.897	3370
888.021	3367
888.146	3317
888.27	3439
888.395	3462
888.519	3431
888.643	3462
888.767	3466
888.891	3294
889.015	3287
889.139	3268
889.263	3214
889.387	3405
889.511	3488
889.635	3450
889.759	3298
889.883	3283
890.006	3382
890.13	3492
890.254	3275
890.377	3351
890.501	3195
890.624	3188
890.748	3291
890.871	3184
890.995	3116
891.118	3081
891.241	3218
891.364	3203
891.488	3310
891.611	3154
891.734	3203
891.857	3264
891.98	3245
892.103	3283
892.226	3264
892.349	3188
892.471	3066
892.594	3256
892.717	3287
892.839	3298
892.962	3279
893.085	3370
893.207	3329
893.33	3150
893.452	3214
893.575	3340
893.697	3207
893.819	3515
893.941	3511
894.064	3473
894.186	3291
894.308	3249
894.43	3431
894.552	3507
894.674	3462
894.796	3268
894.918	3291
895.04	3298
895.161	3424
895.283	3374
895.405	3340
895.526	3325
895.648	3428
895.769	3382
895.891	3435
896.012	3466
896.134	3443
896.255	3428
896.376	3378
896.498	3348
896.619	3412
896.74	3389
896.861	3401
896.982	3679
897.103	3785
897.224	3561
897.345	3530
897.466	3412
897.587	3557
897.708	3656
897.828	3523
897.949	3412
898.07	3310
898.19	3428
898.311	3614
898.431	3428
898.552	3481
898.672	3599
898.792	3606
898.913	3481
899.033	3416
899.153	3329
899.273	3207
899.393	3321
899.513	3302
899.633	3283
899.753	3336
899.873	3310
899.993	3367
900.113	3317
900.232	3344
900.352	3291
900.472	3275
900.591	3211
900.711	3279
900.83	3214
900.95	3401
901.069	3485
901.189	3332
901.308	3131
901.427	3146
901.546	3157
901.665	3310
901.784	3313
901.904	3211
902.023	3112
902.141	3032
902.26	3005
902.379	3108
902.498	3089
902.617	3066
902.735	3203
902.854	3218
902.973	3203
903.091	3024
903.21	3055
903.328	3127
903.446	3150
903.565	3100
903.683	3211
903.801	3100
903.919	3230
904.038	3275
904.156	3138
904.274	3279
904.392	3253
904.51	3294
904.627	3336
904.745	3454
904.863	3523
904.981	3264
905.098	3154
905.216	3218
905.334	3294
905.451	3256
905.569	3275
905.686	3412
905.803	3420
905.921	3283
906.038	3412
906.155	3336
906.272	3245
906.389	3325
906.506	3214
906.623	3275
906.74	3253
906.857	3199
906.974	3268
907.091	3447
907.208	3564
907.324	3469
907.441	3359
907.557	3222
907.674	3233
907.79	3256
907.907	3298
908.023	3382
908.139	3374
908.256	3325
908.372	3405
908.488	3344
908.604	3268
908.72	3272
908.836	3241
908.952	3264
909.068	3279
909.184	3515
909.3	3378
909.415	3481
909.531	3492
909.647	3275
909.762	3268
909.878	3241
909.993	3401
910.108	3321
910.224	3332
910.339	3389
910.454	3325
910.57	3256
910.685	3253
910.8	3614
910.915	3553
911.03	3409
911.145	3279
911.259	3283
911.374	3287
911.489	3211
911.604	3207
911.718	3116
911.833	3135
911.947	3036
912.062	2986
912.176	3188
912.291	3176
912.405	3218
912.519	3409
912.633	3469
912.748	3310
912.862	3291
912.976	3154
913.09	3039
913.204	3119
913.318	3214
913.431	3294
913.545	3329
913.659	3435
913.772	3317
913.886	3230
914	3241
914.113	3355
914.226	3420
914.34	3340
914.453	3199
914.566	3424
914.68	3291
914.793	3317
914.906	3127
915.019	3119
915.132	3066
915.245	3188
915.358	3230
915.47	3245
915.583	3268
915.696	3317
915.809	3397
915.921	3397
916.034	3253
916.146	3291
916.259	3222
916.371	3351
916.483	3363
916.595	3272
916.708	3329
916.82	3310
916.932	3321
917.044	3336
917.156	3332
917.268	3245
917.38	3313
917.491	3279
917.603	3370
917.715	3435
917.826	3405
917.938	3378
918.049	3256
918.161	3431
918.272	3564
918.384	3576
918.495	3504
918.606	3348
918.717	3272
918.828	3355
918.939	3412
919.05	3294
919.161	3416
919.272	3195
919.383	3321
919.494	3523
919.604	3675
919.715	3481
919.826	3401
919.936	3473
920.047	3580
920.157	3534
920.267	3740
920.378	3618
920.488	3549
920.598	3755
920.708	3941
920.818	3819
920.928	3808
921.038	4055
921.148	4006
921.258	3720
921.368	3603
921.477	3534
921.587	3538
921.697	3469
921.806	3644
921.916	3500
922.025	3348
922.134	3363
922.244	3359
922.353	3382
922.462	3256
922.571	3230
922.68	3135
922.789	3074
922.898	3146
923.007	3112
923.116	3195
923.224	3169
923.333	3184
923.442	3108
923.55	3116
923.659	3127
923.767	3222
923.876	3135
923.984	3249
924.092	3077
924.201	3199
924.309	3176
924.417	3268
924.525	3161
924.633	3249
924.741	4158
924.849	2990
924.956	3256
925.064	3081
925.172	3024
925.279	3055
925.387	3188
925.494	3176
925.602	3332
925.709	3317
925.816	3222
925.924	3313
926.031	3386
926.138	3325
926.245	3363
926.352	3272
926.459	3393
926.566	3447
926.673	3332
926.779	3241
926.886	3226
926.993	3116
927.099	3135
927.206	3138
927.312	3123
927.419	3195
927.525	3188
927.631	3272
927.737	3176
927.843	3127
927.95	3017
928.056	3157
928.162	3150
928.267	3222
928.373	3831
928.479	3275
928.585	3066
928.69	3211
928.796	3283
928.901	3127
929.007	3074
929.112	3214
929.218	3165
929.323	3150
929.428	3150
929.533	3291
929.638	3085
929.743	3173
929.848	3237
929.953	3211
930.058	3131
930.163	3013
930.267	3062
930.372	3180
930.477	3032
930.581	3283
930.685	3199
930.79	3077
930.894	3104
930.998	3100
931.103	3268
931.207	2963
931.311	2944
931.415	2925
931.519	2735
931.623	2811
