Data from test_V78500241_129.txt Node
Date: Fri Mar 25 16:16:05 CST 2022
User: usil
Spectrometer: V785-0024
Trigger mode: 0
Integration Time (sec): 4.000000E-1
Scans to average: 1
Nonlinearity correction enabled: false
Boxcar width: 0
Storing dark spectrum: false
XAxis mode: Wavelengths
Number of Pixels in Spectrum: 1024
>>>>>Begin Spectral Data<<<<<
801.071	2967
801.214	3001
801.356	2925
801.499	2914
801.641	2872
801.783	2960
801.926	3100
802.068	3005
802.211	3028
802.353	3074
802.496	2986
802.638	3043
802.78	3051
802.923	3123
803.065	3020
803.208	2933
803.35	2963
803.492	2982
803.635	2967
803.777	2807
803.919	2899
804.061	3226
804.204	2971
804.346	2922
804.488	2914
804.63	3001
804.773	2906
804.915	2971
805.057	3093
805.199	2979
805.341	2963
805.483	3066
805.626	3005
805.768	2979
805.91	3131
806.052	3184
806.194	3077
806.336	3214
806.478	3051
806.62	2948
806.762	2986
806.904	3077
807.046	3222
807.188	3009
807.33	2960
807.472	2986
807.614	2925
807.756	2994
807.898	2994
808.04	2925
808.182	3001
808.324	2956
808.465	2914
808.607	2891
808.749	2853
808.891	2861
809.033	3024
809.174	2979
809.316	2910
809.458	2902
809.6	2807
809.741	2815
809.883	2796
810.025	2864
810.166	2899
810.308	2880
810.45	2891
810.591	2845
810.733	2807
810.875	2853
811.016	2792
811.158	2785
811.299	2823
811.441	2956
811.582	2956
811.724	2845
811.865	2853
812.007	2948
812.148	2868
812.29	2887
812.431	2876
812.573	2937
812.714	3036
812.855	3089
812.997	3070
813.138	3161
813.279	3055
813.421	3001
813.562	3001
813.703	2864
813.845	2933
813.986	2785
814.127	2716
814.268	2880
814.41	2868
814.551	2845
814.692	2902
814.833	2845
814.974	2902
815.115	3005
815.256	2830
815.397	2800
815.539	2872
815.68	2826
815.821	2830
815.962	2990
816.103	2967
816.244	2891
816.385	2914
816.526	2994
816.666	2944
816.807	2769
816.948	2910
817.089	2929
817.23	2906
817.371	2830
817.512	2834
817.653	2853
817.793	2823
817.934	2887
818.075	3001
818.216	2982
818.356	3081
818.497	2891
818.638	2815
818.778	2834
818.919	2826
819.06	2777
819.2	2906
819.341	2807
819.481	2842
819.622	2937
819.762	3127
819.903	3077
820.043	2929
820.184	2918
820.324	2941
820.465	3043
820.605	3036
820.746	3066
820.886	2967
821.026	3104
821.167	3188
821.307	3279
821.447	3260
821.588	3237
821.728	3233
821.868	3199
822.008	3081
822.149	3195
822.289	3264
822.429	3123
822.569	3108
822.709	3226
822.849	2994
822.99	3116
823.13	3165
823.27	3211
823.41	3161
823.55	3180
823.69	3188
823.83	3195
823.97	3112
824.11	3039
824.25	3005
824.389	3081
824.529	3085
824.669	3070
824.809	3214
824.949	3268
825.089	3256
825.228	3154
825.368	3074
825.508	2990
825.648	2986
825.787	2979
825.927	3036
826.067	2960
826.206	2986
826.346	3074
826.485	3085
826.625	3173
826.765	3279
826.904	3226
827.044	3058
827.183	2929
827.323	2925
827.462	3001
827.601	2918
827.741	2937
827.88	2979
828.02	2883
828.159	2975
828.298	3058
828.437	3142
828.577	3074
828.716	3218
828.855	3104
828.994	2963
829.134	2902
829.273	2914
829.412	2899
829.551	2872
829.69	2906
829.829	2971
829.968	3112
830.107	3051
830.246	3036
830.385	2929
830.524	2910
830.663	2830
830.802	2758
830.941	2651
831.08	2667
831.219	2773
831.357	2796
831.496	2979
831.635	2689
831.774	2663
831.913	2655
832.051	2610
832.19	2583
832.329	2705
832.467	2533
832.606	2492
832.744	2594
832.883	2598
833.022	2564
833.16	2621
833.299	2682
833.437	2712
833.576	2678
833.714	2766
833.852	2766
833.991	2766
834.129	2864
834.267	2830
834.406	2785
834.544	2899
834.682	2895
834.821	2891
834.959	3070
835.097	2918
835.235	3036
835.373	2998
835.511	3047
835.65	2998
835.788	2952
835.926	2849
836.064	2842
836.202	2872
836.34	3100
836.478	3154
836.615	3089
836.753	3150
836.891	3253
837.029	3165
837.167	3097
837.305	3058
837.443	3043
837.58	2971
837.718	3161
837.856	3070
837.993	3036
838.131	3165
838.269	3116
838.406	3123
838.544	3081
838.681	2952
838.819	2952
838.956	2834
839.094	2872
839.231	2941
839.369	3081
839.506	3416
839.643	3249
839.781	3039
839.918	2990
840.055	3058
840.193	3089
840.33	3089
840.467	3093
840.604	3199
840.742	3409
840.879	3108
841.016	3074
841.153	3108
841.29	3405
841.427	3302
841.564	3283
841.701	3332
841.838	3253
841.975	3207
842.112	3249
842.249	3123
842.385	3066
842.522	3283
842.659	3085
842.796	3070
842.933	3131
843.069	3100
843.206	3058
843.343	3230
843.479	3146
843.616	3173
843.752	2887
843.889	2910
844.025	3074
844.162	2918
844.298	3081
844.435	2971
844.571	2895
844.708	3066
844.844	3169
844.98	3291
845.117	3245
845.253	3051
845.389	3077
845.525	3146
845.661	3085
845.798	2994
845.934	3173
846.07	3070
846.206	3264
846.342	3355
846.478	3241
846.614	3055
846.75	3085
846.886	3047
847.022	3294
847.158	3176
847.294	3226
847.429	3233
847.565	3214
847.701	3488
847.837	3039
847.972	3001
848.108	3154
848.244	3150
848.379	2990
848.515	2986
848.65	2975
848.786	2963
848.921	3036
849.057	3123
849.192	3154
849.328	3093
849.463	3131
849.598	3116
849.734	3066
849.869	3013
850.004	2922
850.14	2998
850.275	2937
850.41	2864
850.545	2910
850.68	2960
850.815	2963
850.95	2963
851.085	3214
851.22	3138
851.355	3043
851.49	3005
851.625	2971
851.76	3001
851.895	2929
852.03	2925
852.165	3032
852.299	3119
852.434	3230
852.569	3142
852.703	3184
852.838	3302
852.973	3340
853.107	3374
853.242	3165
853.376	3119
853.511	3020
853.645	3058
853.78	3253
853.914	3135
854.048	3116
854.183	3127
854.317	3180
854.451	3332
854.585	3157
854.72	3100
854.854	3230
854.988	3062
855.122	3089
855.256	3020
855.39	3116
855.524	3272
855.658	3150
855.792	3195
855.926	3207
856.06	3222
856.194	3275
856.327	3138
856.461	3055
856.595	3116
856.729	3119
856.862	3245
856.996	3161
857.13	3203
857.263	3207
857.397	3260
857.53	3112
857.664	3222
857.797	3230
857.931	3256
858.064	3192
858.197	3268
858.331	3138
858.464	3108
858.597	3028
858.731	3135
858.864	3142
858.997	3116
859.13	3207
859.263	3199
859.396	3188
859.529	3112
859.662	3116
859.795	3051
859.928	3142
860.061	3329
860.194	3249
860.327	3138
860.46	3127
860.592	3264
860.725	3272
860.858	3279
860.99	3135
861.123	3074
861.256	3074
861.388	3146
861.521	3759
861.653	3051
861.786	2986
861.918	3047
862.05	3062
862.183	3127
862.315	3161
862.447	3249
862.58	3081
862.712	2956
862.844	2861
862.976	3043
863.108	3058
863.24	3466
863.372	2891
863.504	2944
863.636	2963
863.768	3051
863.9	2956
864.032	2937
864.164	2956
864.296	3070
864.428	3093
864.559	3108
864.691	3077
864.823	3093
864.954	3017
865.086	3089
865.217	2986
865.349	2948
865.48	2998
865.612	3039
865.743	3169
865.875	3005
866.006	2971
866.137	3028
866.269	2963
866.4	2914
866.531	2929
866.662	2891
866.793	2929
866.924	2952
867.055	2990
867.186	2948
867.317	2910
867.448	2857
867.579	2849
867.71	2880
867.841	2815
867.972	2887
868.103	2914
868.233	2925
868.364	2880
868.495	2918
868.625	3100
868.756	3161
868.886	3009
869.017	3062
869.147	3165
869.278	3180
869.408	3043
869.539	3036
869.669	3097
869.799	3051
869.929	3119
870.06	3146
870.19	3374
870.32	3306
870.45	3340
870.58	3424
870.71	3477
870.84	3488
870.97	3317
871.1	3253
871.23	3462
871.36	3477
871.489	3386
871.619	3374
871.749	3447
871.879	3515
872.008	3507
872.138	3389
872.267	3310
872.397	3176
872.526	3108
872.656	3051
872.785	3142
872.915	3249
873.044	3321
873.173	3218
873.303	3268
873.432	3245
873.561	3253
873.69	3192
873.819	3154
873.948	3180
874.077	3108
874.206	3089
874.335	3074
874.464	3203
874.593	3363
874.722	3260
874.851	3412
874.979	3336
875.108	3355
875.237	3211
875.365	3161
875.494	3192
875.623	3241
875.751	3047
875.88	3150
876.008	3214
876.136	3256
876.265	3393
876.393	3530
876.521	3458
876.65	3401
876.778	3344
876.906	3294
877.034	3207
877.162	3260
877.29	3184
877.418	3253
877.546	3256
877.674	3256
877.802	3241
877.93	3294
878.058	3165
878.185	3135
878.313	3192
878.441	3230
878.568	3108
878.696	3146
878.824	3291
878.951	3302
879.079	3500
879.206	3675
879.333	3428
879.461	3317
879.588	3370
879.715	3519
879.842	3584
879.97	3389
880.097	3192
880.224	3165
880.351	3249
880.478	3256
880.605	3203
880.732	3222
880.859	3485
880.986	3348
881.112	3325
881.239	3256
881.366	3131
881.493	3062
881.619	3020
881.746	3077
881.872	3100
881.999	3112
882.125	3146
882.252	3260
882.378	3291
882.505	3454
882.631	3310
882.757	3123
882.883	3199
883.01	3268
883.136	3142
883.262	3104
883.388	3116
883.514	3348
883.64	3401
883.766	3302
883.892	3207
884.018	3241
884.143	3412
884.269	3542
884.395	3233
884.52	3161
884.646	3203
884.772	3112
884.897	3123
885.023	3245
885.148	3359
885.274	3409
885.399	3393
885.524	3291
885.65	3256
885.775	3336
885.9	3287
886.025	3462
886.15	3382
886.275	3317
886.4	3298
886.525	3340
886.65	3283
886.775	3310
886.9	3523
887.025	3633
887.149	3450
887.274	3264
887.399	3203
887.523	3222
887.648	3226
887.773	3207
887.897	3409
888.021	3389
888.146	3325
888.27	3458
888.395	3557
888.519	3473
888.643	3477
888.767	3500
888.891	3306
889.015	3264
889.139	3298
889.263	3260
889.387	3447
889.511	3530
889.635	3458
889.759	3306
889.883	3374
890.006	3420
890.13	3515
890.254	3294
890.377	3389
890.501	3188
890.624	3211
890.748	3329
890.871	3214
890.995	3146
891.118	3028
891.241	3169
891.364	3249
891.488	3336
891.611	3214
891.734	3291
891.857	3313
891.98	3279
892.103	3351
892.226	3332
892.349	3184
892.471	3142
892.594	3233
892.717	3313
892.839	3260
892.962	3294
893.085	3370
893.207	3332
893.33	3230
893.452	3268
893.575	3374
893.697	3291
893.819	3504
893.941	3519
894.064	3473
894.186	3310
894.308	3283
894.43	3481
894.552	3557
894.674	3492
894.796	3272
894.918	3370
895.04	3329
895.161	3466
895.283	3412
895.405	3302
895.526	3378
895.648	3435
895.769	3447
895.891	3477
896.012	3504
896.134	3477
896.255	3466
896.376	3389
896.498	3382
896.619	3439
896.74	3374
896.861	3428
896.982	3713
897.103	3838
897.224	3599
897.345	3534
897.466	3443
897.587	3530
897.708	3629
897.828	3599
897.949	3443
898.07	3348
898.19	3401
898.311	3637
898.431	3492
898.552	3557
898.672	3603
898.792	3610
898.913	3519
899.033	3416
899.153	3336
899.273	3264
899.393	3291
899.513	3336
899.633	3302
899.753	3348
899.873	3332
899.993	3382
900.113	3393
900.232	3397
900.352	3359
900.472	3310
900.591	3176
900.711	3317
900.83	3233
900.95	3443
901.069	3511
901.189	3348
901.308	3195
901.427	3173
901.546	3222
901.665	3272
901.784	3389
901.904	3222
902.023	3176
902.141	3036
902.26	3009
902.379	3150
902.498	3100
902.617	3077
902.735	3253
902.854	3275
902.973	3214
903.091	3081
903.21	3108
903.328	3176
903.446	3131
903.565	3138
903.683	3275
903.801	3127
903.919	3283
904.038	3306
904.156	3211
904.274	3302
904.392	3245
904.51	3298
904.627	3351
904.745	3450
904.863	3534
904.981	3291
905.098	3142
905.216	3272
905.334	3291
905.451	3317
905.569	3313
905.686	3477
905.803	3469
905.921	3310
906.038	3454
906.155	3367
906.272	3237
906.389	3351
906.506	3264
906.623	3317
906.74	3272
906.857	3184
906.974	3287
907.091	3454
907.208	3576
907.324	3545
907.441	3416
907.557	3253
907.674	3275
907.79	3222
907.907	3306
908.023	3397
908.139	3393
908.256	3393
908.372	3397
908.488	3386
908.604	3298
908.72	3256
908.836	3291
908.952	3287
909.068	3336
909.184	3496
909.3	3397
909.415	3519
909.531	3515
909.647	3291
909.762	3340
909.878	3260
909.993	3405
910.108	3332
910.224	3351
910.339	3454
910.454	3393
910.57	3310
910.685	3302
910.8	3603
910.915	3599
911.03	3447
911.145	3272
911.259	3287
911.374	3344
911.489	3260
911.604	3249
911.718	3138
911.833	3188
911.947	3058
912.062	3024
912.176	3165
912.291	3241
912.405	3218
912.519	3428
912.633	3473
912.748	3359
912.862	3313
912.976	3260
913.09	3085
913.204	3154
913.318	3268
913.431	3351
913.545	3378
913.659	3462
913.772	3370
913.886	3226
914	3188
914.113	3397
914.226	3454
914.34	3355
914.453	3264
914.566	3409
914.68	3306
914.793	3332
914.906	3146
915.019	3135
915.132	3081
915.245	3195
915.358	3226
915.47	3214
915.583	3268
915.696	3310
915.809	3420
915.921	3431
916.034	3275
916.146	3317
916.259	3260
916.371	3420
916.483	3389
916.595	3310
916.708	3374
916.82	3355
916.932	3363
917.044	3367
917.156	3355
917.268	3245
917.38	3298
917.491	3325
917.603	3378
917.715	3485
917.826	3477
917.938	3374
918.049	3287
918.161	3477
918.272	3610
918.384	3606
918.495	3492
918.606	3344
918.717	3340
918.828	3374
918.939	3431
919.05	3321
919.161	3424
919.272	3188
919.383	3291
919.494	3481
919.604	3701
919.715	3511
919.826	3420
919.936	3481
920.047	3618
920.157	3564
920.267	3755
920.378	3606
920.488	3576
920.598	3800
920.708	3945
920.818	3846
920.928	3899
921.038	4029
921.148	4071
921.258	3732
921.368	3663
921.477	3580
921.587	3538
921.697	3488
921.806	3690
921.916	3519
922.025	3370
922.134	3374
922.244	3325
922.353	3462
922.462	3298
922.571	3203
922.68	3146
922.789	3089
922.898	3169
923.007	3154
923.116	3260
923.224	3226
923.333	3218
923.442	3100
923.55	3108
923.659	3165
923.767	3233
923.876	3150
923.984	3294
924.092	3127
924.201	3230
924.309	3260
924.417	3302
924.525	3188
924.633	3298
924.741	4215
924.849	3066
924.956	3283
925.064	3116
925.172	3032
925.279	3142
925.387	3218
925.494	3188
925.602	3359
925.709	3351
925.816	3233
925.924	3294
926.031	3363
926.138	3344
926.245	3412
926.352	3253
926.459	3462
926.566	3485
926.673	3340
926.779	3264
926.886	3272
926.993	3135
927.099	3165
927.206	3169
927.312	3161
927.419	3264
927.525	3218
927.631	3306
927.737	3180
927.843	3104
927.95	3047
928.056	3161
928.162	3195
928.267	3253
928.373	3819
928.479	3298
928.585	3085
928.69	3260
928.796	3321
928.901	3192
929.007	3070
929.112	3233
929.218	3188
929.323	3176
929.428	3180
929.533	3367
929.638	3157
929.743	3207
929.848	3256
929.953	3218
930.058	3203
930.163	3020
930.267	3047
930.372	3253
930.477	3036
930.581	3355
930.685	3195
930.79	3100
930.894	3127
930.998	3097
931.103	3298
931.207	2990
931.311	2971
931.415	2963
931.519	2819
931.623	2823
