Data from test_V78500241_1589.txt Node
Date: Fri Mar 25 16:26:12 CST 2022
User: usil
Spectrometer: V785-0024
Trigger mode: 0
Integration Time (sec): 4.000000E-1
Scans to average: 1
Nonlinearity correction enabled: false
Boxcar width: 0
Storing dark spectrum: false
XAxis mode: Wavelengths
Number of Pixels in Spectrum: 1024
>>>>>Begin Spectral Data<<<<<
801.071	2929
801.214	2956
801.356	2902
801.499	2872
801.641	2838
801.783	2922
801.926	3043
802.068	2929
802.211	2979
802.353	3020
802.496	2960
802.638	2990
802.78	3028
802.923	3047
803.065	2971
803.208	2899
803.35	2887
803.492	2910
803.635	2944
803.777	2735
803.919	2845
804.061	3226
804.204	2933
804.346	2922
804.488	2842
804.63	2948
804.773	2845
804.915	2902
805.057	3100
805.199	2883
805.341	2979
805.483	3001
805.626	2998
805.768	2971
805.91	3077
806.052	3097
806.194	3077
806.336	3218
806.478	3009
806.62	2925
806.762	2929
806.904	3028
807.046	3150
807.188	2956
807.33	2914
807.472	3005
807.614	2910
807.756	2994
807.898	2922
808.04	2948
808.182	2998
808.324	2925
808.465	2883
808.607	2883
808.749	2788
808.891	2842
809.033	2971
809.174	2952
809.316	2906
809.458	2902
809.6	2769
809.741	2746
809.883	2777
810.025	2872
810.166	2845
810.308	2838
810.45	2849
810.591	2788
810.733	2766
810.875	2853
811.016	2743
811.158	2716
811.299	2785
811.441	2922
811.582	2864
811.724	2815
811.865	2826
812.007	2925
812.148	2845
812.29	2880
812.431	2895
812.573	2902
812.714	2944
812.855	3028
812.997	3074
813.138	3112
813.279	3028
813.421	2967
813.562	2933
813.703	2880
813.845	2887
813.986	2716
814.127	2705
814.268	2815
814.41	2823
814.551	2781
814.692	2845
814.833	2800
814.974	2876
815.115	2918
815.256	2826
815.397	2819
815.539	2861
815.68	2777
815.821	2746
815.962	2975
816.103	2891
816.244	2868
816.385	2887
816.526	2925
816.666	2902
816.807	2750
816.948	2883
817.089	2910
817.23	2838
817.371	2735
817.512	2785
817.653	2811
817.793	2826
817.934	2876
818.075	2929
818.216	2979
818.356	3009
818.497	2895
818.638	2762
818.778	2804
818.919	2781
819.06	2758
819.2	2845
819.341	2800
819.481	2804
819.622	2910
819.762	3085
819.903	3036
820.043	2922
820.184	2922
820.324	2872
820.465	2982
820.605	3001
820.746	3028
820.886	2922
821.026	3074
821.167	3173
821.307	3275
821.447	3272
821.588	3214
821.728	3192
821.868	3161
822.008	3047
822.149	3165
822.289	3207
822.429	3055
822.569	3123
822.709	3161
822.849	2994
822.99	3036
823.13	3131
823.27	3192
823.41	3081
823.55	3157
823.69	3135
823.83	3203
823.97	3077
824.11	2982
824.25	2982
824.389	3058
824.529	3093
824.669	3093
824.809	3176
824.949	3241
825.089	3226
825.228	3138
825.368	2975
825.508	2960
825.648	2975
825.787	2982
825.927	3032
826.067	2952
826.206	2933
826.346	3020
826.485	3077
826.625	3119
826.765	3214
826.904	3260
827.044	2971
827.183	2910
827.323	2849
827.462	2994
827.601	2902
827.741	2902
827.88	2922
828.02	2849
828.159	2948
828.298	3051
828.437	3089
828.577	3058
828.716	3249
828.855	3081
828.994	2925
829.134	2864
829.273	2929
829.412	2845
829.551	2834
829.69	2899
829.829	2986
829.968	3123
830.107	3039
830.246	2986
830.385	2902
830.524	2914
830.663	2788
830.802	2720
830.941	2636
831.08	2636
831.219	2750
831.357	2750
831.496	2975
831.635	2727
831.774	2651
831.913	2621
832.051	2545
832.19	2594
832.329	2651
832.467	2522
832.606	2507
832.744	2571
832.883	2587
833.022	2556
833.16	2670
833.299	2663
833.437	2670
833.576	2724
833.714	2682
833.852	2724
833.991	2762
834.129	2796
834.267	2815
834.406	2754
834.544	2883
834.682	2872
834.821	2887
834.959	3032
835.097	2880
835.235	3055
835.373	2994
835.511	3013
835.65	2948
835.788	2925
835.926	2823
836.064	2804
836.202	2807
836.34	3097
836.478	3108
836.615	3074
836.753	3081
836.891	3211
837.029	3135
837.167	3108
837.305	3062
837.443	3058
837.58	2948
837.718	3100
837.856	3085
837.993	3039
838.131	3093
838.269	3085
838.406	3070
838.544	3039
838.681	2922
838.819	2880
838.956	2788
839.094	2773
839.231	2925
839.369	2967
839.506	3370
839.643	3161
839.781	3001
839.918	2933
840.055	3017
840.193	3020
840.33	3070
840.467	3062
840.604	3157
840.742	3389
840.879	3070
841.016	3024
841.153	3116
841.29	3283
841.427	3268
841.564	3214
841.701	3329
841.838	3199
841.975	3154
842.112	3169
842.249	3070
842.385	3036
842.522	3233
842.659	3112
842.796	3036
842.933	3085
843.069	3005
843.206	3028
843.343	3150
843.479	3081
843.616	3146
843.752	2914
843.889	2857
844.025	3062
844.162	2838
844.298	3070
844.435	2887
844.571	2914
844.708	3047
844.844	3188
844.98	3230
845.117	3173
845.253	3032
845.389	3017
845.525	3047
845.661	3062
845.798	2986
845.934	3093
846.07	3020
846.206	3169
846.342	3313
846.478	3195
846.614	3081
846.75	3028
846.886	2990
847.022	3184
847.158	3135
847.294	3199
847.429	3222
847.565	3222
847.701	3500
847.837	3020
847.972	3001
848.108	3161
848.244	3138
848.379	3020
848.515	2948
848.65	2941
848.786	2922
848.921	2979
849.057	3142
849.192	3180
849.328	3066
849.463	3127
849.598	3058
849.734	3047
849.869	2967
850.004	2937
850.14	2952
850.275	2933
850.41	2872
850.545	2887
850.68	2933
850.815	2994
850.95	2994
851.085	3207
851.22	3108
851.355	3051
851.49	2994
851.625	3020
851.76	3009
851.895	2937
852.03	2918
852.165	3013
852.299	3192
852.434	3207
852.569	3161
852.703	3218
852.838	3313
852.973	3382
853.107	3348
853.242	3184
853.376	3127
853.511	3001
853.645	3074
853.78	3256
853.914	3176
854.048	3127
854.183	3142
854.317	3199
854.451	3332
854.585	3123
854.72	3097
854.854	3222
854.988	3085
855.122	3089
855.256	2971
855.39	3169
855.524	3268
855.658	3222
855.792	3253
855.926	3199
856.06	3298
856.194	3302
856.327	3218
856.461	3070
856.595	3085
856.729	3108
856.862	3279
856.996	3230
857.13	3230
857.263	3268
857.397	3306
857.53	3161
857.664	3218
857.797	3310
857.931	3264
858.064	3157
858.197	3253
858.331	3165
858.464	3131
858.597	3062
858.731	3127
858.864	3188
858.997	3161
859.13	3176
859.263	3211
859.396	3207
859.529	3081
859.662	3097
859.795	3081
859.928	3173
860.061	3291
860.194	3298
860.327	3127
860.46	3093
860.592	3302
860.725	3287
860.858	3287
860.99	3142
861.123	3097
861.256	3089
861.388	3176
861.521	3899
861.653	3047
861.786	3036
861.918	3001
862.05	3112
862.183	3108
862.315	3184
862.447	3237
862.58	3108
862.712	2944
862.844	2937
862.976	3039
863.108	3009
863.24	3336
863.372	2914
863.504	3001
863.636	3009
863.768	3039
863.9	3028
864.032	2952
864.164	2975
864.296	3074
864.428	3116
864.559	3154
864.691	3116
864.823	3104
864.954	3085
865.086	3070
865.217	3051
865.349	2982
865.48	3024
865.612	3066
865.743	3192
865.875	3013
866.006	2971
866.137	3032
866.269	2937
866.4	3005
866.531	2941
866.662	2891
866.793	2929
866.924	2944
867.055	2986
867.186	2952
867.317	2899
867.448	2887
867.579	2868
867.71	2864
867.841	2826
867.972	2933
868.103	2914
868.233	2906
868.364	2899
868.495	2937
868.625	3085
868.756	3165
868.886	3001
869.017	3039
869.147	3199
869.278	3157
869.408	3074
869.539	3036
869.669	3104
869.799	3017
869.929	3184
870.06	3093
870.19	3367
870.32	3325
870.45	3325
870.58	3363
870.71	3458
870.84	3462
870.97	3302
871.1	3268
871.23	3511
871.36	3511
871.489	3386
871.619	3416
871.749	3450
871.879	3458
872.008	3492
872.138	3367
872.267	3313
872.397	3184
872.526	3138
872.656	3032
872.785	3154
872.915	3283
873.044	3374
873.173	3268
873.303	3260
873.432	3291
873.561	3268
873.69	3176
873.819	3195
873.948	3253
874.077	3157
874.206	3116
874.335	3074
874.464	3291
874.593	3367
874.722	3291
874.851	3469
874.979	3351
875.108	3378
875.237	3264
875.365	3188
875.494	3165
875.623	3241
875.751	3077
875.88	3138
876.008	3211
876.136	3268
876.265	3397
876.393	3572
876.521	3466
876.65	3435
876.778	3340
876.906	3310
877.034	3230
877.162	3264
877.29	3199
877.418	3294
877.546	3268
877.674	3253
877.802	3279
877.93	3233
878.058	3207
878.185	3165
878.313	3237
878.441	3230
878.568	3089
878.696	3184
878.824	3272
878.951	3332
879.079	3450
879.206	3633
879.333	3485
879.461	3374
879.588	3393
879.715	3504
879.842	3568
879.97	3397
880.097	3180
880.224	3119
880.351	3226
880.478	3241
880.605	3233
880.732	3207
880.859	3523
880.986	3348
881.112	3348
881.239	3272
881.366	3142
881.493	3074
881.619	3085
881.746	3093
881.872	3097
881.999	3116
882.125	3161
882.252	3260
882.378	3298
882.505	3462
882.631	3272
882.757	3218
882.883	3226
883.01	3214
883.136	3195
883.262	3104
883.388	3131
883.514	3363
883.64	3439
883.766	3317
883.892	3214
884.018	3226
884.143	3428
884.269	3576
884.395	3233
884.52	3161
884.646	3203
884.772	3173
884.897	3127
885.023	3226
885.148	3344
885.274	3435
885.399	3409
885.524	3264
885.65	3260
885.775	3363
885.9	3306
886.025	3389
886.15	3397
886.275	3313
886.4	3264
886.525	3325
886.65	3275
886.775	3313
886.9	3519
887.025	3633
887.149	3428
887.274	3313
887.399	3245
887.523	3222
887.648	3222
887.773	3233
887.897	3454
888.021	3492
888.146	3306
888.27	3462
888.395	3572
888.519	3439
888.643	3450
888.767	3492
888.891	3302
889.015	3241
889.139	3367
889.263	3279
889.387	3428
889.511	3553
889.635	3473
889.759	3306
889.883	3298
890.006	3405
890.13	3545
890.254	3306
890.377	3340
890.501	3203
890.624	3222
890.748	3344
890.871	3207
890.995	3104
891.118	3074
891.241	3222
891.364	3237
891.488	3351
891.611	3207
891.734	3218
891.857	3226
891.98	3249
892.103	3389
892.226	3291
892.349	3237
892.471	3131
892.594	3264
892.717	3275
892.839	3302
892.962	3310
893.085	3367
893.207	3287
893.33	3165
893.452	3230
893.575	3332
893.697	3287
893.819	3462
893.941	3481
894.064	3477
894.186	3306
894.308	3291
894.43	3416
894.552	3568
894.674	3492
894.796	3272
894.918	3329
895.04	3359
895.161	3435
895.283	3405
895.405	3317
895.526	3393
895.648	3431
895.769	3496
895.891	3488
896.012	3523
896.134	3454
896.255	3393
896.376	3386
896.498	3378
896.619	3515
896.74	3374
896.861	3450
896.982	3713
897.103	3850
897.224	3606
897.345	3530
897.466	3447
897.587	3500
897.708	3599
897.828	3553
897.949	3496
898.07	3329
898.19	3409
898.311	3603
898.431	3443
898.552	3572
898.672	3587
898.792	3542
898.913	3572
899.033	3424
899.153	3264
899.273	3230
899.393	3325
899.513	3340
899.633	3336
899.753	3409
899.873	3355
899.993	3393
900.113	3313
900.232	3401
900.352	3355
900.472	3336
900.591	3207
900.711	3336
900.83	3264
900.95	3389
901.069	3542
901.189	3374
901.308	3180
901.427	3135
901.546	3226
901.665	3348
901.784	3386
901.904	3211
902.023	3127
902.141	3032
902.26	3024
902.379	3112
902.498	3081
902.617	3074
902.735	3184
902.854	3268
902.973	3192
903.091	3074
903.21	3062
903.328	3173
903.446	3077
903.565	3085
903.683	3245
903.801	3138
903.919	3279
904.038	3336
904.156	3211
904.274	3294
904.392	3256
904.51	3275
904.627	3325
904.745	3466
904.863	3500
904.981	3291
905.098	3192
905.216	3245
905.334	3348
905.451	3272
905.569	3310
905.686	3447
905.803	3435
905.921	3287
906.038	3458
906.155	3367
906.272	3283
906.389	3344
906.506	3222
906.623	3264
906.74	3294
906.857	3195
906.974	3237
907.091	3466
907.208	3580
907.324	3507
907.441	3401
907.557	3256
907.674	3253
907.79	3233
907.907	3275
908.023	3363
908.139	3340
908.256	3313
908.372	3409
908.488	3344
908.604	3272
908.72	3283
908.836	3264
908.952	3332
909.068	3344
909.184	3523
909.3	3382
909.415	3500
909.531	3473
909.647	3256
909.762	3317
909.878	3306
909.993	3405
910.108	3340
910.224	3351
910.339	3447
910.454	3332
910.57	3313
910.685	3245
910.8	3618
910.915	3564
911.03	3405
911.145	3260
911.259	3298
911.374	3321
911.489	3268
911.604	3199
911.718	3138
911.833	3180
911.947	3062
912.062	2998
912.176	3161
912.291	3188
912.405	3222
912.519	3424
912.633	3462
912.748	3367
912.862	3275
912.976	3203
913.09	3100
913.204	3165
913.318	3245
913.431	3351
913.545	3367
913.659	3416
913.772	3363
913.886	3214
914	3214
914.113	3405
914.226	3454
914.34	3325
914.453	3222
914.566	3450
914.68	3321
914.793	3298
914.906	3157
915.019	3104
915.132	3074
915.245	3146
915.358	3214
915.47	3207
915.583	3317
915.696	3306
915.809	3386
915.921	3386
916.034	3298
916.146	3283
916.259	3256
916.371	3370
916.483	3386
916.595	3249
916.708	3409
916.82	3344
916.932	3359
917.044	3374
917.156	3405
917.268	3298
917.38	3317
917.491	3321
917.603	3397
917.715	3454
917.826	3466
917.938	3386
918.049	3275
918.161	3428
918.272	3614
918.384	3587
918.495	3485
918.606	3382
918.717	3351
918.828	3405
918.939	3424
919.05	3302
919.161	3424
919.272	3218
919.383	3348
919.494	3538
919.604	3709
919.715	3507
919.826	3485
919.936	3526
920.047	3584
920.157	3534
920.267	3797
920.378	3641
920.488	3652
920.598	3781
920.708	4032
920.818	3892
920.928	3884
921.038	4086
921.148	4048
921.258	3720
921.368	3705
921.477	3652
921.587	3553
921.697	3500
921.806	3648
921.916	3576
922.025	3450
922.134	3397
922.244	3348
922.353	3473
922.462	3351
922.571	3249
922.68	3135
922.789	3104
922.898	3211
923.007	3154
923.116	3283
923.224	3222
923.333	3222
923.442	3157
923.55	3150
923.659	3211
923.767	3241
923.876	3180
923.984	3291
924.092	3127
924.201	3249
924.309	3237
924.417	3264
924.525	3256
924.633	3283
924.741	4246
924.849	3104
924.956	3306
925.064	3169
925.172	3074
925.279	3104
925.387	3222
925.494	3230
925.602	3401
925.709	3401
925.816	3203
925.924	3325
926.031	3458
926.138	3374
926.245	3412
926.352	3279
926.459	3473
926.566	3507
926.673	3363
926.779	3310
926.886	3306
926.993	3203
927.099	3169
927.206	3142
927.312	3207
927.419	3306
927.525	3260
927.631	3306
927.737	3176
927.843	3199
927.95	3066
928.056	3157
928.162	3203
928.267	3291
928.373	3930
928.479	3336
928.585	3116
928.69	3264
928.796	3298
928.901	3230
929.007	3089
929.112	3230
929.218	3211
929.323	3195
929.428	3211
929.533	3344
929.638	3146
929.743	3184
929.848	3298
929.953	3249
930.058	3192
930.163	3070
930.267	3043
930.372	3188
930.477	3066
930.581	3325
930.685	3188
930.79	3089
930.894	3192
930.998	3157
931.103	3329
931.207	3017
931.311	2971
931.415	2941
931.519	2819
931.623	2830
