Data from test_V78500241_317.txt Node
Date: Fri Mar 25 16:17:24 CST 2022
User: usil
Spectrometer: V785-0024
Trigger mode: 0
Integration Time (sec): 4.000000E-1
Scans to average: 1
Nonlinearity correction enabled: false
Boxcar width: 0
Storing dark spectrum: false
XAxis mode: Wavelengths
Number of Pixels in Spectrum: 1024
>>>>>Begin Spectral Data<<<<<
801.071	2933
801.214	2922
801.356	2899
801.499	2906
801.641	2929
801.783	2948
801.926	3093
802.068	3001
802.211	3005
802.353	3066
802.496	2982
802.638	3017
802.78	3055
802.923	3112
803.065	3036
803.208	2914
803.35	2937
803.492	2944
803.635	2944
803.777	2788
803.919	2887
804.061	3211
804.204	2952
804.346	2918
804.488	2834
804.63	3020
804.773	2895
804.915	2933
805.057	3097
805.199	2944
805.341	2990
805.483	3020
805.626	2994
805.768	2982
805.91	3108
806.052	3176
806.194	3085
806.336	3245
806.478	3070
806.62	2979
806.762	2979
806.904	3039
807.046	3180
807.188	2994
807.33	2925
807.472	3028
807.614	2914
807.756	2998
807.898	2914
808.04	2868
808.182	2986
808.324	3013
808.465	2876
808.607	2887
808.749	2823
808.891	2868
809.033	2960
809.174	3001
809.316	2899
809.458	2906
809.6	2796
809.741	2766
809.883	2769
810.025	2861
810.166	2876
810.308	2845
810.45	2838
810.591	2792
810.733	2781
810.875	2845
811.016	2800
811.158	2762
811.299	2857
811.441	2941
811.582	2922
811.724	2895
811.865	2853
812.007	2914
812.148	2883
812.29	2857
812.431	2891
812.573	2944
812.714	3001
812.855	3085
812.997	3070
813.138	3135
813.279	3005
813.421	3009
813.562	2967
813.703	2891
813.845	2895
813.986	2788
814.127	2743
814.268	2838
814.41	2823
814.551	2849
814.692	2887
814.833	2842
814.974	2914
815.115	2979
815.256	2861
815.397	2804
815.539	2883
815.68	2792
815.821	2842
815.962	2956
816.103	2922
816.244	2895
816.385	2872
816.526	2975
816.666	2956
816.807	2769
816.948	2902
817.089	2906
817.23	2868
817.371	2804
817.512	2785
817.653	2826
817.793	2807
817.934	2864
818.075	2975
818.216	3013
818.356	3039
818.497	2902
818.638	2819
818.778	2838
818.919	2792
819.06	2739
819.2	2914
819.341	2853
819.481	2815
819.622	2937
819.762	3127
819.903	3032
820.043	2910
820.184	2918
820.324	2937
820.465	3028
820.605	3028
820.746	3028
820.886	2948
821.026	3127
821.167	3169
821.307	3188
821.447	3313
821.588	3241
821.728	3207
821.868	3241
822.008	3100
822.149	3203
822.289	3253
822.429	3119
822.569	3104
822.709	3180
822.849	3074
822.99	3055
823.13	3176
823.27	3218
823.41	3108
823.55	3184
823.69	3157
823.83	3195
823.97	3104
824.11	3005
824.25	2998
824.389	3097
824.529	3169
824.669	3077
824.809	3222
824.949	3264
825.089	3253
825.228	3157
825.368	3013
825.508	2986
825.648	2967
825.787	2986
825.927	3066
826.067	2979
826.206	2948
826.346	3039
826.485	3093
826.625	3131
826.765	3294
826.904	3211
827.044	3017
827.183	2925
827.323	2868
827.462	2971
827.601	2914
827.741	2952
827.88	2963
828.02	2895
828.159	2971
828.298	3055
828.437	3108
828.577	3043
828.716	3222
828.855	3093
828.994	2914
829.134	2906
829.273	2925
829.412	2872
829.551	2883
829.69	2895
829.829	3017
829.968	3142
830.107	3013
830.246	3032
830.385	2941
830.524	2883
830.663	2807
830.802	2716
830.941	2670
831.08	2651
831.219	2762
831.357	2743
831.496	2944
831.635	2739
831.774	2674
831.913	2651
832.051	2564
832.19	2549
832.329	2670
832.467	2549
832.606	2495
832.744	2579
832.883	2606
833.022	2587
833.16	2651
833.299	2701
833.437	2708
833.576	2693
833.714	2739
833.852	2720
833.991	2769
834.129	2834
834.267	2838
834.406	2796
834.544	2887
834.682	2902
834.821	2868
834.959	3055
835.097	2883
835.235	3058
835.373	2967
835.511	3036
835.65	2952
835.788	2960
835.926	2823
836.064	2788
836.202	2826
836.34	3112
836.478	3165
836.615	3077
836.753	3131
836.891	3173
837.029	3199
837.167	3142
837.305	3058
837.443	3085
837.58	2967
837.718	3131
837.856	3062
837.993	2998
838.131	3112
838.269	3097
838.406	3097
838.544	3066
838.681	2925
838.819	2895
838.956	2830
839.094	2868
839.231	2944
839.369	3043
839.506	3344
839.643	3226
839.781	3001
839.918	2971
840.055	3055
840.193	3047
840.33	3097
840.467	3097
840.604	3161
840.742	3416
840.879	3058
841.016	3085
841.153	3135
841.29	3344
841.427	3260
841.564	3245
841.701	3321
841.838	3233
841.975	3157
842.112	3203
842.249	3097
842.385	3077
842.522	3249
842.659	3066
842.796	3074
842.933	3074
843.069	3074
843.206	3047
843.343	3188
843.479	3127
843.616	3085
843.752	2872
843.889	2864
844.025	3093
844.162	2891
844.298	3074
844.435	2952
844.571	2895
844.708	3039
844.844	3180
844.98	3214
845.117	3237
845.253	3020
845.389	3013
845.525	3097
845.661	3131
845.798	3024
845.934	3146
846.07	3032
846.206	3226
846.342	3351
846.478	3245
846.614	3093
846.75	3081
846.886	3032
847.022	3245
847.158	3131
847.294	3218
847.429	3245
847.565	3192
847.701	3473
847.837	3051
847.972	2986
848.108	3146
848.244	3154
848.379	2979
848.515	2963
848.65	2925
848.786	2952
848.921	2994
849.057	3108
849.192	3116
849.328	3024
849.463	3108
849.598	3070
849.734	3058
849.869	2952
850.004	2925
850.14	3001
850.275	2906
850.41	2823
850.545	2906
850.68	2929
850.815	2937
850.95	2971
851.085	3199
851.22	3100
851.355	3062
851.49	3024
851.625	2990
851.76	2982
851.895	2925
852.03	2956
852.165	3070
852.299	3112
852.434	3207
852.569	3138
852.703	3146
852.838	3245
852.973	3344
853.107	3340
853.242	3131
853.376	3112
853.511	3005
853.645	3062
853.78	3222
853.914	3097
854.048	3123
854.183	3108
854.317	3131
854.451	3294
854.585	3116
854.72	3123
854.854	3199
854.988	3058
855.122	3074
855.256	2960
855.39	3108
855.524	3260
855.658	3184
855.792	3176
855.926	3203
856.06	3222
856.194	3249
856.327	3169
856.461	3112
856.595	3062
856.729	3097
856.862	3165
856.996	3150
857.13	3195
857.263	3203
857.397	3264
857.53	3131
857.664	3180
857.797	3272
857.931	3272
858.064	3135
858.197	3214
858.331	3127
858.464	3077
858.597	3005
858.731	3123
858.864	3116
858.997	3062
859.13	3207
859.263	3184
859.396	3203
859.529	3074
859.662	3097
859.795	3047
859.928	3135
860.061	3275
860.194	3294
860.327	3135
860.46	3112
860.592	3275
860.725	3222
860.858	3214
860.99	3108
861.123	3062
861.256	3051
861.388	3138
861.521	3869
861.653	3001
861.786	2944
861.918	3020
862.05	3074
862.183	3097
862.315	3165
862.447	3199
862.58	3100
862.712	2982
862.844	2838
862.976	3009
863.108	3013
863.24	3302
863.372	2861
863.504	2960
863.636	2941
863.768	3024
863.9	2971
864.032	2918
864.164	2925
864.296	2990
864.428	3085
864.559	3070
864.691	3070
864.823	3039
864.954	3081
865.086	3028
865.217	2956
865.349	3017
865.48	2975
865.612	3009
865.743	3157
865.875	2994
866.006	2956
866.137	2982
866.269	2948
866.4	2956
866.531	2925
866.662	2891
866.793	2883
866.924	2922
867.055	2971
867.186	2952
867.317	2887
867.448	2823
867.579	2826
867.71	2823
867.841	2838
867.972	2899
868.103	2906
868.233	2845
868.364	2960
868.495	2902
868.625	3047
868.756	3176
868.886	2982
869.017	3051
869.147	3161
869.278	3123
869.408	3032
869.539	3013
869.669	3081
869.799	3013
869.929	3100
870.06	3089
870.19	3275
870.32	3275
870.45	3302
870.58	3363
870.71	3416
870.84	3420
870.97	3310
871.1	3264
871.23	3473
871.36	3462
871.489	3397
871.619	3428
871.749	3435
871.879	3416
872.008	3485
872.138	3359
872.267	3279
872.397	3138
872.526	3108
872.656	3020
872.785	3077
872.915	3222
873.044	3329
873.173	3188
873.303	3214
873.432	3211
873.561	3218
873.69	3142
873.819	3131
873.948	3165
874.077	3051
874.206	3074
874.335	3100
874.464	3226
874.593	3363
874.722	3260
874.851	3382
874.979	3348
875.108	3298
875.237	3169
875.365	3116
875.494	3161
875.623	3230
875.751	3070
875.88	3119
876.008	3169
876.136	3260
876.265	3382
876.393	3515
876.521	3424
876.65	3397
876.778	3294
876.906	3253
877.034	3214
877.162	3211
877.29	3165
877.418	3233
877.546	3260
877.674	3245
877.802	3230
877.93	3279
878.058	3138
878.185	3116
878.313	3192
878.441	3249
878.568	3066
878.696	3173
878.824	3237
878.951	3310
879.079	3435
879.206	3614
879.333	3481
879.461	3340
879.588	3359
879.715	3473
879.842	3557
879.97	3401
880.097	3165
880.224	3135
880.351	3188
880.478	3249
880.605	3214
880.732	3192
880.859	3507
880.986	3283
881.112	3370
881.239	3161
881.366	3108
881.493	3051
881.619	3055
881.746	3081
881.872	3085
881.999	3112
882.125	3165
882.252	3237
882.378	3264
882.505	3439
882.631	3272
882.757	3127
882.883	3233
883.01	3195
883.136	3169
883.262	3085
883.388	3058
883.514	3348
883.64	3359
883.766	3306
883.892	3199
884.018	3207
884.143	3412
884.269	3523
884.395	3214
884.52	3154
884.646	3157
884.772	3131
884.897	3093
885.023	3199
885.148	3310
885.274	3416
885.399	3367
885.524	3325
885.65	3253
885.775	3294
885.9	3279
886.025	3439
886.15	3405
886.275	3302
886.4	3207
886.525	3325
886.65	3302
886.775	3275
886.9	3500
887.025	3614
887.149	3397
887.274	3275
887.399	3184
887.523	3192
887.648	3165
887.773	3211
887.897	3355
888.021	3420
888.146	3279
888.27	3428
888.395	3538
888.519	3450
888.643	3443
888.767	3488
888.891	3325
889.015	3249
889.139	3313
889.263	3241
889.387	3393
889.511	3519
889.635	3507
889.759	3275
889.883	3291
890.006	3378
890.13	3469
890.254	3256
890.377	3336
890.501	3192
890.624	3195
890.748	3272
890.871	3195
890.995	3058
891.118	3055
891.241	3146
891.364	3226
891.488	3283
891.611	3176
891.734	3211
891.857	3268
891.98	3218
892.103	3325
892.226	3268
892.349	3218
892.471	3097
892.594	3272
892.717	3275
892.839	3264
892.962	3279
893.085	3359
893.207	3310
893.33	3176
893.452	3188
893.575	3272
893.697	3237
893.819	3492
893.941	3477
894.064	3450
894.186	3249
894.308	3275
894.43	3424
894.552	3545
894.674	3488
894.796	3287
894.918	3306
895.04	3249
895.161	3458
895.283	3340
895.405	3336
895.526	3332
895.648	3443
895.769	3416
895.891	3443
896.012	3473
896.134	3458
896.255	3397
896.376	3386
896.498	3313
896.619	3412
896.74	3313
896.861	3393
896.982	3663
897.103	3819
897.224	3599
897.345	3523
897.466	3447
897.587	3496
897.708	3629
897.828	3603
897.949	3458
898.07	3332
898.19	3370
898.311	3576
898.431	3439
898.552	3504
898.672	3584
898.792	3572
898.913	3538
899.033	3386
899.153	3253
899.273	3218
899.393	3287
899.513	3344
899.633	3332
899.753	3287
899.873	3325
899.993	3359
900.113	3336
900.232	3386
900.352	3351
900.472	3241
900.591	3195
900.711	3291
900.83	3233
900.95	3409
901.069	3466
901.189	3317
901.308	3214
901.427	3104
901.546	3195
901.665	3291
901.784	3355
901.904	3173
902.023	3131
902.141	2990
902.26	2982
902.379	3116
902.498	3062
902.617	3062
902.735	3192
902.854	3256
902.973	3176
903.091	3058
903.21	3043
903.328	3100
903.446	3119
903.565	3123
903.683	3199
903.801	3112
903.919	3249
904.038	3272
904.156	3176
904.274	3268
904.392	3237
904.51	3336
904.627	3336
904.745	3409
904.863	3492
904.981	3226
905.098	3195
905.216	3268
905.334	3256
905.451	3298
905.569	3294
905.686	3431
905.803	3409
905.921	3264
906.038	3447
906.155	3363
906.272	3264
906.389	3348
906.506	3218
906.623	3245
906.74	3249
906.857	3146
906.974	3237
907.091	3409
907.208	3557
907.324	3454
907.441	3378
907.557	3222
907.674	3233
907.79	3211
907.907	3283
908.023	3370
908.139	3393
908.256	3336
908.372	3370
908.488	3332
908.604	3218
908.72	3260
908.836	3272
908.952	3283
909.068	3291
909.184	3447
909.3	3462
909.415	3462
909.531	3500
909.647	3256
909.762	3268
909.878	3207
909.993	3367
910.108	3336
910.224	3340
910.339	3397
910.454	3310
910.57	3306
910.685	3222
910.8	3591
910.915	3507
911.03	3439
911.145	3256
911.259	3256
911.374	3329
911.489	3237
911.604	3192
911.718	3131
911.833	3112
911.947	3017
912.062	2963
912.176	3150
912.291	3150
912.405	3211
912.519	3431
912.633	3492
912.748	3340
912.862	3230
912.976	3146
913.09	3089
913.204	3135
913.318	3245
913.431	3348
913.545	3359
913.659	3386
913.772	3344
913.886	3195
914	3176
914.113	3351
914.226	3454
914.34	3351
914.453	3230
914.566	3412
914.68	3298
914.793	3336
914.906	3131
915.019	3074
915.132	3081
915.245	3184
915.358	3233
915.47	3199
915.583	3233
915.696	3298
915.809	3401
915.921	3424
916.034	3279
916.146	3272
916.259	3272
916.371	3405
916.483	3389
916.595	3325
916.708	3351
916.82	3313
916.932	3370
917.044	3374
917.156	3386
917.268	3260
917.38	3313
917.491	3329
917.603	3420
917.715	3492
917.826	3500
917.938	3409
918.049	3340
918.161	3477
918.272	3625
918.384	3614
918.495	3526
918.606	3378
918.717	3298
918.828	3374
918.939	3450
919.05	3344
919.161	3405
919.272	3253
919.383	3321
919.494	3580
919.604	3732
919.715	3564
919.826	3431
919.936	3538
920.047	3599
920.157	3584
920.267	3800
920.378	3701
920.488	3622
920.598	3835
920.708	4040
920.818	3869
920.928	3869
921.038	4116
921.148	4017
921.258	3747
921.368	3652
921.477	3652
921.587	3595
921.697	3511
921.806	3705
921.916	3545
922.025	3416
922.134	3424
922.244	3370
922.353	3492
922.462	3283
922.571	3253
922.68	3119
922.789	3097
922.898	3222
923.007	3112
923.116	3264
923.224	3207
923.333	3241
923.442	3154
923.55	3154
923.659	3214
923.767	3268
923.876	3157
923.984	3268
924.092	3199
924.201	3241
924.309	3256
924.417	3329
924.525	3233
924.633	3279
924.741	4223
924.849	3062
924.956	3317
925.064	3135
925.172	3089
925.279	3127
925.387	3245
925.494	3237
925.602	3355
925.709	3401
925.816	3230
925.924	3344
926.031	3412
926.138	3393
926.245	3367
926.352	3329
926.459	3428
926.566	3473
926.673	3336
926.779	3283
926.886	3272
926.993	3203
927.099	3150
927.206	3104
927.312	3154
927.419	3275
927.525	3256
927.631	3340
927.737	3150
927.843	3127
927.95	3028
928.056	3154
928.162	3203
928.267	3279
928.373	3911
928.479	3351
928.585	3123
928.69	3230
928.796	3310
928.901	3176
929.007	3093
929.112	3230
929.218	3199
929.323	3211
929.428	3199
929.533	3367
929.638	3173
929.743	3169
929.848	3329
929.953	3222
930.058	3203
930.163	3043
930.267	3093
930.372	3230
930.477	3093
930.581	3359
930.685	3207
930.79	3093
930.894	3157
930.998	3108
931.103	3321
931.207	3020
931.311	3005
931.415	2963
931.519	2811
931.623	2864
