Data from test_V78500241_248.txt Node
Date: Fri Mar 25 16:16:55 CST 2022
User: usil
Spectrometer: V785-0024
Trigger mode: 0
Integration Time (sec): 4.000000E-1
Scans to average: 1
Nonlinearity correction enabled: false
Boxcar width: 0
Storing dark spectrum: false
XAxis mode: Wavelengths
Number of Pixels in Spectrum: 1024
>>>>>Begin Spectral Data<<<<<
801.071	2895
801.214	2899
801.356	2880
801.499	2918
801.641	2891
801.783	2933
801.926	3036
802.068	2982
802.211	2971
802.353	3009
802.496	2994
802.638	2986
802.78	3013
802.923	3077
803.065	2979
803.208	2880
803.35	2872
803.492	2937
803.635	2929
803.777	2781
803.919	2868
804.061	3195
804.204	2922
804.346	2910
804.488	2887
804.63	3020
804.773	2872
804.915	2925
805.057	3070
805.199	2899
805.341	2956
805.483	3043
805.626	2975
805.768	2994
805.91	3062
806.052	3135
806.194	3024
806.336	3230
806.478	3047
806.62	2948
806.762	3017
806.904	3028
807.046	3165
807.188	2990
807.33	2960
807.472	2990
807.614	2880
807.756	2986
807.898	2937
808.04	2902
808.182	2971
808.324	2960
808.465	2891
808.607	2887
808.749	2800
808.891	2864
809.033	2944
809.174	2967
809.316	2887
809.458	2876
809.6	2762
809.741	2773
809.883	2781
810.025	2857
810.166	2838
810.308	2807
810.45	2861
810.591	2788
810.733	2773
810.875	2853
811.016	2785
811.158	2743
811.299	2845
811.441	2925
811.582	2895
811.724	2853
811.865	2823
812.007	2929
812.148	2845
812.29	2876
812.431	2891
812.573	2925
812.714	2956
812.855	3055
812.997	3028
813.138	3157
813.279	3047
813.421	2975
813.562	2956
813.703	2906
813.845	2883
813.986	2769
814.127	2724
814.268	2838
814.41	2838
814.551	2838
814.692	2887
814.833	2845
814.974	2880
815.115	3005
815.256	2830
815.397	2807
815.539	2857
815.68	2758
815.821	2788
815.962	2960
816.103	2941
816.244	2853
816.385	2902
816.526	2952
816.666	2910
816.807	2788
816.948	2876
817.089	2891
817.23	2880
817.371	2769
817.512	2788
817.653	2868
817.793	2834
817.934	2853
818.075	2982
818.216	2952
818.356	3020
818.497	2891
818.638	2754
818.778	2788
818.919	2777
819.06	2754
819.2	2887
819.341	2807
819.481	2819
819.622	2914
819.762	3100
819.903	3055
820.043	2944
820.184	2899
820.324	2880
820.465	3062
820.605	3024
820.746	3047
820.886	2937
821.026	3097
821.167	3237
821.307	3283
821.447	3279
821.588	3222
821.728	3195
821.868	3188
822.008	3108
822.149	3214
822.289	3214
822.429	3085
822.569	3097
822.709	3176
822.849	3043
822.99	3051
823.13	3184
823.27	3184
823.41	3150
823.55	3199
823.69	3142
823.83	3214
823.97	3123
824.11	2963
824.25	2998
824.389	3062
824.529	3123
824.669	3047
824.809	3203
824.949	3241
825.089	3230
825.228	3173
825.368	2994
825.508	2925
825.648	2963
825.787	3032
825.927	3020
826.067	2948
826.206	2967
826.346	3024
826.485	3055
826.625	3119
826.765	3272
826.904	3195
827.044	3001
827.183	2956
827.323	2845
827.462	2998
827.601	2902
827.741	2956
827.88	2982
828.02	2861
828.159	3017
828.298	3055
828.437	3135
828.577	3032
828.716	3253
828.855	3070
828.994	2895
829.134	2902
829.273	2941
829.412	2868
829.551	2853
829.69	2868
829.829	3001
829.968	3112
830.107	2990
830.246	3013
830.385	2929
830.524	2864
830.663	2788
830.802	2727
830.941	2667
831.08	2648
831.219	2746
831.357	2773
831.496	2956
831.635	2693
831.774	2663
831.913	2651
832.051	2545
832.19	2541
832.329	2663
832.467	2560
832.606	2488
832.744	2594
832.883	2587
833.022	2575
833.16	2667
833.299	2670
833.437	2724
833.576	2686
833.714	2743
833.852	2720
833.991	2796
834.129	2842
834.267	2826
834.406	2800
834.544	2861
834.682	2891
834.821	2845
834.959	3062
835.097	2868
835.235	3058
835.373	2986
835.511	3013
835.65	2944
835.788	2967
835.926	2826
836.064	2781
836.202	2857
836.34	3116
836.478	3104
836.615	3005
836.753	3100
836.891	3218
837.029	3165
837.167	3104
837.305	3036
837.443	3058
837.58	2956
837.718	3127
837.856	3028
837.993	3043
838.131	3100
838.269	3100
838.406	3077
838.544	3108
838.681	2933
838.819	2895
838.956	2811
839.094	2861
839.231	2872
839.369	3032
839.506	3370
839.643	3199
839.781	3036
839.918	2994
840.055	3066
840.193	3017
840.33	3043
840.467	3062
840.604	3188
840.742	3416
840.879	3089
841.016	3074
841.153	3070
841.29	3325
841.427	3287
841.564	3260
841.701	3298
841.838	3199
841.975	3173
842.112	3230
842.249	3081
842.385	3039
842.522	3283
842.659	3077
842.796	3062
842.933	3138
843.069	3051
843.206	3043
843.343	3241
843.479	3100
843.616	3127
843.752	2880
843.889	2872
844.025	3066
844.162	2868
844.298	3093
844.435	2967
844.571	2963
844.708	3070
844.844	3165
844.98	3256
845.117	3211
845.253	3047
845.389	3001
845.525	3081
845.661	3097
845.798	3017
845.934	3123
846.07	3055
846.206	3176
846.342	3310
846.478	3195
846.614	3097
846.75	3013
846.886	3024
847.022	3260
847.158	3138
847.294	3199
847.429	3245
847.565	3188
847.701	3485
847.837	3013
847.972	3013
848.108	3135
848.244	3146
848.379	2967
848.515	2929
848.65	2941
848.786	2960
848.921	3013
849.057	3108
849.192	3161
849.328	3089
849.463	3081
849.598	3070
849.734	3009
849.869	2937
850.004	2914
850.14	2963
850.275	2868
850.41	2838
850.545	2876
850.68	2910
850.815	2960
850.95	2986
851.085	3176
851.22	3097
851.355	3020
851.49	3005
851.625	3020
851.76	3013
851.895	2925
852.03	2937
852.165	3043
852.299	3112
852.434	3195
852.569	3165
852.703	3169
852.838	3264
852.973	3340
853.107	3313
853.242	3138
853.376	3077
853.511	2994
853.645	3043
853.78	3245
853.914	3119
854.048	3108
854.183	3097
854.317	3119
854.451	3302
854.585	3100
854.72	3089
854.854	3211
854.988	3066
855.122	3093
855.256	2941
855.39	3089
855.524	3222
855.658	3184
855.792	3150
855.926	3165
856.06	3275
856.194	3256
856.327	3119
856.461	3070
856.595	3070
856.729	3123
856.862	3203
856.996	3146
857.13	3180
857.263	3207
857.397	3264
857.53	3108
857.664	3195
857.797	3260
857.931	3241
858.064	3173
858.197	3203
858.331	3100
858.464	3055
858.597	3020
858.731	3104
858.864	3116
858.997	3142
859.13	3154
859.263	3146
859.396	3184
859.529	3074
859.662	3093
859.795	3093
859.928	3165
860.061	3283
860.194	3275
860.327	3108
860.46	3051
860.592	3253
860.725	3192
860.858	3233
860.99	3104
861.123	3070
861.256	3055
861.388	3150
861.521	3831
861.653	3001
861.786	3009
861.918	3009
862.05	3112
862.183	3055
862.315	3127
862.447	3214
862.58	3104
862.712	2925
862.844	2891
862.976	3036
863.108	3009
863.24	3310
863.372	2857
863.504	2918
863.636	2971
863.768	2998
863.9	3005
864.032	2918
864.164	2937
864.296	3001
864.428	3062
864.559	3077
864.691	3100
864.823	3066
864.954	3051
865.086	3047
865.217	2990
865.349	2937
865.48	2956
865.612	3032
865.743	3131
865.875	2963
866.006	2956
866.137	2994
866.269	2910
866.4	2941
866.531	2906
866.662	2929
866.793	2853
866.924	2902
867.055	2937
867.186	2941
867.317	2872
867.448	2834
867.579	2842
867.71	2845
867.841	2804
867.972	2918
868.103	2925
868.233	2864
868.364	2876
868.495	2887
868.625	3077
868.756	3180
868.886	2948
869.017	2979
869.147	3154
869.278	3146
869.408	3077
869.539	3024
869.669	3066
869.799	3036
869.929	3138
870.06	3108
870.19	3321
870.32	3260
870.45	3306
870.58	3374
870.71	3466
870.84	3473
870.97	3313
871.1	3222
871.23	3485
871.36	3458
871.489	3355
871.619	3374
871.749	3420
871.879	3447
872.008	3519
872.138	3393
872.267	3291
872.397	3150
872.526	3127
872.656	3017
872.785	3131
872.915	3249
873.044	3294
873.173	3237
873.303	3264
873.432	3218
873.561	3249
873.69	3173
873.819	3184
873.948	3260
874.077	3119
874.206	3062
874.335	3135
874.464	3233
874.593	3405
874.722	3351
874.851	3416
874.979	3340
875.108	3370
875.237	3241
875.365	3237
875.494	3184
875.623	3310
875.751	3146
875.88	3154
876.008	3256
876.136	3310
876.265	3378
876.393	3515
876.521	3458
876.65	3416
876.778	3363
876.906	3287
877.034	3241
877.162	3241
877.29	3211
877.418	3294
877.546	3279
877.674	3310
877.802	3264
877.93	3268
878.058	3237
878.185	3150
878.313	3256
878.441	3264
878.568	3108
878.696	3199
878.824	3264
878.951	3359
879.079	3504
879.206	3644
879.333	3458
879.461	3412
879.588	3431
879.715	3534
879.842	3599
879.97	3416
880.097	3241
880.224	3230
880.351	3211
880.478	3222
880.605	3253
880.732	3226
880.859	3504
880.986	3325
881.112	3382
881.239	3245
881.366	3142
881.493	3077
881.619	3074
881.746	3100
881.872	3131
881.999	3135
882.125	3195
882.252	3287
882.378	3317
882.505	3485
882.631	3313
882.757	3203
882.883	3233
883.01	3291
883.136	3192
883.262	3154
883.388	3169
883.514	3386
883.64	3412
883.766	3340
883.892	3253
884.018	3283
884.143	3439
884.269	3595
884.395	3233
884.52	3173
884.646	3226
884.772	3211
884.897	3142
885.023	3199
885.148	3367
885.274	3458
885.399	3389
885.524	3317
885.65	3325
885.775	3348
885.9	3348
886.025	3431
886.15	3428
886.275	3351
886.4	3275
886.525	3344
886.65	3291
886.775	3294
886.9	3488
887.025	3682
887.149	3431
887.274	3287
887.399	3218
887.523	3233
887.648	3275
887.773	3207
887.897	3412
888.021	3466
888.146	3340
888.27	3458
888.395	3576
888.519	3492
888.643	3485
888.767	3488
888.891	3329
889.015	3260
889.139	3367
889.263	3268
889.387	3416
889.511	3572
889.635	3485
889.759	3367
889.883	3351
890.006	3386
890.13	3526
890.254	3306
890.377	3389
890.501	3233
890.624	3260
890.748	3348
890.871	3214
890.995	3180
891.118	3097
891.241	3211
891.364	3275
891.488	3370
891.611	3195
891.734	3283
891.857	3310
891.98	3272
892.103	3374
892.226	3355
892.349	3226
892.471	3180
892.594	3272
892.717	3344
892.839	3287
892.962	3344
893.085	3370
893.207	3317
893.33	3195
893.452	3264
893.575	3340
893.697	3287
893.819	3481
893.941	3538
894.064	3511
894.186	3332
894.308	3302
894.43	3473
894.552	3572
894.674	3526
894.796	3325
894.918	3359
895.04	3317
895.161	3466
895.283	3420
895.405	3359
895.526	3405
895.648	3507
895.769	3488
895.891	3466
896.012	3523
896.134	3477
896.255	3439
896.376	3401
896.498	3424
896.619	3481
896.74	3409
896.861	3412
896.982	3740
897.103	3869
897.224	3648
897.345	3534
897.466	3454
897.587	3500
897.708	3667
897.828	3606
897.949	3511
898.07	3355
898.19	3401
898.311	3637
898.431	3481
898.552	3553
898.672	3663
898.792	3591
898.913	3584
899.033	3435
899.153	3329
899.273	3241
899.393	3321
899.513	3340
899.633	3378
899.753	3351
899.873	3325
899.993	3458
900.113	3374
900.232	3382
900.352	3386
900.472	3321
900.591	3233
900.711	3344
900.83	3275
900.95	3481
901.069	3523
901.189	3367
901.308	3222
901.427	3165
901.546	3218
901.665	3336
901.784	3393
901.904	3230
902.023	3214
902.141	3066
902.26	3028
902.379	3154
902.498	3123
902.617	3108
902.735	3226
902.854	3302
902.973	3249
903.091	3036
903.21	3108
903.328	3169
903.446	3119
903.565	3138
903.683	3233
903.801	3157
903.919	3287
904.038	3306
904.156	3195
904.274	3382
904.392	3279
904.51	3336
904.627	3382
904.745	3466
904.863	3534
904.981	3310
905.098	3264
905.216	3294
905.334	3359
905.451	3332
905.569	3386
905.686	3469
905.803	3435
905.921	3351
906.038	3485
906.155	3351
906.272	3325
906.389	3382
906.506	3298
906.623	3230
906.74	3275
906.857	3253
906.974	3291
907.091	3504
907.208	3614
907.324	3481
907.441	3435
907.557	3199
907.674	3291
907.79	3253
907.907	3325
908.023	3401
908.139	3416
908.256	3397
908.372	3397
908.488	3401
908.604	3272
908.72	3264
908.836	3321
908.952	3283
909.068	3367
909.184	3523
909.3	3420
909.415	3553
909.531	3500
909.647	3302
909.762	3389
909.878	3291
909.993	3351
910.108	3344
910.224	3420
910.339	3443
910.454	3332
910.57	3317
910.685	3260
910.8	3610
910.915	3542
911.03	3523
911.145	3268
911.259	3264
911.374	3329
911.489	3256
911.604	3264
911.718	3142
911.833	3180
911.947	3066
912.062	3055
912.176	3207
912.291	3226
912.405	3211
912.519	3473
912.633	3481
912.748	3336
912.862	3332
912.976	3199
913.09	3085
913.204	3154
913.318	3272
913.431	3348
913.545	3370
913.659	3477
913.772	3325
913.886	3272
914	3245
914.113	3401
914.226	3473
914.34	3359
914.453	3264
914.566	3424
914.68	3302
914.793	3336
914.906	3165
915.019	3154
915.132	3089
915.245	3218
915.358	3249
915.47	3241
915.583	3279
915.696	3313
915.809	3466
915.921	3469
916.034	3264
916.146	3321
916.259	3237
916.371	3401
916.483	3401
916.595	3306
916.708	3378
916.82	3374
916.932	3386
917.044	3401
917.156	3382
917.268	3294
917.38	3310
917.491	3329
917.603	3409
917.715	3485
917.826	3504
917.938	3443
918.049	3348
918.161	3416
918.272	3603
918.384	3591
918.495	3526
918.606	3393
918.717	3355
918.828	3435
918.939	3443
919.05	3351
919.161	3386
919.272	3192
919.383	3287
919.494	3545
919.604	3736
919.715	3515
919.826	3405
919.936	3496
920.047	3610
920.157	3587
920.267	3785
920.378	3671
920.488	3625
920.598	3793
920.708	3979
920.818	3854
920.928	3854
921.038	4029
921.148	4040
921.258	3743
921.368	3694
921.477	3595
921.587	3629
921.697	3424
921.806	3648
921.916	3534
922.025	3370
922.134	3393
922.244	3332
922.353	3462
922.462	3302
922.571	3256
922.68	3161
922.789	3104
922.898	3176
923.007	3135
923.116	3218
923.224	3157
923.333	3222
923.442	3135
923.55	3123
923.659	3165
923.767	3207
923.876	3108
923.984	3283
924.092	3123
924.201	3211
924.309	3237
924.417	3279
924.525	3214
924.633	3241
924.741	4196
924.849	3066
924.956	3268
925.064	3150
925.172	3058
925.279	3108
925.387	3256
925.494	3249
925.602	3401
925.709	3359
925.816	3222
925.924	3317
926.031	3431
926.138	3370
926.245	3439
926.352	3264
926.459	3405
926.566	3496
926.673	3351
926.779	3283
926.886	3245
926.993	3154
927.099	3154
927.206	3146
927.312	3116
927.419	3249
927.525	3214
927.631	3287
927.737	3161
927.843	3146
927.95	3058
928.056	3161
928.162	3165
928.267	3291
928.373	3911
928.479	3317
928.585	3081
928.69	3260
928.796	3321
928.901	3195
929.007	3074
929.112	3218
929.218	3188
929.323	3112
929.428	3154
929.533	3336
929.638	3112
929.743	3169
929.848	3260
929.953	3264
930.058	3161
930.163	3036
930.267	3074
930.372	3218
930.477	3047
930.581	3332
930.685	3192
930.79	3070
930.894	3131
930.998	3112
931.103	3287
931.207	2971
931.311	2975
931.415	2960
931.519	2777
931.623	2872
