Data from test_V78500241_1806.txt Node
Date: Fri Mar 25 16:27:42 CST 2022
User: usil
Spectrometer: V785-0024
Trigger mode: 0
Integration Time (sec): 4.000000E-1
Scans to average: 1
Nonlinearity correction enabled: false
Boxcar width: 0
Storing dark spectrum: false
XAxis mode: Wavelengths
Number of Pixels in Spectrum: 1024
>>>>>Begin Spectral Data<<<<<
801.071	2887
801.214	2948
801.356	2883
801.499	2876
801.641	2864
801.783	2948
801.926	3062
802.068	2998
802.211	2967
802.353	3013
802.496	2967
802.638	3024
802.78	3032
802.923	3089
803.065	3017
803.208	2887
803.35	2876
803.492	2960
803.635	2925
803.777	2769
803.919	2880
804.061	3157
804.204	2975
804.346	2853
804.488	2826
804.63	2994
804.773	2864
804.915	2929
805.057	3047
805.199	2922
805.341	2975
805.483	3013
805.626	3020
805.768	2982
805.91	3066
806.052	3100
806.194	3043
806.336	3245
806.478	3039
806.62	2967
806.762	3001
806.904	3024
807.046	3127
807.188	2960
807.33	2910
807.472	3009
807.614	2883
807.756	2990
807.898	2952
808.04	2887
808.182	2986
808.324	2925
808.465	2864
808.607	2864
808.749	2792
808.891	2826
809.033	2986
809.174	2975
809.316	2906
809.458	2902
809.6	2777
809.741	2762
809.883	2743
810.025	2861
810.166	2857
810.308	2819
810.45	2819
810.591	2788
810.733	2766
810.875	2815
811.016	2800
811.158	2743
811.299	2819
811.441	2941
811.582	2902
811.724	2804
811.865	2804
812.007	2952
812.148	2868
812.29	2804
812.431	2876
812.573	2933
812.714	2925
812.855	3070
812.997	3089
813.138	3131
813.279	3001
813.421	2956
813.562	2941
813.703	2872
813.845	2864
813.986	2754
814.127	2720
814.268	2823
814.41	2804
814.551	2826
814.692	2876
814.833	2788
814.974	2914
815.115	2941
815.256	2796
815.397	2815
815.539	2861
815.68	2769
815.821	2804
815.962	2937
816.103	2933
816.244	2872
816.385	2849
816.526	2975
816.666	2914
816.807	2777
816.948	2880
817.089	2887
817.23	2864
817.371	2773
817.512	2792
817.653	2830
817.793	2838
817.934	2899
818.075	2933
818.216	2998
818.356	3020
818.497	2887
818.638	2792
818.778	2788
818.919	2788
819.06	2746
819.2	2872
819.341	2788
819.481	2766
819.622	2918
819.762	3097
819.903	3024
820.043	2906
820.184	2906
820.324	2906
820.465	2998
820.605	2994
820.746	3020
820.886	2922
821.026	3047
821.167	3127
821.307	3245
821.447	3256
821.588	3264
821.728	3241
821.868	3169
822.008	3062
822.149	3192
822.289	3226
822.429	3039
822.569	3146
822.709	3188
822.849	3028
822.99	3066
823.13	3169
823.27	3222
823.41	3097
823.55	3138
823.69	3146
823.83	3188
823.97	3089
824.11	2975
824.25	2975
824.389	3070
824.529	3093
824.669	3055
824.809	3207
824.949	3256
825.089	3222
825.228	3161
825.368	2982
825.508	2895
825.648	2975
825.787	2979
825.927	3017
826.067	2963
826.206	2922
826.346	3036
826.485	3097
826.625	3112
826.765	3253
826.904	3222
827.044	3013
827.183	2922
827.323	2883
827.462	2986
827.601	2937
827.741	2906
827.88	2963
828.02	2830
828.159	2963
828.298	3028
828.437	3081
828.577	3032
828.716	3275
828.855	3074
828.994	2880
829.134	2899
829.273	2902
829.412	2876
829.551	2861
829.69	2887
829.829	2994
829.968	3127
830.107	3001
830.246	3005
830.385	2902
830.524	2838
830.663	2800
830.802	2716
830.941	2644
831.08	2644
831.219	2743
831.357	2724
831.496	2963
831.635	2724
831.774	2625
831.913	2617
832.051	2533
832.19	2571
832.329	2667
832.467	2522
832.606	2503
832.744	2590
832.883	2556
833.022	2575
833.16	2621
833.299	2636
833.437	2701
833.576	2727
833.714	2735
833.852	2716
833.991	2766
834.129	2830
834.267	2811
834.406	2796
834.544	2906
834.682	2868
834.821	2826
834.959	3036
835.097	2914
835.235	3051
835.373	2990
835.511	3013
835.65	2971
835.788	2933
835.926	2811
836.064	2788
836.202	2826
836.34	3093
836.478	3146
836.615	3055
836.753	3127
836.891	3184
837.029	3146
837.167	3112
837.305	3055
837.443	3039
837.58	2937
837.718	3100
837.856	3058
837.993	3074
838.131	3112
838.269	3097
838.406	3097
838.544	3062
838.681	2922
838.819	2883
838.956	2811
839.094	2845
839.231	2922
839.369	3013
839.506	3336
839.643	3195
839.781	3005
839.918	2982
840.055	3024
840.193	3032
840.33	3051
840.467	3058
840.604	3138
840.742	3389
840.879	3039
841.016	3055
841.153	3116
841.29	3310
841.427	3287
841.564	3249
841.701	3283
841.838	3237
841.975	3184
842.112	3207
842.249	3066
842.385	3005
842.522	3287
842.659	3089
842.796	3051
842.933	3081
843.069	3017
843.206	3036
843.343	3173
843.479	3100
843.616	3089
843.752	2914
843.889	2868
844.025	3062
844.162	2868
844.298	3077
844.435	2941
844.571	2910
844.708	3070
844.844	3195
844.98	3188
845.117	3195
845.253	3043
845.389	2967
845.525	3093
845.661	3055
845.798	2960
845.934	3108
846.07	3051
846.206	3211
846.342	3332
846.478	3245
846.614	3081
846.75	3047
846.886	3066
847.022	3207
847.158	3127
847.294	3214
847.429	3226
847.565	3154
847.701	3504
847.837	3024
847.972	2956
848.108	3157
848.244	3112
848.379	2963
848.515	2918
848.65	2902
848.786	2967
848.921	2979
849.057	3093
849.192	3135
849.328	3070
849.463	3070
849.598	3047
849.734	3039
849.869	3032
850.004	2906
850.14	2944
850.275	2963
850.41	2823
850.545	2883
850.68	2929
850.815	2941
850.95	2975
851.085	3180
851.22	3112
851.355	3055
851.49	2990
851.625	3005
851.76	3001
851.895	2914
852.03	2910
852.165	3039
852.299	3131
852.434	3188
852.569	3150
852.703	3157
852.838	3222
852.973	3329
853.107	3283
853.242	3131
853.376	3116
853.511	2944
853.645	2986
853.78	3203
853.914	3093
854.048	3089
854.183	3081
854.317	3165
854.451	3275
854.585	3112
854.72	3070
854.854	3237
854.988	3043
855.122	3100
855.256	2963
855.39	3074
855.524	3211
855.658	3176
855.792	3157
855.926	3173
856.06	3203
856.194	3253
856.327	3157
856.461	3028
856.595	3047
856.729	3093
856.862	3214
856.996	3157
857.13	3150
857.263	3199
857.397	3283
857.53	3104
857.664	3138
857.797	3222
857.931	3230
858.064	3154
858.197	3214
858.331	3112
858.464	3093
858.597	3020
858.731	3112
858.864	3116
858.997	3066
859.13	3157
859.263	3135
859.396	3195
859.529	3070
859.662	3093
859.795	3036
859.928	3146
860.061	3253
860.194	3233
860.327	3127
860.46	3039
860.592	3233
860.725	3279
860.858	3230
860.99	3074
861.123	3085
861.256	3051
861.388	3154
861.521	3835
861.653	3032
861.786	3013
861.918	3005
862.05	3085
862.183	3070
862.315	3195
862.447	3207
862.58	3055
862.712	2956
862.844	2872
862.976	3013
863.108	2986
863.24	3450
863.372	2849
863.504	2952
863.636	2956
863.768	3024
863.9	2952
864.032	2906
864.164	2941
864.296	2998
864.428	3055
864.559	3089
864.691	3058
864.823	3043
864.954	3036
865.086	3055
865.217	2975
865.349	2956
865.48	2967
865.612	2967
865.743	3146
865.875	2982
866.006	2922
866.137	2937
866.269	2933
866.4	2937
866.531	2906
866.662	2853
866.793	2876
866.924	2868
867.055	2967
867.186	2922
867.317	2857
867.448	2826
867.579	2853
867.71	2842
867.841	2807
867.972	2933
868.103	2910
868.233	2876
868.364	2838
868.495	2876
868.625	3100
868.756	3165
868.886	2952
869.017	3009
869.147	3142
869.278	3176
869.408	3036
869.539	2979
869.669	3074
869.799	3032
869.929	3123
870.06	3104
870.19	3332
870.32	3298
870.45	3294
870.58	3370
870.71	3409
870.84	3420
870.97	3272
871.1	3226
871.23	3473
871.36	3469
871.489	3397
871.619	3389
871.749	3367
871.879	3431
872.008	3488
872.138	3363
872.267	3283
872.397	3176
872.526	3066
872.656	3009
872.785	3066
872.915	3260
873.044	3264
873.173	3211
873.303	3264
873.432	3218
873.561	3272
873.69	3135
873.819	3150
873.948	3188
874.077	3097
874.206	3032
874.335	3047
874.464	3237
874.593	3317
874.722	3226
874.851	3409
874.979	3382
875.108	3332
875.237	3211
875.365	3146
875.494	3135
875.623	3268
875.751	3074
875.88	3093
876.008	3131
876.136	3188
876.265	3367
876.393	3473
876.521	3378
876.65	3378
876.778	3306
876.906	3249
877.034	3180
877.162	3199
877.29	3131
877.418	3279
877.546	3222
877.674	3192
877.802	3211
877.93	3245
878.058	3176
878.185	3142
878.313	3157
878.441	3180
878.568	3062
878.696	3157
878.824	3226
878.951	3298
879.079	3450
879.206	3580
879.333	3424
879.461	3351
879.588	3310
879.715	3473
879.842	3564
879.97	3348
880.097	3131
880.224	3093
880.351	3199
880.478	3218
880.605	3176
880.732	3184
880.859	3500
880.986	3291
881.112	3283
881.239	3203
881.366	3093
881.493	3047
881.619	3009
881.746	3058
881.872	3070
881.999	3062
882.125	3116
882.252	3192
882.378	3264
882.505	3405
882.631	3272
882.757	3138
882.883	3203
883.01	3195
883.136	3119
883.262	3077
883.388	3062
883.514	3283
883.64	3310
883.766	3256
883.892	3161
884.018	3233
884.143	3382
884.269	3561
884.395	3195
884.52	3131
884.646	3157
884.772	3123
884.897	3074
885.023	3214
885.148	3298
885.274	3378
885.399	3367
885.524	3272
885.65	3279
885.775	3306
885.9	3302
886.025	3405
886.15	3374
886.275	3298
886.4	3176
886.525	3253
886.65	3260
886.775	3291
886.9	3473
887.025	3606
887.149	3439
887.274	3207
887.399	3180
887.523	3169
887.648	3112
887.773	3180
887.897	3397
888.021	3409
888.146	3249
888.27	3439
888.395	3515
888.519	3389
888.643	3450
888.767	3523
888.891	3317
889.015	3260
889.139	3302
889.263	3253
889.387	3405
889.511	3526
889.635	3439
889.759	3329
889.883	3329
890.006	3367
890.13	3443
890.254	3287
890.377	3344
890.501	3195
890.624	3211
890.748	3317
890.871	3184
890.995	3131
891.118	3066
891.241	3203
891.364	3264
891.488	3310
891.611	3211
891.734	3211
891.857	3279
891.98	3256
892.103	3359
892.226	3275
892.349	3226
892.471	3100
892.594	3268
892.717	3336
892.839	3272
892.962	3321
893.085	3389
893.207	3306
893.33	3176
893.452	3253
893.575	3359
893.697	3298
893.819	3469
893.941	3549
894.064	3481
894.186	3321
894.308	3291
894.43	3488
894.552	3568
894.674	3519
894.796	3294
894.918	3340
895.04	3317
895.161	3450
895.283	3431
895.405	3386
895.526	3367
895.648	3428
895.769	3473
895.891	3473
896.012	3511
896.134	3496
896.255	3447
896.376	3370
896.498	3424
896.619	3454
896.74	3424
896.861	3443
896.982	3705
897.103	3869
897.224	3629
897.345	3542
897.466	3496
897.587	3553
897.708	3667
897.828	3561
897.949	3469
898.07	3374
898.19	3454
898.311	3656
898.431	3481
898.552	3564
898.672	3633
898.792	3648
898.913	3557
899.033	3431
899.153	3332
899.273	3256
899.393	3317
899.513	3344
899.633	3336
899.753	3374
899.873	3348
899.993	3416
900.113	3389
900.232	3409
900.352	3401
900.472	3344
900.591	3294
900.711	3313
900.83	3272
900.95	3439
901.069	3507
901.189	3367
901.308	3256
901.427	3188
901.546	3214
901.665	3317
901.784	3389
901.904	3195
902.023	3165
902.141	3074
902.26	3039
902.379	3192
902.498	3077
902.617	3058
902.735	3272
902.854	3268
902.973	3211
903.091	3070
903.21	3112
903.328	3180
903.446	3116
903.565	3176
903.683	3218
903.801	3161
903.919	3260
904.038	3329
904.156	3173
904.274	3317
904.392	3264
904.51	3344
904.627	3355
904.745	3454
904.863	3511
904.981	3302
905.098	3180
905.216	3256
905.334	3313
905.451	3310
905.569	3321
905.686	3450
905.803	3488
905.921	3348
906.038	3469
906.155	3409
906.272	3310
906.389	3363
906.506	3241
906.623	3279
906.74	3317
906.857	3211
906.974	3268
907.091	3500
907.208	3606
907.324	3469
907.441	3378
907.557	3283
907.674	3249
907.79	3245
907.907	3329
908.023	3405
908.139	3431
908.256	3359
908.372	3420
908.488	3416
908.604	3298
908.72	3237
908.836	3264
908.952	3306
909.068	3363
909.184	3515
909.3	3435
909.415	3538
909.531	3504
909.647	3283
909.762	3287
909.878	3294
909.993	3386
910.108	3382
910.224	3321
910.339	3454
910.454	3378
910.57	3310
910.685	3256
910.8	3671
910.915	3564
911.03	3473
911.145	3291
911.259	3294
911.374	3317
911.489	3283
911.604	3253
911.718	3169
911.833	3188
911.947	3112
912.062	3028
912.176	3199
912.291	3260
912.405	3233
912.519	3454
912.633	3485
912.748	3351
912.862	3306
912.976	3256
913.09	3081
913.204	3176
913.318	3241
913.431	3340
913.545	3355
913.659	3409
913.772	3363
913.886	3283
914	3230
914.113	3382
914.226	3435
914.34	3424
914.453	3253
914.566	3431
914.68	3310
914.793	3348
914.906	3169
915.019	3146
915.132	3116
915.245	3192
915.358	3241
915.47	3237
915.583	3287
915.696	3302
915.809	3370
915.921	3477
916.034	3313
916.146	3275
916.259	3287
916.371	3416
916.483	3374
916.595	3302
916.708	3367
916.82	3386
916.932	3397
917.044	3321
917.156	3351
917.268	3256
917.38	3321
917.491	3287
917.603	3386
917.715	3454
917.826	3488
917.938	3412
918.049	3336
918.161	3492
918.272	3614
918.384	3641
918.495	3549
918.606	3355
918.717	3302
918.828	3393
918.939	3397
919.05	3336
919.161	3393
919.272	3169
919.383	3272
919.494	3542
919.604	3740
919.715	3485
919.826	3424
919.936	3492
920.047	3591
920.157	3587
920.267	3816
920.378	3656
920.488	3572
920.598	3781
920.708	3998
920.818	3873
920.928	3861
921.038	4101
921.148	4040
921.258	3736
921.368	3637
921.477	3568
921.587	3591
921.697	3515
921.806	3671
921.916	3519
922.025	3374
922.134	3370
922.244	3336
922.353	3466
922.462	3313
922.571	3233
922.68	3116
922.789	3131
922.898	3161
923.007	3123
923.116	3233
923.224	3199
923.333	3211
923.442	3123
923.55	3131
923.659	3161
923.767	3249
923.876	3146
923.984	3253
924.092	3108
924.201	3249
924.309	3272
924.417	3245
924.525	3199
924.633	3237
924.741	4048
924.849	3074
924.956	3317
925.064	3085
925.172	3085
925.279	3123
925.387	3218
925.494	3226
925.602	3359
925.709	3363
925.816	3195
925.924	3313
926.031	3416
926.138	3359
926.245	3393
926.352	3306
926.459	3439
926.566	3504
926.673	3325
926.779	3260
926.886	3260
926.993	3214
927.099	3195
927.206	3131
927.312	3150
927.419	3249
927.525	3214
927.631	3298
927.737	3127
927.843	3100
927.95	3039
928.056	3199
928.162	3192
928.267	3260
928.373	3800
928.479	3336
928.585	3062
928.69	3237
928.796	3279
928.901	3233
929.007	3097
929.112	3245
929.218	3180
929.323	3108
929.428	3184
929.533	3317
929.638	3146
929.743	3214
929.848	3294
929.953	3218
930.058	3169
930.163	3032
930.267	3097
930.372	3226
930.477	3047
930.581	3329
930.685	3199
930.79	3089
930.894	3131
930.998	3146
931.103	3306
931.207	3005
931.311	2975
931.415	2979
931.519	2807
931.623	2868
