Data from test_V78500241_1146.txt Node
Date: Fri Mar 25 16:23:08 CST 2022
User: usil
Spectrometer: V785-0024
Trigger mode: 0
Integration Time (sec): 4.000000E-1
Scans to average: 1
Nonlinearity correction enabled: false
Boxcar width: 0
Storing dark spectrum: false
XAxis mode: Wavelengths
Number of Pixels in Spectrum: 1024
>>>>>Begin Spectral Data<<<<<
801.071	2925
801.214	2971
801.356	2895
801.499	2914
801.641	2857
801.783	2925
801.926	3043
802.068	2994
802.211	3009
802.353	3024
802.496	2986
802.638	3017
802.78	3066
802.923	3055
803.065	3024
803.208	2880
803.35	2937
803.492	2941
803.635	2929
803.777	2746
803.919	2868
804.061	3176
804.204	2956
804.346	2864
804.488	2830
804.63	2952
804.773	2849
804.915	2937
805.057	3085
805.199	2948
805.341	2952
805.483	3051
805.626	2986
805.768	2967
805.91	3089
806.052	3116
806.194	3013
806.336	3226
806.478	3013
806.62	2910
806.762	2960
806.904	3058
807.046	3184
807.188	2975
807.33	2929
807.472	2956
807.614	2933
807.756	2979
807.898	2899
808.04	2887
808.182	2963
808.324	2929
808.465	2918
808.607	2880
808.749	2777
808.891	2842
809.033	2990
809.174	2975
809.316	2872
809.458	2880
809.6	2796
809.741	2743
809.883	2766
810.025	2880
810.166	2876
810.308	2830
810.45	2857
810.591	2773
810.733	2766
810.875	2807
811.016	2811
811.158	2735
811.299	2815
811.441	2937
811.582	2933
811.724	2830
811.865	2807
812.007	2922
812.148	2918
812.29	2830
812.431	2914
812.573	2933
812.714	2982
812.855	3009
812.997	3097
813.138	3108
813.279	3024
813.421	2994
813.562	2956
813.703	2853
813.845	2876
813.986	2777
814.127	2716
814.268	2838
814.41	2807
814.551	2830
814.692	2868
814.833	2826
814.974	2891
815.115	2952
815.256	2834
815.397	2815
815.539	2864
815.68	2758
815.821	2811
815.962	2914
816.103	2895
816.244	2853
816.385	2857
816.526	2941
816.666	2902
816.807	2731
816.948	2876
817.089	2899
817.23	2853
817.371	2781
817.512	2800
817.653	2804
817.793	2826
817.934	2845
818.075	2967
818.216	2979
818.356	3039
818.497	2891
818.638	2800
818.778	2792
818.919	2758
819.06	2750
819.2	2868
819.341	2796
819.481	2838
819.622	2922
819.762	3104
819.903	3070
820.043	2906
820.184	2891
820.324	2910
820.465	3032
820.605	3032
820.746	3020
820.886	2941
821.026	3112
821.167	3176
821.307	3279
821.447	3253
821.588	3256
821.728	3199
821.868	3195
822.008	3104
822.149	3241
822.289	3256
822.429	3146
822.569	3108
822.709	3211
822.849	3020
822.99	3100
823.13	3176
823.27	3245
823.41	3119
823.55	3157
823.69	3203
823.83	3218
823.97	3135
824.11	3036
824.25	3024
824.389	3112
824.529	3100
824.669	3123
824.809	3241
824.949	3317
825.089	3272
825.228	3241
825.368	2990
825.508	2979
825.648	3024
825.787	3058
825.927	3051
826.067	3005
826.206	2990
826.346	3085
826.485	3085
826.625	3138
826.765	3306
826.904	3245
827.044	3028
827.183	2986
827.323	2899
827.462	3055
827.601	2979
827.741	2994
827.88	3001
828.02	2899
828.159	2990
828.298	3062
828.437	3138
828.577	3100
828.716	3294
828.855	3138
828.994	2982
829.134	2895
829.273	2960
829.412	2914
829.551	2899
829.69	2941
829.829	3005
829.968	3165
830.107	3036
830.246	3093
830.385	2944
830.524	2941
830.663	2834
830.802	2766
830.941	2659
831.08	2682
831.219	2792
831.357	2777
831.496	2971
831.635	2739
831.774	2693
831.913	2693
832.051	2606
832.19	2606
832.329	2716
832.467	2575
832.606	2499
832.744	2613
832.883	2659
833.022	2625
833.16	2682
833.299	2716
833.437	2708
833.576	2724
833.714	2727
833.852	2773
833.991	2800
834.129	2853
834.267	2815
834.406	2819
834.544	2925
834.682	2914
834.821	2933
834.959	3104
835.097	2922
835.235	3085
835.373	3005
835.511	3066
835.65	2937
835.788	2971
835.926	2853
836.064	2864
836.202	2918
836.34	3142
836.478	3154
836.615	3097
836.753	3165
836.891	3211
837.029	3184
837.167	3127
837.305	3085
837.443	3077
837.58	3017
837.718	3135
837.856	3077
837.993	3108
838.131	3165
838.269	3161
838.406	3108
838.544	3127
838.681	2960
838.819	3005
838.956	2815
839.094	2880
839.231	2948
839.369	3036
839.506	3393
839.643	3233
839.781	3028
839.918	2998
840.055	3074
840.193	3077
840.33	3108
840.467	3104
840.604	3169
840.742	3412
840.879	3070
841.016	3066
841.153	3116
841.29	3370
841.427	3348
841.564	3260
841.701	3325
841.838	3253
841.975	3184
842.112	3245
842.249	3104
842.385	3081
842.522	3310
842.659	3119
842.796	3058
842.933	3123
843.069	3097
843.206	3070
843.343	3188
843.479	3119
843.616	3188
843.752	2933
843.889	2883
844.025	3081
844.162	2922
844.298	3123
844.435	2963
844.571	2918
844.708	3127
844.844	3184
844.98	3268
845.117	3214
845.253	3085
845.389	3032
845.525	3085
845.661	3123
845.798	3055
845.934	3135
846.07	3055
846.206	3222
846.342	3351
846.478	3283
846.614	3127
846.75	3116
846.886	3013
847.022	3253
847.158	3169
847.294	3233
847.429	3256
847.565	3237
847.701	3530
847.837	3070
847.972	3005
848.108	3154
848.244	3135
848.379	3066
848.515	2944
848.65	2956
848.786	3013
848.921	3039
849.057	3161
849.192	3165
849.328	3085
849.463	3138
849.598	3119
849.734	3062
849.869	2990
850.004	2925
850.14	3020
850.275	2910
850.41	2853
850.545	2922
850.68	2982
850.815	2975
850.95	2998
851.085	3230
851.22	3135
851.355	3062
851.49	2994
851.625	3039
851.76	3032
851.895	2941
852.03	2960
852.165	3070
852.299	3119
852.434	3199
852.569	3161
852.703	3188
852.838	3249
852.973	3348
853.107	3340
853.242	3176
853.376	3138
853.511	3001
853.645	3058
853.78	3241
853.914	3119
854.048	3142
854.183	3104
854.317	3169
854.451	3317
854.585	3176
854.72	3116
854.854	3241
854.988	3062
855.122	3150
855.256	3036
855.39	3150
855.524	3268
855.658	3154
855.792	3188
855.926	3203
856.06	3283
856.194	3260
856.327	3203
856.461	3093
856.595	3108
856.729	3085
856.862	3233
856.996	3157
857.13	3264
857.263	3237
857.397	3275
857.53	3131
857.664	3237
857.797	3306
857.931	3313
858.064	3222
858.197	3256
858.331	3135
858.464	3123
858.597	3020
858.731	3195
858.864	3127
858.997	3116
859.13	3184
859.263	3192
859.396	3222
859.529	3100
859.662	3100
859.795	3097
859.928	3154
860.061	3283
860.194	3287
860.327	3127
860.46	3123
860.592	3226
860.725	3222
860.858	3245
860.99	3116
861.123	3047
861.256	3051
861.388	3157
861.521	3770
861.653	3032
861.786	3020
861.918	3017
862.05	3081
862.183	3100
862.315	3142
862.447	3222
862.58	3093
862.712	2967
862.844	2880
862.976	3058
863.108	3005
863.24	3272
863.372	2906
863.504	2998
863.636	2971
863.768	3077
863.9	3017
864.032	2929
864.164	2963
864.296	2982
864.428	3081
864.559	3131
864.691	3077
864.823	3085
864.954	3032
865.086	3081
865.217	3009
865.349	2941
865.48	3009
865.612	3070
865.743	3184
865.875	2960
866.006	2933
866.137	3013
866.269	2967
866.4	2948
866.531	2944
866.662	2899
866.793	2902
866.924	2925
867.055	2998
867.186	2929
867.317	2887
867.448	2876
867.579	2826
867.71	2864
867.841	2853
867.972	2937
868.103	2933
868.233	2895
868.364	2887
868.495	2933
868.625	3104
868.756	3150
868.886	2994
869.017	3039
869.147	3207
869.278	3195
869.408	3062
869.539	3047
869.669	3112
869.799	3020
869.929	3157
870.06	3093
870.19	3313
870.32	3294
870.45	3329
870.58	3401
870.71	3481
870.84	3409
870.97	3302
871.1	3272
871.23	3500
871.36	3496
871.489	3382
871.619	3443
871.749	3458
871.879	3481
872.008	3534
872.138	3382
872.267	3279
872.397	3142
872.526	3119
872.656	3024
872.785	3100
872.915	3233
873.044	3275
873.173	3222
873.303	3272
873.432	3268
873.561	3226
873.69	3184
873.819	3192
873.948	3180
874.077	3131
874.206	3039
874.335	3074
874.464	3207
874.593	3325
874.722	3283
874.851	3367
874.979	3370
875.108	3359
875.237	3237
875.365	3165
875.494	3192
875.623	3268
875.751	3077
875.88	3116
876.008	3233
876.136	3237
876.265	3370
876.393	3530
876.521	3428
876.65	3412
876.778	3332
876.906	3260
877.034	3230
877.162	3233
877.29	3192
877.418	3268
877.546	3241
877.674	3245
877.802	3253
877.93	3226
878.058	3199
878.185	3112
878.313	3199
878.441	3226
878.568	3077
878.696	3161
878.824	3233
878.951	3325
879.079	3469
879.206	3644
879.333	3477
879.461	3344
879.588	3374
879.715	3477
879.842	3587
879.97	3332
880.097	3173
880.224	3135
880.351	3192
880.478	3203
880.605	3222
880.732	3214
880.859	3496
880.986	3313
881.112	3336
881.239	3230
881.366	3085
881.493	3036
881.619	3005
881.746	3112
881.872	3097
881.999	3108
882.125	3119
882.252	3249
882.378	3264
882.505	3424
882.631	3268
882.757	3150
882.883	3230
883.01	3230
883.136	3184
883.262	3112
883.388	3108
883.514	3298
883.64	3355
883.766	3283
883.892	3161
884.018	3287
884.143	3420
884.269	3500
884.395	3230
884.52	3154
884.646	3180
884.772	3146
884.897	3070
885.023	3203
885.148	3329
885.274	3447
885.399	3382
885.524	3302
885.65	3253
885.775	3313
885.9	3291
886.025	3424
886.15	3374
886.275	3287
886.4	3256
886.525	3317
886.65	3321
886.775	3287
886.9	3507
887.025	3625
887.149	3405
887.274	3283
887.399	3199
887.523	3214
887.648	3180
887.773	3222
887.897	3401
888.021	3416
888.146	3321
888.27	3462
888.395	3545
888.519	3447
888.643	3488
888.767	3458
888.891	3329
889.015	3226
889.139	3291
889.263	3310
889.387	3405
889.511	3492
889.635	3443
889.759	3317
889.883	3279
890.006	3367
890.13	3488
890.254	3302
890.377	3351
890.501	3226
890.624	3195
890.748	3310
890.871	3150
890.995	3093
891.118	3085
891.241	3222
891.364	3199
891.488	3329
891.611	3184
891.734	3226
891.857	3272
891.98	3249
892.103	3351
892.226	3260
892.349	3245
892.471	3131
892.594	3237
892.717	3268
892.839	3245
892.962	3348
893.085	3367
893.207	3313
893.33	3127
893.452	3176
893.575	3386
893.697	3241
893.819	3488
893.941	3458
894.064	3458
894.186	3298
894.308	3264
894.43	3473
894.552	3561
894.674	3469
894.796	3237
894.918	3287
895.04	3268
895.161	3420
895.283	3416
895.405	3325
895.526	3370
895.648	3389
895.769	3435
895.891	3462
896.012	3523
896.134	3466
896.255	3481
896.376	3409
896.498	3336
896.619	3435
896.74	3374
896.861	3447
896.982	3679
897.103	3831
897.224	3606
897.345	3530
897.466	3439
897.587	3492
897.708	3637
897.828	3591
897.949	3367
898.07	3329
898.19	3412
898.311	3584
898.431	3443
898.552	3507
898.672	3568
898.792	3587
898.913	3557
899.033	3401
899.153	3340
899.273	3226
899.393	3283
899.513	3310
899.633	3325
899.753	3321
899.873	3302
899.993	3367
900.113	3348
900.232	3420
900.352	3386
900.472	3310
900.591	3169
900.711	3325
900.83	3256
900.95	3409
901.069	3477
901.189	3336
901.308	3188
901.427	3112
901.546	3203
901.665	3237
901.784	3336
901.904	3195
902.023	3146
902.141	3024
902.26	2975
902.379	3169
902.498	3070
902.617	3058
902.735	3184
902.854	3241
902.973	3211
903.091	3036
903.21	3089
903.328	3142
903.446	3112
903.565	3108
903.683	3214
903.801	3119
903.919	3241
904.038	3264
904.156	3176
904.274	3260
904.392	3226
904.51	3294
904.627	3302
904.745	3450
904.863	3530
904.981	3241
905.098	3161
905.216	3241
905.334	3298
905.451	3283
905.569	3329
905.686	3431
905.803	3462
905.921	3336
906.038	3405
906.155	3351
906.272	3302
906.389	3317
906.506	3207
906.623	3272
906.74	3291
906.857	3188
906.974	3279
907.091	3443
907.208	3564
907.324	3492
907.441	3367
907.557	3237
907.674	3294
907.79	3230
907.907	3268
908.023	3355
908.139	3389
908.256	3298
908.372	3348
908.488	3393
908.604	3237
908.72	3241
908.836	3264
908.952	3272
909.068	3313
909.184	3485
909.3	3393
909.415	3466
909.531	3469
909.647	3275
909.762	3313
909.878	3272
909.993	3340
910.108	3344
910.224	3336
910.339	3435
910.454	3283
910.57	3298
910.685	3230
910.8	3603
910.915	3568
911.03	3386
911.145	3237
911.259	3279
911.374	3306
911.489	3245
911.604	3195
911.718	3100
911.833	3131
911.947	3036
912.062	2998
912.176	3192
912.291	3184
912.405	3195
912.519	3454
912.633	3450
912.748	3317
912.862	3249
912.976	3176
913.09	3032
913.204	3146
913.318	3195
913.431	3321
913.545	3325
913.659	3344
913.772	3332
913.886	3207
914	3233
914.113	3359
914.226	3443
914.34	3374
914.453	3188
914.566	3382
914.68	3287
914.793	3287
914.906	3123
915.019	3108
915.132	3028
915.245	3188
915.358	3169
915.47	3245
915.583	3256
915.696	3294
915.809	3412
915.921	3428
916.034	3260
916.146	3237
916.259	3233
916.371	3367
916.483	3370
916.595	3279
916.708	3344
916.82	3370
916.932	3321
917.044	3382
917.156	3348
917.268	3256
917.38	3321
917.491	3287
917.603	3386
917.715	3462
917.826	3447
917.938	3401
918.049	3260
918.161	3416
918.272	3580
918.384	3538
918.495	3443
918.606	3348
918.717	3329
918.828	3374
918.939	3393
919.05	3332
919.161	3370
919.272	3192
919.383	3268
919.494	3469
919.604	3663
919.715	3473
919.826	3431
919.936	3428
920.047	3584
920.157	3500
920.267	3781
920.378	3610
920.488	3564
920.598	3774
920.708	3953
920.818	3835
920.928	3835
921.038	3968
921.148	4017
921.258	3732
921.368	3603
921.477	3561
921.587	3515
921.697	3443
921.806	3618
921.916	3545
922.025	3340
922.134	3340
922.244	3340
922.353	3439
922.462	3268
922.571	3222
922.68	3047
922.789	3058
922.898	3127
923.007	3074
923.116	3226
923.224	3165
923.333	3157
923.442	3100
923.55	3055
923.659	3135
923.767	3218
923.876	3123
923.984	3211
924.092	3081
924.201	3199
924.309	3199
924.417	3222
924.525	3176
924.633	3188
924.741	4036
924.849	3013
924.956	3279
925.064	3066
925.172	3043
925.279	3074
925.387	3249
925.494	3203
925.602	3329
925.709	3332
925.816	3199
925.924	3272
926.031	3405
926.138	3302
926.245	3382
926.352	3245
926.459	3435
926.566	3443
926.673	3294
926.779	3256
926.886	3222
926.993	3142
927.099	3116
927.206	3097
927.312	3108
927.419	3214
927.525	3207
927.631	3241
927.737	3097
927.843	3123
927.95	3028
928.056	3131
928.162	3157
928.267	3230
928.373	3869
928.479	3294
928.585	3077
928.69	3226
928.796	3272
928.901	3173
929.007	3070
929.112	3184
929.218	3150
929.323	3150
929.428	3116
929.533	3332
929.638	3112
929.743	3161
929.848	3222
929.953	3226
930.058	3161
930.163	3009
930.267	3055
930.372	3214
930.477	3020
930.581	3306
930.685	3188
930.79	3051
930.894	3085
930.998	3135
931.103	3291
931.207	2960
931.311	2929
931.415	2902
931.519	2746
931.623	2823
