Data from test_V78500241_602.txt Node
Date: Fri Mar 25 16:19:22 CST 2022
User: usil
Spectrometer: V785-0024
Trigger mode: 0
Integration Time (sec): 4.000000E-1
Scans to average: 1
Nonlinearity correction enabled: false
Boxcar width: 0
Storing dark spectrum: false
XAxis mode: Wavelengths
Number of Pixels in Spectrum: 1024
>>>>>Begin Spectral Data<<<<<
801.071	2918
801.214	2952
801.356	2872
801.499	2864
801.641	2868
801.783	2887
801.926	3028
802.068	2956
802.211	2990
802.353	3024
802.496	2933
802.638	2990
802.78	3009
802.923	3077
803.065	2979
803.208	2887
803.35	2906
803.492	2956
803.635	2925
803.777	2766
803.919	2872
804.061	3169
804.204	2994
804.346	2902
804.488	2853
804.63	3005
804.773	2864
804.915	2933
805.057	3081
805.199	2937
805.341	2979
805.483	2967
805.626	2975
805.768	2941
805.91	3081
806.052	3085
806.194	3020
806.336	3230
806.478	3058
806.62	2952
806.762	2971
806.904	3043
807.046	3135
807.188	3020
807.33	2937
807.472	2994
807.614	2914
807.756	2960
807.898	2948
808.04	2857
808.182	2975
808.324	2960
808.465	2918
808.607	2842
808.749	2750
808.891	2815
809.033	2960
809.174	2994
809.316	2891
809.458	2895
809.6	2766
809.741	2731
809.883	2804
810.025	2838
810.166	2845
810.308	2864
810.45	2857
810.591	2792
810.733	2773
810.875	2842
811.016	2762
811.158	2762
811.299	2785
811.441	2941
811.582	2861
811.724	2834
811.865	2807
812.007	2887
812.148	2891
812.29	2845
812.431	2887
812.573	2902
812.714	2941
812.855	3043
812.997	3024
813.138	3142
813.279	3024
813.421	2990
813.562	2922
813.703	2883
813.845	2876
813.986	2777
814.127	2716
814.268	2853
814.41	2857
814.551	2815
814.692	2887
814.833	2792
814.974	2868
815.115	2929
815.256	2864
815.397	2792
815.539	2883
815.68	2758
815.821	2800
815.962	2918
816.103	2952
816.244	2853
816.385	2883
816.526	2944
816.666	2933
816.807	2746
816.948	2895
817.089	2853
817.23	2819
817.371	2758
817.512	2823
817.653	2861
817.793	2826
817.934	2872
818.075	2937
818.216	2971
818.356	3017
818.497	2895
818.638	2792
818.778	2842
818.919	2781
819.06	2769
819.2	2861
819.341	2792
819.481	2830
819.622	2910
819.762	3112
819.903	3058
820.043	2887
820.184	2849
820.324	2880
820.465	3009
820.605	3013
820.746	3036
820.886	2937
821.026	3077
821.167	3146
821.307	3233
821.447	3264
821.588	3226
821.728	3207
821.868	3230
822.008	3055
822.149	3211
822.289	3207
822.429	3108
822.569	3058
822.709	3142
822.849	3013
822.99	3028
823.13	3180
823.27	3199
823.41	3085
823.55	3131
823.69	3142
823.83	3184
823.97	3093
824.11	2986
824.25	2956
824.389	3081
824.529	3085
824.669	3036
824.809	3188
824.949	3237
825.089	3188
825.228	3211
825.368	2998
825.508	2922
825.648	2986
825.787	2979
825.927	3013
826.067	2960
826.206	2960
826.346	3039
826.485	3055
826.625	3131
826.765	3226
826.904	3195
827.044	3024
827.183	2982
827.323	2864
827.462	2960
827.601	2880
827.741	2876
827.88	2941
828.02	2849
828.159	2971
828.298	3020
828.437	3093
828.577	3017
828.716	3199
828.855	3097
828.994	2933
829.134	2891
829.273	2929
829.412	2880
829.551	2838
829.69	2910
829.829	2994
829.968	3123
830.107	3020
830.246	3032
830.385	2933
830.524	2895
830.663	2830
830.802	2758
830.941	2625
831.08	2640
831.219	2758
831.357	2739
831.496	2952
831.635	2746
831.774	2659
831.913	2667
832.051	2537
832.19	2564
832.329	2686
832.467	2545
832.606	2469
832.744	2545
832.883	2571
833.022	2564
833.16	2640
833.299	2651
833.437	2705
833.576	2697
833.714	2705
833.852	2739
833.991	2762
834.129	2826
834.267	2819
834.406	2769
834.544	2849
834.682	2876
834.821	2861
834.959	3039
835.097	2899
835.235	3077
835.373	3013
835.511	3032
835.65	2963
835.788	2971
835.926	2826
836.064	2781
836.202	2826
836.34	3104
836.478	3127
836.615	3047
836.753	3146
836.891	3188
837.029	3138
837.167	3074
837.305	3013
837.443	3074
837.58	2963
837.718	3142
837.856	3039
837.993	3001
838.131	3123
838.269	3097
838.406	3055
838.544	3081
838.681	2899
838.819	2925
838.956	2830
839.094	2842
839.231	2902
839.369	3009
839.506	3374
839.643	3211
839.781	2982
839.918	2929
840.055	3039
840.193	3036
840.33	3028
840.467	3100
840.604	3146
840.742	3412
840.879	3058
841.016	3043
841.153	3119
841.29	3325
841.427	3298
841.564	3253
841.701	3306
841.838	3192
841.975	3131
842.112	3184
842.249	3074
842.385	3066
842.522	3264
842.659	3100
842.796	3058
842.933	3108
843.069	3070
843.206	3001
843.343	3180
843.479	3077
843.616	3127
843.752	2845
843.889	2845
844.025	3085
844.162	2853
844.298	3097
844.435	2952
844.571	2941
844.708	3104
844.844	3192
844.98	3245
845.117	3176
845.253	3039
845.389	3009
845.525	3135
845.661	3085
845.798	3036
845.934	3123
846.07	3058
846.206	3249
846.342	3279
846.478	3237
846.614	3085
846.75	3051
846.886	3005
847.022	3214
847.158	3119
847.294	3211
847.429	3237
847.565	3207
847.701	3481
847.837	3005
847.972	3028
848.108	3188
848.244	3192
848.379	2986
848.515	2925
848.65	2941
848.786	2971
848.921	2982
849.057	3093
849.192	3157
849.328	3028
849.463	3116
849.598	3070
849.734	3055
849.869	2994
850.004	2910
850.14	2971
850.275	2895
850.41	2819
850.545	2899
850.68	2948
850.815	2948
850.95	2963
851.085	3195
851.22	3089
851.355	3051
851.49	3001
851.625	3024
851.76	3043
851.895	2918
852.03	2918
852.165	3024
852.299	3081
852.434	3192
852.569	3157
852.703	3226
852.838	3268
852.973	3325
853.107	3340
853.242	3146
853.376	3058
853.511	2982
853.645	3013
853.78	3214
853.914	3058
854.048	3097
854.183	3077
854.317	3100
854.451	3294
854.585	3119
854.72	3074
854.854	3169
854.988	3020
855.122	3058
855.256	2956
855.39	3089
855.524	3222
855.658	3169
855.792	3123
855.926	3195
856.06	3222
856.194	3283
856.327	3119
856.461	3081
856.595	3108
856.729	3062
856.862	3214
856.996	3150
857.13	3184
857.263	3195
857.397	3268
857.53	3112
857.664	3176
857.797	3241
857.931	3241
858.064	3119
858.197	3199
858.331	3150
858.464	3074
858.597	3020
858.731	3097
858.864	3104
858.997	3074
859.13	3146
859.263	3192
859.396	3207
859.529	3081
859.662	3043
859.795	3074
859.928	3142
860.061	3256
860.194	3260
860.327	3150
860.46	3070
860.592	3218
860.725	3218
860.858	3230
860.99	3108
861.123	3013
861.256	3005
861.388	3146
861.521	3686
861.653	2990
861.786	2990
861.918	3013
862.05	3055
862.183	3097
862.315	3108
862.447	3192
862.58	3081
862.712	2952
862.844	2819
862.976	3009
863.108	2933
863.24	3412
863.372	2853
863.504	2918
863.636	2929
863.768	3047
863.9	2971
864.032	2891
864.164	2922
864.296	2994
864.428	3081
864.559	3112
864.691	3055
864.823	3058
864.954	3020
865.086	3047
865.217	2986
865.349	2925
865.48	2986
865.612	3024
865.743	3138
865.875	2979
866.006	2944
866.137	2937
866.269	2944
866.4	2944
866.531	2899
866.662	2895
866.793	2887
866.924	2891
867.055	2941
867.186	2914
867.317	2906
867.448	2861
867.579	2838
867.71	2861
867.841	2777
867.972	2853
868.103	2910
868.233	2925
868.364	2880
868.495	2902
868.625	3077
868.756	3108
868.886	2986
869.017	3028
869.147	3173
869.278	3173
869.408	3017
869.539	2998
869.669	3081
869.799	3009
869.929	3119
870.06	3104
870.19	3287
870.32	3264
870.45	3283
870.58	3351
870.71	3466
870.84	3450
870.97	3275
871.1	3222
871.23	3450
871.36	3450
871.489	3344
871.619	3409
871.749	3370
871.879	3435
872.008	3481
872.138	3363
872.267	3268
872.397	3108
872.526	3112
872.656	3001
872.785	3085
872.915	3237
873.044	3321
873.173	3241
873.303	3222
873.432	3241
873.561	3203
873.69	3157
873.819	3184
873.948	3214
874.077	3070
874.206	3055
874.335	3100
874.464	3230
874.593	3351
874.722	3230
874.851	3370
874.979	3321
875.108	3302
875.237	3222
875.365	3135
875.494	3169
875.623	3249
875.751	3066
875.88	3097
876.008	3195
876.136	3256
876.265	3370
876.393	3477
876.521	3420
876.65	3412
876.778	3344
876.906	3245
877.034	3180
877.162	3241
877.29	3199
877.418	3245
877.546	3260
877.674	3237
877.802	3233
877.93	3230
878.058	3184
878.185	3104
878.313	3184
878.441	3230
878.568	3104
878.696	3180
878.824	3230
878.951	3287
879.079	3443
879.206	3652
879.333	3424
879.461	3332
879.588	3382
879.715	3481
879.842	3584
879.97	3382
880.097	3138
880.224	3154
880.351	3154
880.478	3249
880.605	3241
880.732	3173
880.859	3492
880.986	3275
881.112	3317
881.239	3184
881.366	3097
881.493	3047
881.619	2998
881.746	3081
881.872	3058
881.999	3062
882.125	3131
882.252	3237
882.378	3245
882.505	3420
882.631	3313
882.757	3146
882.883	3154
883.01	3214
883.136	3093
883.262	3097
883.388	3116
883.514	3336
883.64	3351
883.766	3306
883.892	3157
884.018	3211
884.143	3447
884.269	3511
884.395	3173
884.52	3127
884.646	3173
884.772	3127
884.897	3085
885.023	3222
885.148	3332
885.274	3431
885.399	3374
885.524	3279
885.65	3233
885.775	3310
885.9	3294
886.025	3401
886.15	3344
886.275	3294
886.4	3253
886.525	3272
886.65	3264
886.775	3268
886.9	3431
887.025	3633
887.149	3412
887.274	3249
887.399	3192
887.523	3184
887.648	3165
887.773	3176
887.897	3351
888.021	3401
888.146	3279
888.27	3420
888.395	3507
888.519	3424
888.643	3424
888.767	3447
888.891	3306
889.015	3253
889.139	3310
889.263	3199
889.387	3409
889.511	3511
889.635	3450
889.759	3275
889.883	3317
890.006	3340
890.13	3488
890.254	3272
890.377	3351
890.501	3203
890.624	3176
890.748	3264
890.871	3173
890.995	3055
891.118	3070
891.241	3211
891.364	3222
891.488	3291
891.611	3138
891.734	3211
891.857	3256
891.98	3233
892.103	3336
892.226	3279
892.349	3214
892.471	3085
892.594	3302
892.717	3260
892.839	3256
892.962	3298
893.085	3370
893.207	3325
893.33	3150
893.452	3218
893.575	3363
893.697	3275
893.819	3439
893.941	3538
894.064	3454
894.186	3272
894.308	3230
894.43	3382
894.552	3515
894.674	3481
894.796	3275
894.918	3325
895.04	3294
895.161	3431
895.283	3374
895.405	3264
895.526	3386
895.648	3439
895.769	3416
895.891	3435
896.012	3481
896.134	3469
896.255	3439
896.376	3386
896.498	3370
896.619	3447
896.74	3405
896.861	3397
896.982	3637
897.103	3808
897.224	3610
897.345	3496
897.466	3409
897.587	3511
897.708	3633
897.828	3526
897.949	3401
898.07	3340
898.19	3409
898.311	3557
898.431	3450
898.552	3553
898.672	3591
898.792	3568
898.913	3485
899.033	3397
899.153	3283
899.273	3233
899.393	3298
899.513	3283
899.633	3317
899.753	3317
899.873	3329
899.993	3378
900.113	3313
900.232	3374
900.352	3374
900.472	3275
900.591	3180
900.711	3302
900.83	3211
900.95	3393
901.069	3477
901.189	3317
901.308	3207
901.427	3127
901.546	3188
901.665	3245
901.784	3321
901.904	3165
902.023	3165
902.141	3009
902.26	2986
902.379	3150
902.498	3066
902.617	3104
902.735	3169
902.854	3230
902.973	3173
903.091	3024
903.21	3028
903.328	3127
903.446	3089
903.565	3100
903.683	3207
903.801	3127
903.919	3211
904.038	3253
904.156	3138
904.274	3294
904.392	3260
904.51	3291
904.627	3340
904.745	3435
904.863	3500
904.981	3249
905.098	3146
905.216	3226
905.334	3306
905.451	3260
905.569	3275
905.686	3416
905.803	3435
905.921	3283
906.038	3397
906.155	3321
906.272	3287
906.389	3310
906.506	3188
906.623	3260
906.74	3237
906.857	3180
906.974	3199
907.091	3431
907.208	3557
907.324	3462
907.441	3374
907.557	3211
907.674	3237
907.79	3241
907.907	3294
908.023	3351
908.139	3374
908.256	3306
908.372	3336
908.488	3321
908.604	3275
908.72	3253
908.836	3256
908.952	3264
909.068	3332
909.184	3507
909.3	3363
909.415	3466
909.531	3458
909.647	3264
909.762	3264
909.878	3241
909.993	3344
910.108	3332
910.224	3340
910.339	3363
910.454	3348
910.57	3291
910.685	3230
910.8	3572
910.915	3492
911.03	3378
911.145	3245
911.259	3241
911.374	3310
911.489	3207
911.604	3222
911.718	3085
911.833	3157
911.947	3017
912.062	2979
912.176	3150
912.291	3173
912.405	3199
912.519	3439
912.633	3428
912.748	3363
912.862	3249
912.976	3161
913.09	3039
913.204	3150
913.318	3214
913.431	3336
913.545	3325
913.659	3397
913.772	3336
913.886	3245
914	3195
914.113	3348
914.226	3378
914.34	3336
914.453	3245
914.566	3409
914.68	3264
914.793	3340
914.906	3138
915.019	3119
915.132	3085
915.245	3169
915.358	3233
915.47	3256
915.583	3302
915.696	3325
915.809	3450
915.921	3416
916.034	3279
916.146	3287
916.259	3237
916.371	3424
916.483	3412
916.595	3275
916.708	3367
916.82	3397
916.932	3386
917.044	3397
917.156	3351
917.268	3287
917.38	3294
917.491	3340
917.603	3374
917.715	3481
917.826	3477
917.938	3386
918.049	3313
918.161	3473
918.272	3622
918.384	3622
918.495	3519
918.606	3367
918.717	3283
918.828	3431
918.939	3466
919.05	3355
919.161	3405
919.272	3241
919.383	3332
919.494	3530
919.604	3713
919.715	3500
919.826	3481
919.936	3481
920.047	3599
920.157	3564
920.267	3766
920.378	3625
920.488	3606
920.598	3850
920.708	3983
920.818	3876
920.928	3857
921.038	4048
921.148	3998
921.258	3740
921.368	3633
921.477	3610
921.587	3606
921.697	3443
921.806	3660
921.916	3580
922.025	3386
922.134	3397
922.244	3374
922.353	3485
922.462	3321
922.571	3237
922.68	3188
922.789	3097
922.898	3157
923.007	3157
923.116	3283
923.224	3184
923.333	3214
923.442	3081
923.55	3131
923.659	3230
923.767	3275
923.876	3142
923.984	3272
924.092	3127
924.201	3184
924.309	3245
924.417	3291
924.525	3214
924.633	3260
924.741	4067
924.849	3116
924.956	3253
925.064	3157
925.172	3055
925.279	3131
925.387	3233
925.494	3226
925.602	3378
925.709	3351
925.816	3207
925.924	3325
926.031	3397
926.138	3313
926.245	3405
926.352	3256
926.459	3424
926.566	3515
926.673	3363
926.779	3294
926.886	3306
926.993	3169
927.099	3180
927.206	3131
927.312	3150
927.419	3256
927.525	3195
927.631	3302
927.737	3173
927.843	3146
927.95	3020
928.056	3188
928.162	3207
928.267	3268
928.373	3751
928.479	3355
928.585	3127
928.69	3272
928.796	3260
928.901	3226
929.007	3074
929.112	3237
929.218	3176
929.323	3188
929.428	3169
929.533	3367
929.638	3161
929.743	3203
929.848	3283
929.953	3233
930.058	3211
930.163	3036
930.267	3077
930.372	3230
930.477	3089
930.581	3348
930.685	3184
930.79	3161
930.894	3192
930.998	3119
931.103	3302
931.207	2986
931.311	2998
931.415	3013
931.519	2796
931.623	2853
