Data from test_V78500241_1462.txt Node
Date: Fri Mar 25 16:25:19 CST 2022
User: usil
Spectrometer: V785-0024
Trigger mode: 0
Integration Time (sec): 4.000000E-1
Scans to average: 1
Nonlinearity correction enabled: false
Boxcar width: 0
Storing dark spectrum: false
XAxis mode: Wavelengths
Number of Pixels in Spectrum: 1024
>>>>>Begin Spectral Data<<<<<
801.071	2922
801.214	2929
801.356	2887
801.499	2929
801.641	2902
801.783	2914
801.926	3070
802.068	3009
802.211	2994
802.353	3055
802.496	2979
802.638	3020
802.78	3009
802.923	3066
803.065	3024
803.208	2933
803.35	2975
803.492	2937
803.635	2941
803.777	2773
803.919	2853
804.061	3180
804.204	2922
804.346	2937
804.488	2849
804.63	2982
804.773	2887
804.915	2902
805.057	3116
805.199	2960
805.341	2986
805.483	3024
805.626	2994
805.768	2963
805.91	3074
806.052	3104
806.194	3032
806.336	3245
806.478	3024
806.62	2986
806.762	3001
806.904	3062
807.046	3192
807.188	2975
807.33	2918
807.472	3013
807.614	2948
807.756	2998
807.898	2948
808.04	2910
808.182	2994
808.324	2979
808.465	2906
808.607	2895
808.749	2819
808.891	2849
809.033	3013
809.174	2960
809.316	2925
809.458	2922
809.6	2785
809.741	2781
809.883	2781
810.025	2857
810.166	2849
810.308	2830
810.45	2876
810.591	2781
810.733	2743
810.875	2823
811.016	2785
811.158	2750
811.299	2845
811.441	2944
811.582	2880
811.724	2853
811.865	2819
812.007	2941
812.148	2826
812.29	2872
812.431	2895
812.573	2956
812.714	2963
812.855	3070
812.997	3066
813.138	3108
813.279	3036
813.421	2963
813.562	2994
813.703	2895
813.845	2918
813.986	2792
814.127	2746
814.268	2872
814.41	2887
814.551	2830
814.692	2910
814.833	2834
814.974	2937
815.115	2967
815.256	2853
815.397	2819
815.539	2891
815.68	2788
815.821	2804
815.962	2967
816.103	2952
816.244	2895
816.385	2868
816.526	2967
816.666	2941
816.807	2762
816.948	2910
817.089	2910
817.23	2864
817.371	2796
817.512	2796
817.653	2853
817.793	2845
817.934	2845
818.075	2982
818.216	3005
818.356	3051
818.497	2883
818.638	2792
818.778	2849
818.919	2785
819.06	2769
819.2	2922
819.341	2804
819.481	2823
819.622	2944
819.762	3085
819.903	3039
820.043	2956
820.184	2929
820.324	2910
820.465	3009
820.605	3017
820.746	3013
820.886	2963
821.026	3097
821.167	3173
821.307	3283
821.447	3317
821.588	3283
821.728	3207
821.868	3203
822.008	3062
822.149	3230
822.289	3253
822.429	3116
822.569	3085
822.709	3184
822.849	3024
822.99	3097
823.13	3127
823.27	3199
823.41	3108
823.55	3123
823.69	3150
823.83	3226
823.97	3104
824.11	3009
824.25	2979
824.389	3066
824.529	3157
824.669	3062
824.809	3207
824.949	3268
825.089	3207
825.228	3157
825.368	2998
825.508	2948
825.648	2963
825.787	3036
825.927	3017
826.067	2967
826.206	2967
826.346	3058
826.485	3085
826.625	3123
826.765	3268
826.904	3195
827.044	3001
827.183	2967
827.323	2861
827.462	2994
827.601	2925
827.741	2941
827.88	2967
828.02	2883
828.159	2975
828.298	3013
828.437	3138
828.577	3039
828.716	3275
828.855	3081
828.994	2910
829.134	2868
829.273	2956
829.412	2868
829.551	2845
829.69	2933
829.829	3020
829.968	3138
830.107	3009
830.246	3013
830.385	2956
830.524	2876
830.663	2823
830.802	2773
830.941	2644
831.08	2659
831.219	2777
831.357	2773
831.496	2941
831.635	2724
831.774	2689
831.913	2678
832.051	2552
832.19	2613
832.329	2674
832.467	2552
832.606	2488
832.744	2560
832.883	2556
833.022	2606
833.16	2617
833.299	2693
833.437	2735
833.576	2701
833.714	2773
833.852	2739
833.991	2724
834.129	2857
834.267	2811
834.406	2838
834.544	2883
834.682	2883
834.821	2830
834.959	3051
835.097	2891
835.235	3055
835.373	3047
835.511	3051
835.65	2971
835.788	2948
835.926	2834
836.064	2800
836.202	2853
836.34	3112
836.478	3169
836.615	3047
836.753	3100
836.891	3173
837.029	3203
837.167	3104
837.305	3066
837.443	3032
837.58	2944
837.718	3127
837.856	3077
837.993	3047
838.131	3131
838.269	3112
838.406	3100
838.544	3100
838.681	2944
838.819	2891
838.956	2807
839.094	2853
839.231	2956
839.369	3028
839.506	3378
839.643	3203
839.781	3032
839.918	2979
840.055	3039
840.193	3009
840.33	3062
840.467	3081
840.604	3116
840.742	3412
840.879	3039
841.016	3055
841.153	3108
841.29	3344
841.427	3310
841.564	3226
841.701	3306
841.838	3241
841.975	3203
842.112	3260
842.249	3081
842.385	3024
842.522	3256
842.659	3062
842.796	3081
842.933	3123
843.069	3036
843.206	3051
843.343	3169
843.479	3123
843.616	3165
843.752	2891
843.889	2861
844.025	3039
844.162	2906
844.298	3074
844.435	2967
844.571	2929
844.708	3024
844.844	3207
844.98	3211
845.117	3165
845.253	3043
845.389	3032
845.525	3066
845.661	3112
845.798	3024
845.934	3138
846.07	3081
846.206	3211
846.342	3294
846.478	3218
846.614	3100
846.75	3077
846.886	3020
847.022	3264
847.158	3161
847.294	3222
847.429	3241
847.565	3203
847.701	3500
847.837	3009
847.972	2982
848.108	3157
848.244	3169
848.379	2960
848.515	2944
848.65	2929
848.786	2975
848.921	3062
849.057	3074
849.192	3169
849.328	3108
849.463	3131
849.598	3066
849.734	3013
849.869	2967
850.004	2910
850.14	2975
850.275	2937
850.41	2861
850.545	2849
850.68	2929
850.815	2986
850.95	3001
851.085	3188
851.22	3100
851.355	3043
851.49	2971
851.625	2990
851.76	3020
851.895	2902
852.03	2937
852.165	3020
852.299	3100
852.434	3180
852.569	3146
852.703	3173
852.838	3230
852.973	3348
853.107	3329
853.242	3131
853.376	3074
853.511	2979
853.645	3036
853.78	3226
853.914	3093
854.048	3100
854.183	3089
854.317	3157
854.451	3321
854.585	3108
854.72	3062
854.854	3218
854.988	3066
855.122	3085
855.256	2941
855.39	3138
855.524	3222
855.658	3184
855.792	3161
855.926	3226
856.06	3233
856.194	3275
856.327	3192
856.461	3070
856.595	3055
856.729	3058
856.862	3268
856.996	3176
857.13	3211
857.263	3241
857.397	3272
857.53	3127
857.664	3188
857.797	3260
857.931	3287
858.064	3176
858.197	3199
858.331	3161
858.464	3058
858.597	2960
858.731	3135
858.864	3131
858.997	3116
859.13	3195
859.263	3180
859.396	3180
859.529	3066
859.662	3062
859.795	3043
859.928	3135
860.061	3287
860.194	3279
860.327	3131
860.46	3097
860.592	3241
860.725	3256
860.858	3264
860.99	3058
861.123	3043
861.256	3066
861.388	3169
861.521	3842
861.653	3001
861.786	2967
861.918	3024
862.05	3032
862.183	3131
862.315	3188
862.447	3195
862.58	3093
862.712	2960
862.844	2891
862.976	3013
863.108	2998
863.24	3310
863.372	2891
863.504	2941
863.636	2933
863.768	3024
863.9	2979
864.032	2895
864.164	2944
864.296	2967
864.428	3108
864.559	3085
864.691	3066
864.823	3058
864.954	3024
865.086	3028
865.217	3017
865.349	2948
865.48	2982
865.612	3047
865.743	3173
865.875	2979
866.006	2937
866.137	2960
866.269	2982
866.4	2944
866.531	2925
866.662	2883
866.793	2868
866.924	2918
867.055	2982
867.186	2929
867.317	2861
867.448	2849
867.579	2845
867.71	2876
867.841	2826
867.972	2925
868.103	2880
868.233	2895
868.364	2864
868.495	2906
868.625	3074
868.756	3173
868.886	2925
869.017	3001
869.147	3161
869.278	3169
869.408	3047
869.539	3001
869.669	3062
869.799	3032
869.929	3112
870.06	3104
870.19	3325
870.32	3272
870.45	3264
870.58	3359
870.71	3450
870.84	3458
870.97	3260
871.1	3245
871.23	3439
871.36	3447
871.489	3359
871.619	3412
871.749	3439
871.879	3409
872.008	3469
872.138	3370
872.267	3237
872.397	3142
872.526	3085
872.656	3009
872.785	3085
872.915	3264
873.044	3306
873.173	3192
873.303	3260
873.432	3226
873.561	3268
873.69	3154
873.819	3138
873.948	3207
874.077	3112
874.206	3039
874.335	3066
874.464	3214
874.593	3355
874.722	3214
874.851	3393
874.979	3363
875.108	3287
875.237	3146
875.365	3161
875.494	3146
875.623	3272
875.751	3043
875.88	3127
876.008	3188
876.136	3222
876.265	3389
876.393	3549
876.521	3469
876.65	3382
876.778	3355
876.906	3233
877.034	3180
877.162	3245
877.29	3188
877.418	3241
877.546	3211
877.674	3272
877.802	3192
877.93	3195
878.058	3142
878.185	3112
878.313	3157
878.441	3192
878.568	3058
878.696	3138
878.824	3241
878.951	3272
879.079	3450
879.206	3622
879.333	3420
879.461	3329
879.588	3359
879.715	3466
879.842	3622
879.97	3344
880.097	3161
880.224	3108
880.351	3207
880.478	3218
880.605	3154
880.732	3165
880.859	3511
880.986	3306
881.112	3317
881.239	3226
881.366	3047
881.493	3028
881.619	3058
881.746	3017
881.872	3077
881.999	3097
882.125	3146
882.252	3226
882.378	3321
882.505	3397
882.631	3291
882.757	3176
882.883	3199
883.01	3207
883.136	3138
883.262	3100
883.388	3135
883.514	3351
883.64	3359
883.766	3321
883.892	3169
884.018	3249
884.143	3412
884.269	3557
884.395	3192
884.52	3142
884.646	3161
884.772	3165
884.897	3104
885.023	3211
885.148	3329
885.274	3412
885.399	3386
885.524	3272
885.65	3275
885.775	3279
885.9	3298
886.025	3424
886.15	3348
886.275	3294
886.4	3226
886.525	3268
886.65	3283
886.775	3268
886.9	3473
887.025	3614
887.149	3412
887.274	3256
887.399	3173
887.523	3188
887.648	3161
887.773	3218
887.897	3348
888.021	3363
888.146	3283
888.27	3428
888.395	3488
888.519	3458
888.643	3469
888.767	3458
888.891	3317
889.015	3275
889.139	3264
889.263	3230
889.387	3420
889.511	3504
889.635	3443
889.759	3306
889.883	3279
890.006	3363
890.13	3488
890.254	3256
890.377	3363
890.501	3214
890.624	3169
890.748	3321
890.871	3188
890.995	3123
891.118	3100
891.241	3214
891.364	3253
891.488	3344
891.611	3188
891.734	3233
891.857	3306
891.98	3195
892.103	3325
892.226	3245
892.349	3218
892.471	3097
892.594	3256
892.717	3302
892.839	3264
892.962	3268
893.085	3355
893.207	3317
893.33	3146
893.452	3199
893.575	3329
893.697	3253
893.819	3443
893.941	3523
894.064	3496
894.186	3241
894.308	3264
894.43	3431
894.552	3526
894.674	3488
894.796	3260
894.918	3336
895.04	3287
895.161	3363
895.283	3389
895.405	3329
895.526	3321
895.648	3454
895.769	3412
895.891	3469
896.012	3450
896.134	3447
896.255	3428
896.376	3412
896.498	3329
896.619	3412
896.74	3348
896.861	3412
896.982	3698
897.103	3812
897.224	3610
897.345	3469
897.466	3439
897.587	3519
897.708	3622
897.828	3507
897.949	3420
898.07	3344
898.19	3405
898.311	3545
898.431	3462
898.552	3504
898.672	3576
898.792	3591
898.913	3538
899.033	3409
899.153	3272
899.273	3192
899.393	3275
899.513	3275
899.633	3272
899.753	3313
899.873	3272
899.993	3363
900.113	3329
900.232	3405
900.352	3340
900.472	3294
900.591	3192
900.711	3283
900.83	3260
900.95	3401
901.069	3481
901.189	3340
901.308	3161
901.427	3097
901.546	3169
901.665	3298
901.784	3317
901.904	3207
902.023	3123
902.141	3017
902.26	2979
902.379	3112
902.498	3028
902.617	3028
902.735	3192
902.854	3245
902.973	3199
903.091	3055
903.21	3085
903.328	3135
903.446	3116
903.565	3112
903.683	3195
903.801	3089
903.919	3298
904.038	3264
904.156	3176
904.274	3283
904.392	3222
904.51	3279
904.627	3374
904.745	3405
904.863	3435
904.981	3218
905.098	3154
905.216	3230
905.334	3260
905.451	3275
905.569	3325
905.686	3401
905.803	3420
905.921	3268
906.038	3431
906.155	3382
906.272	3218
906.389	3332
906.506	3211
906.623	3272
906.74	3233
906.857	3184
906.974	3237
907.091	3420
907.208	3557
907.324	3454
907.441	3393
907.557	3199
907.674	3241
907.79	3207
907.907	3272
908.023	3340
908.139	3386
908.256	3325
908.372	3374
908.488	3348
908.604	3218
908.72	3233
908.836	3256
908.952	3306
909.068	3348
909.184	3454
909.3	3389
909.415	3507
909.531	3481
909.647	3260
909.762	3294
909.878	3249
909.993	3359
910.108	3351
910.224	3329
910.339	3397
910.454	3344
910.57	3279
910.685	3249
910.8	3618
910.915	3511
911.03	3424
911.145	3268
911.259	3233
911.374	3313
911.489	3249
911.604	3241
911.718	3116
911.833	3131
911.947	3028
912.062	2982
912.176	3157
912.291	3230
912.405	3192
912.519	3447
912.633	3424
912.748	3313
912.862	3275
912.976	3165
913.09	3062
913.204	3150
913.318	3203
913.431	3321
913.545	3355
913.659	3420
913.772	3332
913.886	3211
914	3188
914.113	3382
914.226	3386
914.34	3351
914.453	3207
914.566	3405
914.68	3306
914.793	3279
914.906	3112
915.019	3112
915.132	3085
915.245	3176
915.358	3226
915.47	3211
915.583	3306
915.696	3287
915.809	3420
915.921	3435
916.034	3245
916.146	3249
916.259	3233
916.371	3397
916.483	3332
916.595	3317
916.708	3344
916.82	3321
916.932	3325
917.044	3321
917.156	3367
917.268	3222
917.38	3306
917.491	3325
917.603	3378
917.715	3469
917.826	3485
917.938	3367
918.049	3279
918.161	3412
918.272	3542
918.384	3534
918.495	3500
918.606	3287
918.717	3298
918.828	3340
918.939	3374
919.05	3310
919.161	3344
919.272	3188
919.383	3253
919.494	3469
919.604	3679
919.715	3500
919.826	3462
919.936	3431
920.047	3606
920.157	3526
920.267	3778
920.378	3606
920.488	3599
920.598	3770
920.708	3953
920.818	3835
920.928	3861
921.038	4051
921.148	3987
921.258	3686
921.368	3610
921.477	3564
921.587	3549
921.697	3443
921.806	3614
921.916	3488
922.025	3332
922.134	3351
922.244	3291
922.353	3393
922.462	3310
922.571	3245
922.68	3097
922.789	3138
922.898	3150
923.007	3097
923.116	3169
923.224	3142
923.333	3150
923.442	3116
923.55	3097
923.659	3131
923.767	3218
923.876	3161
923.984	3222
924.092	3104
924.201	3222
924.309	3226
924.417	3249
924.525	3176
924.633	3222
924.741	4188
924.849	3039
924.956	3264
925.064	3081
925.172	3055
925.279	3097
925.387	3203
925.494	3180
925.602	3359
925.709	3313
925.816	3192
925.924	3268
926.031	3412
926.138	3272
926.245	3332
926.352	3241
926.459	3435
926.566	3454
926.673	3348
926.779	3249
926.886	3203
926.993	3127
927.099	3131
927.206	3119
927.312	3077
927.419	3211
927.525	3207
927.631	3260
927.737	3161
927.843	3135
927.95	3058
928.056	3123
928.162	3207
928.267	3272
928.373	3808
928.479	3317
928.585	3043
928.69	3203
928.796	3317
928.901	3157
929.007	3047
929.112	3207
929.218	3169
929.323	3146
929.428	3104
929.533	3294
929.638	3131
929.743	3180
929.848	3230
929.953	3199
930.058	3154
930.163	2994
930.267	3062
930.372	3173
930.477	3032
930.581	3317
930.685	3150
930.79	3081
930.894	3108
930.998	3112
931.103	3256
931.207	2941
931.311	2933
931.415	2929
931.519	2762
931.623	2823
