Data from test_V78500241_1844.txt Node
Date: Fri Mar 25 16:27:58 CST 2022
User: usil
Spectrometer: V785-0024
Trigger mode: 0
Integration Time (sec): 4.000000E-1
Scans to average: 1
Nonlinearity correction enabled: false
Boxcar width: 0
Storing dark spectrum: false
XAxis mode: Wavelengths
Number of Pixels in Spectrum: 1024
>>>>>Begin Spectral Data<<<<<
801.071	2956
801.214	2971
801.356	2925
801.499	2918
801.641	2914
801.783	2944
801.926	3058
802.068	3013
802.211	3039
802.353	3097
802.496	3005
802.638	3055
802.78	3066
802.923	3085
803.065	3055
803.208	2910
803.35	2941
803.492	2937
803.635	3005
803.777	2811
803.919	2861
804.061	3241
804.204	3001
804.346	2941
804.488	2861
804.63	2986
804.773	2883
804.915	2967
805.057	3131
805.199	2994
805.341	2986
805.483	3104
805.626	3043
805.768	3024
805.91	3112
806.052	3154
806.194	3100
806.336	3283
806.478	3051
806.62	2979
806.762	3009
806.904	3108
807.046	3233
807.188	3024
807.33	2944
807.472	3013
807.614	2944
807.756	3013
807.898	2933
808.04	2922
808.182	3062
808.324	2952
808.465	2910
808.607	2880
808.749	2864
808.891	2861
809.033	3020
809.174	3001
809.316	2906
809.458	2891
809.6	2842
809.741	2826
809.883	2807
810.025	2887
810.166	2895
810.308	2914
810.45	2918
810.591	2823
810.733	2807
810.875	2891
811.016	2811
811.158	2807
811.299	2857
811.441	2922
811.582	2922
811.724	2830
811.865	2876
812.007	2944
812.148	2906
812.29	2899
812.431	2933
812.573	2975
812.714	2986
812.855	3055
812.997	3085
813.138	3184
813.279	3032
813.421	2990
813.562	2971
813.703	2914
813.845	2864
813.986	2830
814.127	2792
814.268	2872
814.41	2853
814.551	2834
814.692	2918
814.833	2845
814.974	2948
815.115	2986
815.256	2864
815.397	2838
815.539	2883
815.68	2785
815.821	2804
815.962	2979
816.103	2960
816.244	2895
816.385	2918
816.526	2982
816.666	2937
816.807	2762
816.948	2902
817.089	2941
817.23	2899
817.371	2811
817.512	2823
817.653	2887
817.793	2849
817.934	2937
818.075	2979
818.216	3024
818.356	3070
818.497	2952
818.638	2845
818.778	2842
818.919	2823
819.06	2807
819.2	2918
819.341	2800
819.481	2845
819.622	2929
819.762	3116
819.903	3058
820.043	2975
820.184	2933
820.324	2937
820.465	3020
820.605	3039
820.746	3028
820.886	2956
821.026	3131
821.167	3157
821.307	3279
821.447	3310
821.588	3241
821.728	3195
821.868	3192
822.008	3108
822.149	3199
822.289	3260
822.429	3108
822.569	3108
822.709	3233
822.849	3058
822.99	3100
823.13	3154
823.27	3222
823.41	3131
823.55	3203
823.69	3173
823.83	3218
823.97	3169
824.11	3032
824.25	2998
824.389	3077
824.529	3157
824.669	3108
824.809	3226
824.949	3268
825.089	3241
825.228	3195
825.368	3001
825.508	2979
825.648	2994
825.787	3028
825.927	3032
826.067	3024
826.206	2998
826.346	3093
826.485	3100
826.625	3116
826.765	3325
826.904	3253
827.044	3036
827.183	2975
827.323	2895
827.462	2998
827.601	2986
827.741	2933
827.88	2975
828.02	2918
828.159	3009
828.298	3070
828.437	3119
828.577	3081
828.716	3272
828.855	3116
828.994	2941
829.134	2922
829.273	2941
829.412	2887
829.551	2944
829.69	2952
829.829	3001
829.968	3116
830.107	3032
830.246	3017
830.385	2902
830.524	2883
830.663	2834
830.802	2758
830.941	2670
831.08	2674
831.219	2769
831.357	2804
831.496	2960
831.635	2735
831.774	2682
831.913	2705
832.051	2590
832.19	2575
832.329	2640
832.467	2575
832.606	2495
832.744	2602
832.883	2610
833.022	2613
833.16	2663
833.299	2712
833.437	2739
833.576	2769
833.714	2716
833.852	2807
833.991	2773
834.129	2838
834.267	2857
834.406	2792
834.544	2906
834.682	2918
834.821	2872
834.959	3104
835.097	2941
835.235	3085
835.373	2998
835.511	3032
835.65	2998
835.788	2933
835.926	2861
836.064	2853
836.202	2857
836.34	3123
836.478	3157
836.615	3066
836.753	3112
836.891	3214
837.029	3188
837.167	3116
837.305	3077
837.443	3074
837.58	2994
837.718	3161
837.856	3104
837.993	3070
838.131	3127
838.269	3108
838.406	3135
838.544	3112
838.681	2933
838.819	2941
838.956	2853
839.094	2872
839.231	2994
839.369	3043
839.506	3401
839.643	3287
839.781	3043
839.918	2963
840.055	3051
840.193	3047
840.33	3085
840.467	3123
840.604	3150
840.742	3439
840.879	3058
841.016	3051
841.153	3154
841.29	3370
841.427	3310
841.564	3264
841.701	3321
841.838	3260
841.975	3195
842.112	3260
842.249	3131
842.385	3085
842.522	3264
842.659	3097
842.796	3089
842.933	3112
843.069	3032
843.206	3051
843.343	3165
843.479	3116
843.616	3188
843.752	2914
843.889	2887
844.025	3127
844.162	2902
844.298	3104
844.435	3001
844.571	2906
844.708	3062
844.844	3218
844.98	3241
845.117	3195
845.253	3085
845.389	3024
845.525	3089
845.661	3119
845.798	3047
845.934	3142
846.07	3100
846.206	3256
846.342	3351
846.478	3233
846.614	3108
846.75	3081
846.886	3039
847.022	3272
847.158	3142
847.294	3203
847.429	3279
847.565	3245
847.701	3492
847.837	3005
847.972	3013
848.108	3173
848.244	3154
848.379	2982
848.515	2963
848.65	2963
848.786	3051
848.921	3020
849.057	3127
849.192	3192
849.328	3104
849.463	3127
849.598	3020
849.734	3066
849.869	2998
850.004	2918
850.14	2971
850.275	2914
850.41	2845
850.545	2880
850.68	2944
850.815	2960
850.95	2963
851.085	3214
851.22	3112
851.355	3051
851.49	3013
851.625	3020
851.76	3017
851.895	2948
852.03	2910
852.165	3051
852.299	3097
852.434	3207
852.569	3169
852.703	3165
852.838	3279
852.973	3359
853.107	3351
853.242	3184
853.376	3135
853.511	2971
853.645	3043
853.78	3222
853.914	3119
854.048	3142
854.183	3077
854.317	3150
854.451	3275
854.585	3169
854.72	3112
854.854	3165
854.988	3047
855.122	3104
855.256	3001
855.39	3157
855.524	3279
855.658	3184
855.792	3165
855.926	3192
856.06	3222
856.194	3264
856.327	3165
856.461	3081
856.595	3070
856.729	3081
856.862	3207
856.996	3173
857.13	3211
857.263	3226
857.397	3249
857.53	3138
857.664	3188
857.797	3214
857.931	3294
858.064	3203
858.197	3245
858.331	3146
858.464	3097
858.597	2998
858.731	3135
858.864	3146
858.997	3116
859.13	3195
859.263	3127
859.396	3192
859.529	3100
859.662	3093
859.795	3070
859.928	3138
860.061	3302
860.194	3302
860.327	3154
860.46	3093
860.592	3218
860.725	3241
860.858	3264
860.99	3108
861.123	3055
861.256	3097
861.388	3123
861.521	3835
861.653	3020
861.786	3013
861.918	3005
862.05	3097
862.183	3116
862.315	3165
862.447	3230
862.58	3077
862.712	2971
862.844	2853
862.976	3009
863.108	3055
863.24	3454
863.372	2880
863.504	2967
863.636	2944
863.768	3043
863.9	3051
864.032	2922
864.164	2979
864.296	3017
864.428	3112
864.559	3089
864.691	3077
864.823	3097
864.954	3043
865.086	3039
865.217	3013
865.349	2986
865.48	3009
865.612	3013
865.743	3154
865.875	2982
866.006	2933
866.137	2982
866.269	2925
866.4	2979
866.531	2918
866.662	2910
866.793	2899
866.924	2891
867.055	2952
867.186	2922
867.317	2895
867.448	2864
867.579	2823
867.71	2845
867.841	2800
867.972	2918
868.103	2895
868.233	2868
868.364	2853
868.495	2887
868.625	3119
868.756	3195
868.886	2963
869.017	3039
869.147	3165
869.278	3195
869.408	3058
869.539	3001
869.669	3142
869.799	3074
869.929	3199
870.06	3104
870.19	3329
870.32	3302
870.45	3294
870.58	3359
870.71	3473
870.84	3469
870.97	3294
871.1	3264
871.23	3496
871.36	3496
871.489	3329
871.619	3416
871.749	3439
871.879	3431
872.008	3450
872.138	3351
872.267	3279
872.397	3173
872.526	3104
872.656	2979
872.785	3081
872.915	3253
873.044	3325
873.173	3230
873.303	3291
873.432	3310
873.561	3211
873.69	3188
873.819	3146
873.948	3214
874.077	3131
874.206	3009
874.335	3085
874.464	3192
874.593	3344
874.722	3253
874.851	3397
874.979	3370
875.108	3336
875.237	3211
875.365	3138
875.494	3157
875.623	3226
875.751	3081
875.88	3116
876.008	3184
876.136	3226
876.265	3367
876.393	3511
876.521	3416
876.65	3409
876.778	3336
876.906	3268
877.034	3203
877.162	3253
877.29	3184
877.418	3268
877.546	3245
877.674	3275
877.802	3241
877.93	3214
878.058	3184
878.185	3081
878.313	3188
878.441	3237
878.568	3032
878.696	3199
878.824	3222
878.951	3344
879.079	3466
879.206	3568
879.333	3477
879.461	3321
879.588	3378
879.715	3454
879.842	3606
879.97	3351
880.097	3157
880.224	3161
880.351	3176
880.478	3226
880.605	3195
880.732	3218
880.859	3519
880.986	3264
881.112	3298
881.239	3211
881.366	3119
881.493	3039
881.619	2990
881.746	3066
881.872	3077
881.999	3100
882.125	3146
882.252	3256
882.378	3279
882.505	3412
882.631	3283
882.757	3150
882.883	3203
883.01	3180
883.136	3161
883.262	3085
883.388	3119
883.514	3329
883.64	3355
883.766	3321
883.892	3207
884.018	3249
884.143	3409
884.269	3538
884.395	3176
884.52	3180
884.646	3180
884.772	3131
884.897	3142
885.023	3233
885.148	3359
885.274	3435
885.399	3382
885.524	3272
885.65	3245
885.775	3302
885.9	3275
886.025	3405
886.15	3397
886.275	3294
886.4	3256
886.525	3306
886.65	3264
886.775	3253
886.9	3504
887.025	3652
887.149	3401
887.274	3260
887.399	3199
887.523	3188
887.648	3180
887.773	3180
887.897	3389
888.021	3382
888.146	3291
888.27	3428
888.395	3530
888.519	3428
888.643	3424
888.767	3435
888.891	3317
889.015	3230
889.139	3283
889.263	3230
889.387	3458
889.511	3542
889.635	3428
889.759	3294
889.883	3306
890.006	3389
890.13	3526
890.254	3256
890.377	3351
890.501	3157
890.624	3161
890.748	3241
890.871	3199
890.995	3127
891.118	3047
891.241	3188
891.364	3195
891.488	3325
891.611	3203
891.734	3249
891.857	3245
891.98	3222
892.103	3329
892.226	3260
892.349	3199
892.471	3100
892.594	3245
892.717	3260
892.839	3294
892.962	3260
893.085	3370
893.207	3283
893.33	3135
893.452	3199
893.575	3310
893.697	3268
893.819	3450
893.941	3488
894.064	3454
894.186	3241
894.308	3260
894.43	3447
894.552	3538
894.674	3477
894.796	3260
894.918	3313
895.04	3260
895.161	3466
895.283	3378
895.405	3340
895.526	3355
895.648	3405
895.769	3401
895.891	3431
896.012	3488
896.134	3462
896.255	3424
896.376	3359
896.498	3359
896.619	3439
896.74	3370
896.861	3397
896.982	3675
897.103	3835
897.224	3591
897.345	3507
897.466	3401
897.587	3523
897.708	3629
897.828	3515
897.949	3401
898.07	3325
898.19	3382
898.311	3603
898.431	3458
898.552	3466
898.672	3591
898.792	3576
898.913	3523
899.033	3405
899.153	3272
899.273	3222
899.393	3275
899.513	3332
899.633	3310
899.753	3313
899.873	3321
899.993	3370
900.113	3294
900.232	3370
900.352	3344
900.472	3302
900.591	3199
900.711	3332
900.83	3245
900.95	3435
901.069	3477
901.189	3325
901.308	3180
901.427	3150
901.546	3199
901.665	3287
901.784	3332
901.904	3203
902.023	3150
902.141	3020
902.26	3009
902.379	3127
902.498	3070
902.617	3017
902.735	3207
902.854	3180
902.973	3169
903.091	3043
903.21	3089
903.328	3142
903.446	3119
903.565	3097
903.683	3176
903.801	3097
903.919	3272
904.038	3260
904.156	3176
904.274	3306
904.392	3272
904.51	3302
904.627	3279
904.745	3443
904.863	3481
904.981	3272
905.098	3131
905.216	3207
905.334	3302
905.451	3306
905.569	3306
905.686	3439
905.803	3447
905.921	3298
906.038	3405
906.155	3348
906.272	3253
906.389	3313
906.506	3237
906.623	3272
906.74	3260
906.857	3184
906.974	3245
907.091	3458
907.208	3606
907.324	3488
907.441	3340
907.557	3222
907.674	3226
907.79	3214
907.907	3291
908.023	3393
908.139	3340
908.256	3332
908.372	3351
908.488	3359
908.604	3291
908.72	3222
908.836	3272
908.952	3249
909.068	3302
909.184	3488
909.3	3378
909.415	3526
909.531	3473
909.647	3268
909.762	3264
909.878	3230
909.993	3321
910.108	3329
910.224	3302
910.339	3416
910.454	3355
910.57	3260
910.685	3264
910.8	3587
910.915	3557
911.03	3466
911.145	3275
911.259	3268
911.374	3310
911.489	3207
911.604	3237
911.718	3112
911.833	3169
911.947	3043
912.062	2994
912.176	3135
912.291	3184
912.405	3188
912.519	3435
912.633	3477
912.748	3302
912.862	3283
912.976	3165
913.09	3028
913.204	3116
913.318	3180
913.431	3313
913.545	3332
913.659	3386
913.772	3370
913.886	3260
914	3192
914.113	3344
914.226	3435
914.34	3313
914.453	3260
914.566	3439
914.68	3302
914.793	3310
914.906	3154
915.019	3066
915.132	3081
915.245	3146
915.358	3207
915.47	3260
915.583	3226
915.696	3279
915.809	3378
915.921	3401
916.034	3233
916.146	3268
916.259	3203
916.371	3367
916.483	3355
916.595	3253
916.708	3329
916.82	3329
916.932	3359
917.044	3351
917.156	3351
917.268	3256
917.38	3268
917.491	3294
917.603	3378
917.715	3466
917.826	3488
917.938	3367
918.049	3249
918.161	3450
918.272	3591
918.384	3561
918.495	3515
918.606	3325
918.717	3291
918.828	3344
918.939	3393
919.05	3325
919.161	3359
919.272	3180
919.383	3275
919.494	3485
919.604	3682
919.715	3477
919.826	3370
919.936	3500
920.047	3603
920.157	3545
920.267	3720
920.378	3614
920.488	3580
920.598	3728
920.708	3926
920.818	3816
920.928	3819
921.038	3987
921.148	3949
921.258	3644
921.368	3629
921.477	3557
921.587	3534
921.697	3462
921.806	3618
921.916	3538
922.025	3348
922.134	3340
922.244	3298
922.353	3428
922.462	3241
922.571	3214
922.68	3081
922.789	3081
922.898	3142
923.007	3081
923.116	3192
923.224	3165
923.333	3157
923.442	3100
923.55	3058
923.659	3180
923.767	3222
923.876	3112
923.984	3222
924.092	3116
924.201	3218
924.309	3241
924.417	3233
924.525	3154
924.633	3230
924.741	4154
924.849	3100
924.956	3253
925.064	3100
925.172	3058
925.279	3093
925.387	3150
925.494	3214
925.602	3359
925.709	3310
925.816	3207
925.924	3298
926.031	3378
926.138	3302
926.245	3374
926.352	3275
926.459	3401
926.566	3473
926.673	3325
926.779	3195
926.886	3241
926.993	3146
927.099	3116
927.206	3116
927.312	3104
927.419	3233
927.525	3195
927.631	3245
927.737	3173
927.843	3123
927.95	3009
928.056	3165
928.162	3169
928.267	3253
928.373	3778
928.479	3336
928.585	3028
928.69	3230
928.796	3291
928.901	3157
929.007	3039
929.112	3173
929.218	3150
929.323	3142
929.428	3161
929.533	3340
929.638	3119
929.743	3169
929.848	3245
929.953	3249
930.058	3146
930.163	2937
930.267	3009
930.372	3188
930.477	3028
930.581	3321
930.685	3154
930.79	3070
930.894	3127
930.998	3127
931.103	3287
931.207	2986
931.311	2952
931.415	2925
931.519	2773
931.623	2830
