Data from test_V78500241_1086.txt Node
Date: Fri Mar 25 16:22:43 CST 2022
User: usil
Spectrometer: V785-0024
Trigger mode: 0
Integration Time (sec): 4.000000E-1
Scans to average: 1
Nonlinearity correction enabled: false
Boxcar width: 0
Storing dark spectrum: false
XAxis mode: Wavelengths
Number of Pixels in Spectrum: 1024
>>>>>Begin Spectral Data<<<<<
801.071	2929
801.214	2994
801.356	2899
801.499	2937
801.641	2929
801.783	2937
801.926	3104
802.068	2979
802.211	3051
802.353	3070
802.496	2979
802.638	3036
802.78	3077
802.923	3112
803.065	3036
803.208	2933
803.35	3013
803.492	2994
803.635	2982
803.777	2769
803.919	2910
804.061	3226
804.204	2960
804.346	2963
804.488	2815
804.63	3009
804.773	2883
804.915	2948
805.057	3093
805.199	2952
805.341	2979
805.483	3066
805.626	2994
805.768	2986
805.91	3104
806.052	3157
806.194	3028
806.336	3249
806.478	3097
806.62	2990
806.762	2994
806.904	3077
807.046	3165
807.188	2994
807.33	2963
807.472	3020
807.614	2914
807.756	2994
807.898	2929
808.04	2910
808.182	2956
808.324	2967
808.465	2906
808.607	2868
808.749	2823
808.891	2918
809.033	2963
809.174	2994
809.316	2906
809.458	2910
809.6	2785
809.741	2826
809.883	2811
810.025	2872
810.166	2895
810.308	2857
810.45	2895
810.591	2769
810.733	2845
810.875	2857
811.016	2777
811.158	2792
811.299	2815
811.441	2948
811.582	2872
811.724	2853
811.865	2845
812.007	2933
812.148	2887
812.29	2876
812.431	2876
812.573	2960
812.714	3005
812.855	3062
812.997	3070
813.138	3135
813.279	3062
813.421	3017
813.562	2979
813.703	2933
813.845	2918
813.986	2838
814.127	2746
814.268	2849
814.41	2845
814.551	2830
814.692	2902
814.833	2849
814.974	2929
815.115	2982
815.256	2864
815.397	2826
815.539	2845
815.68	2785
815.821	2815
815.962	2914
816.103	2979
816.244	2880
816.385	2857
816.526	3005
816.666	2967
816.807	2754
816.948	2929
817.089	2918
817.23	2857
817.371	2800
817.512	2842
817.653	2849
817.793	2845
817.934	2914
818.075	2967
818.216	3062
818.356	3032
818.497	2922
818.638	2838
818.778	2834
818.919	2823
819.06	2766
819.2	2883
819.341	2823
819.481	2807
819.622	2960
819.762	3104
819.903	3024
820.043	2933
820.184	2929
820.324	2922
820.465	3009
820.605	3047
820.746	3051
820.886	2967
821.026	3135
821.167	3192
821.307	3268
821.447	3306
821.588	3253
821.728	3256
821.868	3241
822.008	3108
822.149	3203
822.289	3275
822.429	3116
822.569	3150
822.709	3203
822.849	3077
822.99	3100
823.13	3222
823.27	3211
823.41	3119
823.55	3203
823.69	3176
823.83	3195
823.97	3116
824.11	3001
824.25	3013
824.389	3066
824.529	3119
824.669	3119
824.809	3272
824.949	3275
825.089	3226
825.228	3192
825.368	3013
825.508	2967
825.648	2994
825.787	3043
825.927	3036
826.067	3013
826.206	2982
826.346	3093
826.485	3055
826.625	3157
826.765	3298
826.904	3245
827.044	3001
827.183	2944
827.323	2910
827.462	2998
827.601	2902
827.741	2971
827.88	2986
828.02	2899
828.159	2982
828.298	3058
828.437	3104
828.577	3055
828.716	3268
828.855	3104
828.994	2925
829.134	2929
829.273	2982
829.412	2895
829.551	2883
829.69	2902
829.829	3017
829.968	3161
830.107	3036
830.246	3039
830.385	2975
830.524	2880
830.663	2838
830.802	2754
830.941	2701
831.08	2659
831.219	2800
831.357	2746
831.496	2944
831.635	2727
831.774	2670
831.913	2712
832.051	2549
832.19	2610
832.329	2720
832.467	2560
832.606	2480
832.744	2594
832.883	2598
833.022	2564
833.16	2632
833.299	2708
833.437	2724
833.576	2727
833.714	2743
833.852	2758
833.991	2804
834.129	2872
834.267	2849
834.406	2800
834.544	2872
834.682	2918
834.821	2861
834.959	3074
835.097	2944
835.235	3066
835.373	3066
835.511	3047
835.65	2948
835.788	2982
835.926	2857
836.064	2849
836.202	2868
836.34	3108
836.478	3192
836.615	3066
836.753	3157
836.891	3237
837.029	3176
837.167	3131
837.305	3112
837.443	3055
837.58	2956
837.718	3161
837.856	3070
837.993	3058
838.131	3119
838.269	3112
838.406	3100
838.544	3097
838.681	2925
838.819	2906
838.956	2838
839.094	2845
839.231	2941
839.369	3070
839.506	3428
839.643	3233
839.781	2990
839.918	2975
840.055	3085
840.193	3074
840.33	3051
840.467	3135
840.604	3176
840.742	3428
840.879	3085
841.016	3062
841.153	3154
841.29	3351
841.427	3317
841.564	3298
841.701	3340
841.838	3253
841.975	3233
842.112	3241
842.249	3108
842.385	3062
842.522	3313
842.659	3104
842.796	3028
842.933	3127
843.069	3085
843.206	3055
843.343	3207
843.479	3157
843.616	3165
843.752	2895
843.889	2891
844.025	3077
844.162	2880
844.298	3077
844.435	3017
844.571	2933
844.708	3100
844.844	3218
844.98	3264
845.117	3192
845.253	3070
845.389	3032
845.525	3104
845.661	3097
845.798	3028
845.934	3176
846.07	3085
846.206	3218
846.342	3294
846.478	3245
846.614	3093
846.75	3062
846.886	3077
847.022	3264
847.158	3131
847.294	3222
847.429	3264
847.565	3207
847.701	3496
847.837	3036
847.972	3024
848.108	3161
848.244	3214
848.379	2998
848.515	2948
848.65	2982
848.786	2952
848.921	2990
849.057	3104
849.192	3157
849.328	3081
849.463	3176
849.598	3093
849.734	3058
849.869	2994
850.004	2902
850.14	3001
850.275	2971
850.41	2887
850.545	2914
850.68	2948
850.815	2933
850.95	2990
851.085	3237
851.22	3100
851.355	3036
851.49	2975
851.625	3047
851.76	3043
851.895	2967
852.03	2902
852.165	3043
852.299	3135
852.434	3214
852.569	3150
852.703	3218
852.838	3264
852.973	3359
853.107	3283
853.242	3157
853.376	3116
853.511	3017
853.645	3020
853.78	3260
853.914	3070
854.048	3100
854.183	3112
854.317	3142
854.451	3275
854.585	3169
854.72	3119
854.854	3222
854.988	3058
855.122	3138
855.256	2994
855.39	3127
855.524	3199
855.658	3192
855.792	3138
855.926	3173
856.06	3207
856.194	3237
856.327	3131
856.461	3097
856.595	3116
856.729	3119
856.862	3218
856.996	3138
857.13	3203
857.263	3214
857.397	3253
857.53	3157
857.664	3157
857.797	3260
857.931	3279
858.064	3131
858.197	3256
858.331	3154
858.464	3058
858.597	3036
858.731	3123
858.864	3119
858.997	3081
859.13	3150
859.263	3184
859.396	3199
859.529	3093
859.662	3077
859.795	3055
859.928	3169
860.061	3291
860.194	3283
860.327	3165
860.46	3085
860.592	3230
860.725	3214
860.858	3241
860.99	3165
861.123	3043
861.256	3062
861.388	3123
861.521	3781
861.653	3013
861.786	2998
861.918	2967
862.05	3097
862.183	3108
862.315	3173
862.447	3233
862.58	3085
862.712	2944
862.844	2864
862.976	3047
863.108	2998
863.24	3450
863.372	2891
863.504	2986
863.636	2941
863.768	3047
863.9	2971
864.032	2914
864.164	2952
864.296	2990
864.428	3062
864.559	3112
864.691	3085
864.823	3104
864.954	3020
865.086	3066
865.217	2975
865.349	2971
865.48	2990
865.612	3047
865.743	3165
865.875	3017
866.006	2937
866.137	2982
866.269	2979
866.4	2941
866.531	2902
866.662	2868
866.793	2849
866.924	2929
867.055	3001
867.186	2937
867.317	2914
867.448	2876
867.579	2830
867.71	2880
867.841	2872
867.972	2910
868.103	2895
868.233	2910
868.364	2883
868.495	2952
868.625	3085
868.756	3127
868.886	2971
869.017	3047
869.147	3180
869.278	3142
869.408	3074
869.539	3001
869.669	3062
869.799	3028
869.929	3116
870.06	3093
870.19	3275
870.32	3245
870.45	3249
870.58	3370
870.71	3458
870.84	3458
870.97	3306
871.1	3211
871.23	3488
871.36	3450
871.489	3325
871.619	3443
871.749	3473
871.879	3454
872.008	3458
872.138	3374
872.267	3287
872.397	3173
872.526	3119
872.656	3020
872.785	3112
872.915	3230
873.044	3325
873.173	3226
873.303	3214
873.432	3253
873.561	3233
873.69	3161
873.819	3142
873.948	3214
874.077	3135
874.206	3009
874.335	3070
874.464	3184
874.593	3355
874.722	3237
874.851	3397
874.979	3351
875.108	3355
875.237	3184
875.365	3119
875.494	3180
875.623	3256
875.751	3066
875.88	3135
876.008	3150
876.136	3245
876.265	3382
876.393	3462
876.521	3439
876.65	3405
876.778	3344
876.906	3245
877.034	3199
877.162	3214
877.29	3157
877.418	3214
877.546	3233
877.674	3222
877.802	3199
877.93	3249
878.058	3169
878.185	3123
878.313	3192
878.441	3233
878.568	3055
878.696	3154
878.824	3256
878.951	3268
879.079	3450
879.206	3629
879.333	3439
879.461	3351
879.588	3378
879.715	3469
879.842	3580
879.97	3382
880.097	3226
880.224	3142
880.351	3214
880.478	3230
880.605	3192
880.732	3138
880.859	3462
880.986	3268
881.112	3344
881.239	3222
881.366	3104
881.493	3036
881.619	3028
881.746	3058
881.872	3108
881.999	3089
882.125	3188
882.252	3241
882.378	3321
882.505	3447
882.631	3275
882.757	3131
882.883	3192
883.01	3237
883.136	3131
883.262	3085
883.388	3104
883.514	3302
883.64	3401
883.766	3317
883.892	3180
884.018	3214
884.143	3424
884.269	3519
884.395	3173
884.52	3150
884.646	3218
884.772	3112
884.897	3119
885.023	3188
885.148	3283
885.274	3370
885.399	3405
885.524	3241
885.65	3211
885.775	3306
885.9	3298
886.025	3405
886.15	3378
886.275	3294
886.4	3283
886.525	3336
886.65	3260
886.775	3279
886.9	3488
887.025	3663
887.149	3370
887.274	3268
887.399	3161
887.523	3184
887.648	3188
887.773	3237
887.897	3355
888.021	3397
888.146	3344
888.27	3428
888.395	3542
888.519	3431
888.643	3431
888.767	3435
888.891	3313
889.015	3245
889.139	3279
889.263	3260
889.387	3412
889.511	3530
889.635	3416
889.759	3291
889.883	3298
890.006	3386
890.13	3454
890.254	3249
890.377	3332
890.501	3218
890.624	3184
890.748	3310
890.871	3157
890.995	3104
891.118	3043
891.241	3154
891.364	3218
891.488	3298
891.611	3157
891.734	3222
891.857	3256
891.98	3245
892.103	3348
892.226	3272
892.349	3214
892.471	3131
892.594	3260
892.717	3291
892.839	3253
892.962	3310
893.085	3351
893.207	3279
893.33	3161
893.452	3203
893.575	3355
893.697	3249
893.819	3462
893.941	3485
894.064	3431
894.186	3256
894.308	3249
894.43	3393
894.552	3542
894.674	3477
894.796	3241
894.918	3294
895.04	3283
895.161	3439
895.283	3332
895.405	3306
895.526	3363
895.648	3424
895.769	3389
895.891	3424
896.012	3458
896.134	3466
896.255	3431
896.376	3386
896.498	3336
896.619	3393
896.74	3317
896.861	3393
896.982	3686
897.103	3850
897.224	3599
897.345	3523
897.466	3435
897.587	3504
897.708	3644
897.828	3545
897.949	3435
898.07	3310
898.19	3401
898.311	3545
898.431	3443
898.552	3511
898.672	3595
898.792	3561
898.913	3481
899.033	3370
899.153	3245
899.273	3188
899.393	3279
899.513	3272
899.633	3294
899.753	3351
899.873	3332
899.993	3332
900.113	3313
900.232	3340
900.352	3351
900.472	3310
900.591	3203
900.711	3306
900.83	3211
900.95	3393
901.069	3485
901.189	3336
901.308	3188
901.427	3135
901.546	3154
901.665	3272
901.784	3344
901.904	3214
902.023	3150
902.141	3009
902.26	2979
902.379	3100
902.498	3093
902.617	3024
902.735	3222
902.854	3207
902.973	3173
903.091	3055
903.21	3055
903.328	3119
903.446	3138
903.565	3116
903.683	3169
903.801	3154
903.919	3214
904.038	3237
904.156	3173
904.274	3275
904.392	3245
904.51	3287
904.627	3325
904.745	3412
904.863	3424
904.981	3279
905.098	3203
905.216	3287
905.334	3283
905.451	3249
905.569	3348
905.686	3447
905.803	3424
905.921	3298
906.038	3409
906.155	3336
906.272	3260
906.389	3279
906.506	3222
906.623	3249
906.74	3291
906.857	3173
906.974	3256
907.091	3435
907.208	3576
907.324	3447
907.441	3393
907.557	3233
907.674	3233
907.79	3233
907.907	3275
908.023	3348
908.139	3401
908.256	3310
908.372	3325
908.488	3355
908.604	3283
908.72	3256
908.836	3272
908.952	3272
909.068	3359
909.184	3477
909.3	3405
909.415	3504
909.531	3473
909.647	3272
909.762	3275
909.878	3233
909.993	3378
910.108	3321
910.224	3363
910.339	3397
910.454	3370
910.57	3306
910.685	3260
910.8	3587
910.915	3526
911.03	3435
911.145	3249
911.259	3283
911.374	3294
911.489	3218
911.604	3176
911.718	3104
911.833	3138
911.947	3047
912.062	2986
912.176	3176
912.291	3222
912.405	3226
912.519	3454
912.633	3466
912.748	3325
912.862	3256
912.976	3176
913.09	3058
913.204	3146
913.318	3226
913.431	3302
913.545	3317
913.659	3382
913.772	3370
913.886	3192
914	3214
914.113	3367
914.226	3389
914.34	3393
914.453	3241
914.566	3405
914.68	3268
914.793	3294
914.906	3116
915.019	3104
915.132	3005
915.245	3161
915.358	3214
915.47	3241
915.583	3283
915.696	3321
915.809	3393
915.921	3420
916.034	3241
916.146	3230
916.259	3241
916.371	3374
916.483	3374
916.595	3245
916.708	3340
916.82	3325
916.932	3310
917.044	3351
917.156	3363
917.268	3207
917.38	3260
917.491	3332
917.603	3359
917.715	3435
917.826	3481
917.938	3348
918.049	3245
918.161	3397
918.272	3557
918.384	3557
918.495	3473
918.606	3325
918.717	3283
918.828	3359
918.939	3397
919.05	3302
919.161	3344
919.272	3157
919.383	3275
919.494	3519
919.604	3656
919.715	3496
919.826	3409
919.936	3439
920.047	3622
920.157	3561
920.267	3720
920.378	3591
920.488	3534
920.598	3736
920.708	3903
920.818	3823
920.928	3827
921.038	3994
921.148	3994
921.258	3682
921.368	3629
921.477	3584
921.587	3492
921.697	3450
921.806	3614
921.916	3534
922.025	3344
922.134	3336
922.244	3279
922.353	3443
922.462	3260
922.571	3245
922.68	3085
922.789	3066
922.898	3097
923.007	3070
923.116	3157
923.224	3135
923.333	3169
923.442	3085
923.55	3077
923.659	3146
923.767	3222
923.876	3119
923.984	3233
924.092	3097
924.201	3188
924.309	3195
924.417	3245
924.525	3157
924.633	3241
924.741	4032
924.849	3051
924.956	3260
925.064	3066
925.172	3051
925.279	3108
925.387	3222
925.494	3218
925.602	3355
925.709	3359
925.816	3218
925.924	3260
926.031	3382
926.138	3313
926.245	3336
926.352	3256
926.459	3409
926.566	3458
926.673	3302
926.779	3264
926.886	3222
926.993	3165
927.099	3077
927.206	3100
927.312	3108
927.419	3222
927.525	3165
927.631	3260
927.737	3165
927.843	3131
927.95	3047
928.056	3100
928.162	3142
928.267	3230
928.373	3838
928.479	3275
928.585	3051
928.69	3173
928.796	3268
928.901	3119
929.007	3074
929.112	3180
929.218	3154
929.323	3146
929.428	3104
929.533	3272
929.638	3089
929.743	3150
929.848	3245
929.953	3199
930.058	3173
930.163	2975
930.267	3055
930.372	3169
930.477	2994
930.581	3253
930.685	3180
930.79	3058
930.894	3077
930.998	3104
931.103	3249
931.207	2929
931.311	2876
931.415	2899
931.519	2743
931.623	2792
