Data from test_V78500241_2044.txt Node
Date: Fri Mar 25 16:29:21 CST 2022
User: usil
Spectrometer: V785-0024
Trigger mode: 0
Integration Time (sec): 4.000000E-1
Scans to average: 1
Nonlinearity correction enabled: false
Boxcar width: 0
Storing dark spectrum: false
XAxis mode: Wavelengths
Number of Pixels in Spectrum: 1024
>>>>>Begin Spectral Data<<<<<
801.071	2876
801.214	2960
801.356	2887
801.499	2857
801.641	2864
801.783	2918
801.926	3055
802.068	2994
802.211	3009
802.353	3039
802.496	2956
802.638	3017
802.78	3036
802.923	3074
803.065	3005
803.208	2887
803.35	2918
803.492	2914
803.635	2910
803.777	2758
803.919	2830
804.061	3218
804.204	2937
804.346	2941
804.488	2838
804.63	2956
804.773	2864
804.915	2918
805.057	3112
805.199	2952
805.341	2952
805.483	3001
805.626	2963
805.768	2956
805.91	3074
806.052	3108
806.194	3028
806.336	3195
806.478	2998
806.62	2910
806.762	2994
806.904	3043
807.046	3127
807.188	2963
807.33	2902
807.472	2971
807.614	2887
807.756	2979
807.898	2941
808.04	2914
808.182	2925
808.324	2906
808.465	2872
808.607	2876
808.749	2777
808.891	2815
809.033	2975
809.174	2937
809.316	2906
809.458	2895
809.6	2735
809.741	2750
809.883	2804
810.025	2834
810.166	2838
810.308	2826
810.45	2819
810.591	2762
810.733	2762
810.875	2838
811.016	2777
811.158	2766
811.299	2804
811.441	2914
811.582	2899
811.724	2804
811.865	2842
812.007	2876
812.148	2857
812.29	2857
812.431	2895
812.573	2922
812.714	2937
812.855	3028
812.997	3066
813.138	3108
813.279	2952
813.421	2975
813.562	2967
813.703	2861
813.845	2864
813.986	2788
814.127	2735
814.268	2800
814.41	2819
814.551	2811
814.692	2853
814.833	2796
814.974	2864
815.115	2971
815.256	2815
815.397	2811
815.539	2861
815.68	2731
815.821	2773
815.962	2941
816.103	2925
816.244	2872
816.385	2864
816.526	2956
816.666	2910
816.807	2739
816.948	2861
817.089	2872
817.23	2857
817.371	2785
817.512	2781
817.653	2804
817.793	2804
817.934	2887
818.075	2948
818.216	2971
818.356	3020
818.497	2868
818.638	2758
818.778	2773
818.919	2777
819.06	2743
819.2	2861
819.341	2819
819.481	2807
819.622	2895
819.762	3116
819.903	3058
820.043	2906
820.184	2880
820.324	2864
820.465	2990
820.605	3013
820.746	3062
820.886	2910
821.026	3074
821.167	3123
821.307	3241
821.447	3298
821.588	3253
821.728	3237
821.868	3195
822.008	3097
822.149	3188
822.289	3226
822.429	3104
822.569	3108
822.709	3154
822.849	3043
822.99	3070
823.13	3176
823.27	3264
823.41	3154
823.55	3169
823.69	3165
823.83	3199
823.97	3119
824.11	3036
824.25	3036
824.389	3097
824.529	3112
824.669	3066
824.809	3241
824.949	3268
825.089	3222
825.228	3203
825.368	3051
825.508	2975
825.648	3020
825.787	3032
825.927	3051
826.067	3024
826.206	2998
826.346	3081
826.485	3104
826.625	3100
826.765	3256
826.904	3306
827.044	3024
827.183	3009
827.323	2861
827.462	3020
827.601	2944
827.741	2952
827.88	2971
828.02	2906
828.159	3036
828.298	3097
828.437	3127
828.577	3108
828.716	3264
828.855	3104
828.994	2960
829.134	2929
829.273	2979
829.412	2910
829.551	2914
829.69	2941
829.829	3005
829.968	3169
830.107	3077
830.246	3089
830.385	2944
830.524	2914
830.663	2834
830.802	2754
830.941	2670
831.08	2678
831.219	2758
831.357	2773
831.496	2952
831.635	2731
831.774	2708
831.913	2701
832.051	2606
832.19	2613
832.329	2735
832.467	2579
832.606	2492
832.744	2610
832.883	2587
833.022	2621
833.16	2697
833.299	2686
833.437	2727
833.576	2754
833.714	2743
833.852	2796
833.991	2804
834.129	2864
834.267	2819
834.406	2792
834.544	2895
834.682	2941
834.821	2868
834.959	3070
835.097	2929
835.235	3100
835.373	3055
835.511	3039
835.65	3020
835.788	2994
835.926	2880
836.064	2830
836.202	2883
836.34	3104
836.478	3169
836.615	3100
836.753	3116
836.891	3230
837.029	3203
837.167	3142
837.305	3116
837.443	3062
837.58	2982
837.718	3165
837.856	3089
837.993	3039
838.131	3138
838.269	3142
838.406	3119
838.544	3100
838.681	2952
838.819	2960
838.956	2880
839.094	2883
839.231	2963
839.369	3074
839.506	3420
839.643	3237
839.781	3024
839.918	2994
840.055	3104
840.193	3074
840.33	3081
840.467	3108
840.604	3207
840.742	3428
840.879	3089
841.016	3108
841.153	3161
841.29	3355
841.427	3336
841.564	3317
841.701	3325
841.838	3279
841.975	3214
842.112	3237
842.249	3146
842.385	3070
842.522	3253
842.659	3108
842.796	3058
842.933	3127
843.069	3074
843.206	3028
843.343	3207
843.479	3119
843.616	3138
843.752	2910
843.889	2914
844.025	3127
844.162	2922
844.298	3074
844.435	2956
844.571	2979
844.708	3089
844.844	3264
844.98	3291
845.117	3245
845.253	3058
845.389	2994
845.525	3142
845.661	3169
845.798	3028
845.934	3161
846.07	3058
846.206	3245
846.342	3332
846.478	3233
846.614	3108
846.75	3104
846.886	3036
847.022	3260
847.158	3146
847.294	3211
847.429	3268
847.565	3199
847.701	3515
847.837	3062
847.972	3039
848.108	3161
848.244	3161
848.379	3024
848.515	2944
848.65	2918
848.786	2998
848.921	3001
849.057	3142
849.192	3207
849.328	3108
849.463	3123
849.598	3085
849.734	3032
849.869	2998
850.004	2937
850.14	3013
850.275	2914
850.41	2868
850.545	2895
850.68	2952
850.815	2971
850.95	3001
851.085	3222
851.22	3123
851.355	3070
851.49	3043
851.625	3036
851.76	3043
851.895	2979
852.03	2899
852.165	3043
852.299	3116
852.434	3188
852.569	3188
852.703	3203
852.838	3230
852.973	3397
853.107	3351
853.242	3142
853.376	3112
853.511	3028
853.645	3047
853.78	3249
853.914	3199
854.048	3112
854.183	3116
854.317	3161
854.451	3310
854.585	3123
854.72	3104
854.854	3233
854.988	3062
855.122	3074
855.256	3005
855.39	3131
855.524	3249
855.658	3207
855.792	3180
855.926	3226
856.06	3222
856.194	3275
856.327	3211
856.461	3123
856.595	3062
856.729	3123
856.862	3230
856.996	3192
857.13	3268
857.263	3245
857.397	3321
857.53	3108
857.664	3199
857.797	3256
857.931	3294
858.064	3188
858.197	3249
858.331	3150
858.464	3085
858.597	3020
858.731	3108
858.864	3154
858.997	3108
859.13	3214
859.263	3180
859.396	3230
859.529	3135
859.662	3081
859.795	3089
859.928	3176
860.061	3291
860.194	3321
860.327	3161
860.46	3100
860.592	3253
860.725	3230
860.858	3272
860.99	3116
861.123	3066
861.256	3108
861.388	3146
861.521	3911
861.653	3039
861.786	3043
861.918	3036
862.05	3081
862.183	3157
862.315	3119
862.447	3237
862.58	3127
862.712	2956
862.844	2906
862.976	3024
863.108	3017
863.24	3313
863.372	2922
863.504	2986
863.636	2967
863.768	3017
863.9	3020
864.032	2922
864.164	2963
864.296	3062
864.428	3089
864.559	3131
864.691	3104
864.823	3108
864.954	3051
865.086	3047
865.217	3009
865.349	2994
865.48	3017
865.612	3028
865.743	3176
865.875	3005
866.006	2986
866.137	2998
866.269	2952
866.4	2941
866.531	2929
866.662	2910
866.793	2925
866.924	2941
867.055	2994
867.186	2937
867.317	2906
867.448	2899
867.579	2876
867.71	2861
867.841	2853
867.972	2933
868.103	2925
868.233	2902
868.364	2891
868.495	2933
868.625	3108
868.756	3188
868.886	2986
869.017	3039
869.147	3207
869.278	3127
869.408	3081
869.539	3043
869.669	3104
869.799	3043
869.929	3119
870.06	3119
870.19	3340
870.32	3302
870.45	3344
870.58	3374
870.71	3469
870.84	3466
870.97	3321
871.1	3272
871.23	3477
871.36	3515
871.489	3370
871.619	3431
871.749	3443
871.879	3405
872.008	3507
872.138	3389
872.267	3294
872.397	3157
872.526	3108
872.656	3039
872.785	3104
872.915	3268
873.044	3310
873.173	3245
873.303	3253
873.432	3249
873.561	3241
873.69	3173
873.819	3157
873.948	3230
874.077	3093
874.206	3077
874.335	3108
874.464	3218
874.593	3351
874.722	3237
874.851	3401
874.979	3382
875.108	3332
875.237	3184
875.365	3176
875.494	3157
875.623	3272
875.751	3119
875.88	3142
876.008	3176
876.136	3226
876.265	3409
876.393	3538
876.521	3450
876.65	3397
876.778	3340
876.906	3256
877.034	3214
877.162	3245
877.29	3188
877.418	3298
877.546	3260
877.674	3203
877.802	3245
877.93	3256
878.058	3199
878.185	3108
878.313	3218
878.441	3275
878.568	3066
878.696	3184
878.824	3298
878.951	3321
879.079	3450
879.206	3652
879.333	3428
879.461	3355
879.588	3412
879.715	3473
879.842	3648
879.97	3412
880.097	3176
880.224	3173
880.351	3249
880.478	3245
880.605	3199
880.732	3173
880.859	3481
880.986	3321
881.112	3367
881.239	3249
881.366	3104
881.493	3039
881.619	3058
881.746	3077
881.872	3074
881.999	3142
882.125	3138
882.252	3264
882.378	3272
882.505	3450
882.631	3306
882.757	3173
882.883	3222
883.01	3245
883.136	3188
883.262	3100
883.388	3135
883.514	3329
883.64	3393
883.766	3329
883.892	3218
884.018	3264
884.143	3428
884.269	3523
884.395	3211
884.52	3184
884.646	3218
884.772	3123
884.897	3131
885.023	3249
885.148	3359
885.274	3431
885.399	3405
885.524	3313
885.65	3275
885.775	3344
885.9	3302
886.025	3443
886.15	3409
886.275	3310
886.4	3222
886.525	3321
886.65	3287
886.775	3291
886.9	3485
887.025	3625
887.149	3405
887.274	3264
887.399	3161
887.523	3230
887.648	3188
887.773	3161
887.897	3355
888.021	3397
888.146	3329
888.27	3447
888.395	3519
888.519	3431
888.643	3447
888.767	3469
888.891	3321
889.015	3260
889.139	3321
889.263	3291
889.387	3374
889.511	3538
889.635	3500
889.759	3283
889.883	3287
890.006	3428
890.13	3515
890.254	3272
890.377	3340
890.501	3249
890.624	3195
890.748	3310
890.871	3214
890.995	3123
891.118	3077
891.241	3207
891.364	3294
891.488	3321
891.611	3207
891.734	3245
891.857	3294
891.98	3233
892.103	3382
892.226	3287
892.349	3207
892.471	3127
892.594	3233
892.717	3268
892.839	3279
892.962	3291
893.085	3378
893.207	3340
893.33	3161
893.452	3203
893.575	3344
893.697	3237
893.819	3504
893.941	3519
894.064	3416
894.186	3275
894.308	3268
894.43	3458
894.552	3545
894.674	3511
894.796	3317
894.918	3313
895.04	3283
895.161	3469
895.283	3412
895.405	3355
895.526	3355
895.648	3401
895.769	3450
895.891	3454
896.012	3511
896.134	3488
896.255	3405
896.376	3420
896.498	3336
896.619	3477
896.74	3363
896.861	3363
896.982	3671
897.103	3831
897.224	3595
897.345	3523
897.466	3409
897.587	3492
897.708	3633
897.828	3534
897.949	3443
898.07	3336
898.19	3428
898.311	3606
898.431	3424
898.552	3515
898.672	3610
898.792	3591
898.913	3530
899.033	3424
899.153	3294
899.273	3199
899.393	3325
899.513	3321
899.633	3321
899.753	3344
899.873	3268
899.993	3344
900.113	3329
900.232	3401
900.352	3393
900.472	3302
900.591	3241
900.711	3256
900.83	3211
900.95	3431
901.069	3488
901.189	3363
901.308	3207
901.427	3112
901.546	3218
901.665	3256
901.784	3332
901.904	3249
902.023	3154
902.141	3005
902.26	3009
902.379	3127
902.498	3070
902.617	3043
902.735	3222
902.854	3233
902.973	3230
903.091	3066
903.21	3074
903.328	3176
903.446	3131
903.565	3093
903.683	3214
903.801	3097
903.919	3249
904.038	3306
904.156	3195
904.274	3298
904.392	3264
904.51	3294
904.627	3325
904.745	3466
904.863	3488
904.981	3230
905.098	3154
905.216	3245
905.334	3325
905.451	3321
905.569	3317
905.686	3443
905.803	3443
905.921	3313
906.038	3431
906.155	3317
906.272	3287
906.389	3317
906.506	3226
906.623	3233
906.74	3268
906.857	3157
906.974	3302
907.091	3416
907.208	3534
907.324	3462
907.441	3382
907.557	3226
907.674	3260
907.79	3203
907.907	3291
908.023	3351
908.139	3355
908.256	3325
908.372	3348
908.488	3348
908.604	3245
908.72	3268
908.836	3275
908.952	3287
909.068	3325
909.184	3462
909.3	3401
909.415	3504
909.531	3526
909.647	3291
909.762	3310
909.878	3237
909.993	3355
910.108	3321
910.224	3340
910.339	3439
910.454	3317
910.57	3283
910.685	3199
910.8	3564
910.915	3534
911.03	3447
911.145	3256
911.259	3275
911.374	3310
911.489	3272
911.604	3207
911.718	3116
911.833	3184
911.947	3020
912.062	2956
912.176	3161
912.291	3180
912.405	3188
912.519	3454
912.633	3462
912.748	3336
912.862	3260
912.976	3188
913.09	3081
913.204	3157
913.318	3195
913.431	3329
913.545	3344
913.659	3424
913.772	3351
913.886	3207
914	3218
914.113	3351
914.226	3424
914.34	3370
914.453	3249
914.566	3401
914.68	3302
914.793	3321
914.906	3138
915.019	3123
915.132	3112
915.245	3176
915.358	3184
915.47	3207
915.583	3256
915.696	3291
915.809	3409
915.921	3420
916.034	3279
916.146	3241
916.259	3214
916.371	3374
916.483	3359
916.595	3287
916.708	3344
916.82	3325
916.932	3386
917.044	3317
917.156	3298
917.268	3233
917.38	3302
917.491	3310
917.603	3420
917.715	3454
917.826	3485
917.938	3370
918.049	3287
918.161	3420
918.272	3564
918.384	3561
918.495	3488
918.606	3306
918.717	3340
918.828	3348
918.939	3401
919.05	3294
919.161	3416
919.272	3203
919.383	3291
919.494	3496
919.604	3667
919.715	3473
919.826	3435
919.936	3454
920.047	3622
920.157	3553
920.267	3736
920.378	3618
920.488	3591
920.598	3789
920.708	3915
920.818	3831
920.928	3857
921.038	4013
921.148	3994
921.258	3690
921.368	3622
921.477	3553
921.587	3549
921.697	3443
921.806	3633
921.916	3511
922.025	3348
922.134	3359
922.244	3302
922.353	3447
922.462	3260
922.571	3241
922.68	3119
922.789	3055
922.898	3127
923.007	3077
923.116	3214
923.224	3176
923.333	3192
923.442	3089
923.55	3116
923.659	3127
923.767	3230
923.876	3100
923.984	3272
924.092	3112
924.201	3184
924.309	3256
924.417	3275
924.525	3222
924.633	3230
924.741	4188
924.849	3058
924.956	3241
925.064	3070
925.172	3024
925.279	3116
925.387	3192
925.494	3199
925.602	3374
925.709	3321
925.816	3199
925.924	3272
926.031	3367
926.138	3321
926.245	3393
926.352	3268
926.459	3439
926.566	3488
926.673	3325
926.779	3264
926.886	3245
926.993	3127
927.099	3188
927.206	3154
927.312	3112
927.419	3245
927.525	3218
927.631	3279
927.737	3108
927.843	3074
927.95	2994
928.056	3188
928.162	3161
928.267	3275
928.373	3876
928.479	3294
928.585	3070
928.69	3222
928.796	3233
928.901	3146
929.007	3043
929.112	3203
929.218	3192
929.323	3116
929.428	3138
929.533	3340
929.638	3112
929.743	3169
929.848	3241
929.953	3195
930.058	3157
930.163	3001
930.267	3032
930.372	3180
930.477	3032
930.581	3306
930.685	3199
930.79	3055
930.894	3142
930.998	3104
931.103	3264
931.207	2933
931.311	2994
931.415	2963
931.519	2781
931.623	2830
