Data from test_V78500241_919.txt Node
Date: Fri Mar 25 16:21:34 CST 2022
User: usil
Spectrometer: V785-0024
Trigger mode: 0
Integration Time (sec): 4.000000E-1
Scans to average: 1
Nonlinearity correction enabled: false
Boxcar width: 0
Storing dark spectrum: false
XAxis mode: Wavelengths
Number of Pixels in Spectrum: 1024
>>>>>Begin Spectral Data<<<<<
801.071	2937
801.214	2952
801.356	2880
801.499	2891
801.641	2902
801.783	2880
801.926	3051
802.068	2944
802.211	2986
802.353	3036
802.496	3005
802.638	2960
802.78	3020
802.923	3055
803.065	3001
803.208	2868
803.35	2925
803.492	2925
803.635	2902
803.777	2754
803.919	2864
804.061	3173
804.204	2937
804.346	2929
804.488	2811
804.63	2982
804.773	2842
804.915	2906
805.057	3055
805.199	2933
805.341	2975
805.483	3009
805.626	2986
805.768	2902
805.91	3093
806.052	3089
806.194	3013
806.336	3203
806.478	3024
806.62	2960
806.762	2952
806.904	3062
807.046	3154
807.188	3005
807.33	2876
807.472	2971
807.614	2883
807.756	2994
807.898	2910
808.04	2922
808.182	2967
808.324	2925
808.465	2883
808.607	2834
808.749	2788
808.891	2823
809.033	2971
809.174	2967
809.316	2857
809.458	2899
809.6	2777
809.741	2743
809.883	2739
810.025	2815
810.166	2838
810.308	2830
810.45	2864
810.591	2785
810.733	2750
810.875	2857
811.016	2754
811.158	2754
811.299	2796
811.441	2922
811.582	2899
811.724	2807
811.865	2815
812.007	2891
812.148	2857
812.29	2807
812.431	2876
812.573	2914
812.714	2967
812.855	3032
812.997	3024
813.138	3104
813.279	3005
813.421	2963
813.562	2933
813.703	2861
813.845	2876
813.986	2781
814.127	2724
814.268	2815
814.41	2804
814.551	2788
814.692	2868
814.833	2785
814.974	2872
815.115	2918
815.256	2796
815.397	2845
815.539	2826
815.68	2769
815.821	2830
815.962	2914
816.103	2933
816.244	2868
816.385	2834
816.526	2937
816.666	2887
816.807	2716
816.948	2895
817.089	2933
817.23	2861
817.371	2754
817.512	2788
817.653	2823
817.793	2792
817.934	2868
818.075	2960
818.216	2967
818.356	3039
818.497	2861
818.638	2785
818.778	2823
818.919	2788
819.06	2743
819.2	2857
819.341	2811
819.481	2788
819.622	2906
819.762	3066
819.903	3077
820.043	2906
820.184	2891
820.324	2891
820.465	3017
820.605	2994
820.746	3032
820.886	2941
821.026	3093
821.167	3176
821.307	3260
821.447	3245
821.588	3233
821.728	3207
821.868	3173
822.008	3146
822.149	3173
822.289	3222
822.429	3062
822.569	3108
822.709	3157
822.849	3036
822.99	3081
823.13	3157
823.27	3192
823.41	3108
823.55	3112
823.69	3184
823.83	3176
823.97	3112
824.11	2998
824.25	2982
824.389	3051
824.529	3093
824.669	3074
824.809	3176
824.949	3237
825.089	3203
825.228	3176
825.368	3001
825.508	2922
825.648	2956
825.787	3009
825.927	3001
826.067	2929
826.206	2941
826.346	3013
826.485	3062
826.625	3051
826.765	3268
826.904	3192
827.044	3005
827.183	2937
827.323	2861
827.462	2952
827.601	2899
827.741	2925
827.88	2956
828.02	2823
828.159	2960
828.298	3005
828.437	3135
828.577	3032
828.716	3214
828.855	3066
828.994	2910
829.134	2880
829.273	2891
829.412	2902
829.551	2842
829.69	2876
829.829	3039
829.968	3135
830.107	3020
830.246	2994
830.385	2925
830.524	2880
830.663	2800
830.802	2727
830.941	2693
831.08	2674
831.219	2731
831.357	2766
831.496	2952
831.635	2724
831.774	2651
831.913	2651
832.051	2564
832.19	2575
832.329	2689
832.467	2518
832.606	2480
832.744	2617
832.883	2625
833.022	2587
833.16	2670
833.299	2697
833.437	2686
833.576	2731
833.714	2727
833.852	2746
833.991	2785
834.129	2838
834.267	2857
834.406	2819
834.544	2861
834.682	2906
834.821	2918
834.959	3100
835.097	2929
835.235	3093
835.373	3020
835.511	3070
835.65	2952
835.788	3005
835.926	2880
836.064	2861
836.202	2880
836.34	3157
836.478	3211
836.615	3081
836.753	3176
836.891	3233
837.029	3184
837.167	3112
837.305	3081
837.443	3085
837.58	3005
837.718	3176
837.856	3100
837.993	3077
838.131	3135
838.269	3154
838.406	3070
838.544	3100
838.681	2998
838.819	2967
838.956	2872
839.094	2887
839.231	2982
839.369	3043
839.506	3412
839.643	3283
839.781	3028
839.918	3017
840.055	3097
840.193	3051
840.33	3116
840.467	3157
840.604	3176
840.742	3431
840.879	3119
841.016	3108
841.153	3112
841.29	3382
841.427	3306
841.564	3321
841.701	3351
841.838	3241
841.975	3214
842.112	3241
842.249	3119
842.385	3100
842.522	3317
842.659	3135
842.796	3116
842.933	3089
843.069	3058
843.206	3047
843.343	3230
843.479	3104
843.616	3184
843.752	2929
843.889	2857
844.025	3146
844.162	2902
844.298	3108
844.435	2971
844.571	2979
844.708	3131
844.844	3230
844.98	3241
845.117	3253
845.253	3104
845.389	2986
845.525	3138
845.661	3176
845.798	3051
845.934	3112
846.07	3020
846.206	3222
846.342	3355
846.478	3272
846.614	3108
846.75	3051
846.886	3066
847.022	3264
847.158	3176
847.294	3233
847.429	3260
847.565	3287
847.701	3485
847.837	3081
847.972	3032
848.108	3203
848.244	3161
848.379	3043
848.515	2956
848.65	2948
848.786	3020
848.921	3032
849.057	3116
849.192	3222
849.328	3116
849.463	3165
849.598	3104
849.734	3047
849.869	2971
850.004	2975
850.14	2967
850.275	2956
850.41	2868
850.545	2872
850.68	2937
850.815	2979
850.95	2963
851.085	3218
851.22	3154
851.355	3066
851.49	3005
851.625	3077
851.76	3047
851.895	2948
852.03	2933
852.165	3024
852.299	3119
852.434	3214
852.569	3142
852.703	3218
852.838	3249
852.973	3386
853.107	3374
853.242	3184
853.376	3138
853.511	3009
853.645	3070
853.78	3211
853.914	3161
854.048	3104
854.183	3093
854.317	3180
854.451	3287
854.585	3138
854.72	3070
854.854	3226
854.988	3089
855.122	3116
855.256	3017
855.39	3146
855.524	3264
855.658	3154
855.792	3199
855.926	3222
856.06	3275
856.194	3321
856.327	3207
856.461	3108
856.595	3074
856.729	3138
856.862	3245
856.996	3154
857.13	3241
857.263	3245
857.397	3275
857.53	3192
857.664	3207
857.797	3275
857.931	3294
858.064	3192
858.197	3272
858.331	3138
858.464	3093
858.597	3024
858.731	3119
858.864	3116
858.997	3135
859.13	3218
859.263	3203
859.396	3241
859.529	3097
859.662	3093
859.795	3077
859.928	3199
860.061	3264
860.194	3291
860.327	3180
860.46	3116
860.592	3233
860.725	3302
860.858	3268
860.99	3169
861.123	3089
861.256	3112
861.388	3192
861.521	3880
861.653	3043
861.786	3024
861.918	3032
862.05	3093
862.183	3089
862.315	3173
862.447	3173
862.58	3135
862.712	3013
862.844	2899
862.976	3043
863.108	3009
863.24	3340
863.372	2868
863.504	2998
863.636	2998
863.768	3093
863.9	3005
864.032	2929
864.164	2994
864.296	3039
864.428	3089
864.559	3165
864.691	3112
864.823	3074
864.954	3077
865.086	3055
865.217	2986
865.349	2990
865.48	3013
865.612	3066
865.743	3165
865.875	2998
866.006	2998
866.137	3020
866.269	2971
866.4	2963
866.531	2960
866.662	2906
866.793	2887
866.924	2933
867.055	3013
867.186	2960
867.317	2925
867.448	2857
867.579	2861
867.71	2883
867.841	2845
867.972	2922
868.103	2918
868.233	2906
868.364	2914
868.495	2910
868.625	3131
868.756	3233
868.886	3036
869.017	3085
869.147	3150
869.278	3169
869.408	3100
869.539	3036
869.669	3116
869.799	3055
869.929	3142
870.06	3119
870.19	3359
870.32	3321
870.45	3321
870.58	3382
870.71	3485
870.84	3473
870.97	3313
871.1	3268
871.23	3496
871.36	3500
871.489	3348
871.619	3382
871.749	3458
871.879	3443
872.008	3504
872.138	3397
872.267	3283
872.397	3150
872.526	3085
872.656	2998
872.785	3104
872.915	3256
873.044	3317
873.173	3253
873.303	3253
873.432	3245
873.561	3241
873.69	3188
873.819	3176
873.948	3222
874.077	3112
874.206	3077
874.335	3097
874.464	3237
874.593	3386
874.722	3214
874.851	3405
874.979	3409
875.108	3367
875.237	3245
875.365	3192
875.494	3199
875.623	3222
875.751	3127
875.88	3131
876.008	3253
876.136	3245
876.265	3367
876.393	3507
876.521	3416
876.65	3393
876.778	3355
876.906	3256
877.034	3214
877.162	3283
877.29	3211
877.418	3275
877.546	3249
877.674	3207
877.802	3230
877.93	3268
878.058	3195
878.185	3119
878.313	3214
878.441	3260
878.568	3085
878.696	3173
878.824	3302
878.951	3321
879.079	3454
879.206	3614
879.333	3458
879.461	3367
879.588	3401
879.715	3542
879.842	3614
879.97	3450
880.097	3188
880.224	3146
880.351	3211
880.478	3218
880.605	3245
880.732	3195
880.859	3515
880.986	3348
881.112	3340
881.239	3188
881.366	3093
881.493	3074
881.619	3028
881.746	3081
881.872	3119
881.999	3146
882.125	3195
882.252	3283
882.378	3302
882.505	3443
882.631	3294
882.757	3154
882.883	3241
883.01	3218
883.136	3157
883.262	3135
883.388	3116
883.514	3367
883.64	3389
883.766	3344
883.892	3207
884.018	3268
884.143	3458
884.269	3549
884.395	3199
884.52	3184
884.646	3214
884.772	3157
884.897	3077
885.023	3214
885.148	3355
885.274	3443
885.399	3367
885.524	3306
885.65	3287
885.775	3351
885.9	3306
886.025	3409
886.15	3393
886.275	3291
886.4	3237
886.525	3340
886.65	3256
886.775	3317
886.9	3523
887.025	3637
887.149	3431
887.274	3272
887.399	3218
887.523	3233
887.648	3180
887.773	3154
887.897	3382
888.021	3401
888.146	3329
888.27	3447
888.395	3534
888.519	3454
888.643	3462
888.767	3511
888.891	3344
889.015	3298
889.139	3275
889.263	3260
889.387	3431
889.511	3564
889.635	3435
889.759	3325
889.883	3351
890.006	3420
890.13	3496
890.254	3302
890.377	3336
890.501	3207
890.624	3214
890.748	3355
890.871	3214
890.995	3085
891.118	3077
891.241	3184
891.364	3230
891.488	3344
891.611	3180
891.734	3203
891.857	3302
891.98	3249
892.103	3306
892.226	3302
892.349	3249
892.471	3127
892.594	3260
892.717	3283
892.839	3283
892.962	3310
893.085	3355
893.207	3329
893.33	3142
893.452	3176
893.575	3340
893.697	3268
893.819	3477
893.941	3473
894.064	3485
894.186	3306
894.308	3275
894.43	3443
894.552	3561
894.674	3450
894.796	3268
894.918	3344
895.04	3287
895.161	3420
895.283	3351
895.405	3306
895.526	3386
895.648	3416
895.769	3420
895.891	3447
896.012	3511
896.134	3458
896.255	3439
896.376	3401
896.498	3370
896.619	3378
896.74	3367
896.861	3386
896.982	3682
897.103	3804
897.224	3591
897.345	3519
897.466	3428
897.587	3473
897.708	3625
897.828	3557
897.949	3405
898.07	3340
898.19	3416
898.311	3625
898.431	3488
898.552	3557
898.672	3545
898.792	3595
898.913	3561
899.033	3431
899.153	3294
899.273	3253
899.393	3302
899.513	3355
899.633	3321
899.753	3363
899.873	3344
899.993	3401
900.113	3310
900.232	3393
900.352	3378
900.472	3287
900.591	3184
900.711	3287
900.83	3203
900.95	3374
901.069	3500
901.189	3344
901.308	3188
901.427	3123
901.546	3192
901.665	3253
901.784	3321
901.904	3184
902.023	3173
902.141	3024
902.26	2982
902.379	3146
902.498	3074
902.617	3028
902.735	3176
902.854	3237
902.973	3222
903.091	2998
903.21	3009
903.328	3157
903.446	3127
903.565	3104
903.683	3188
903.801	3157
903.919	3302
904.038	3313
904.156	3154
904.274	3317
904.392	3237
904.51	3310
904.627	3344
904.745	3435
904.863	3538
904.981	3237
905.098	3203
905.216	3245
905.334	3340
905.451	3291
905.569	3325
905.686	3462
905.803	3481
905.921	3336
906.038	3435
906.155	3351
906.272	3302
906.389	3336
906.506	3268
906.623	3249
906.74	3272
906.857	3237
906.974	3279
907.091	3485
907.208	3564
907.324	3500
907.441	3405
907.557	3253
907.674	3260
907.79	3245
907.907	3332
908.023	3389
908.139	3393
908.256	3363
908.372	3401
908.488	3386
908.604	3264
908.72	3283
908.836	3351
908.952	3313
909.068	3359
909.184	3500
909.3	3409
909.415	3576
909.531	3500
909.647	3302
909.762	3310
909.878	3348
909.993	3416
910.108	3389
910.224	3370
910.339	3458
910.454	3355
910.57	3336
910.685	3264
910.8	3625
910.915	3572
911.03	3485
911.145	3348
911.259	3310
911.374	3340
911.489	3310
911.604	3313
911.718	3150
911.833	3180
911.947	3058
912.062	3058
912.176	3230
912.291	3214
912.405	3245
912.519	3485
912.633	3519
912.748	3405
912.862	3329
912.976	3241
913.09	3116
913.204	3188
913.318	3272
913.431	3370
913.545	3348
913.659	3450
913.772	3412
913.886	3279
914	3272
914.113	3397
914.226	3481
914.34	3386
914.453	3268
914.566	3473
914.68	3359
914.793	3348
914.906	3173
915.019	3161
915.132	3093
915.245	3192
915.358	3249
915.47	3275
915.583	3344
915.696	3382
915.809	3409
915.921	3443
916.034	3272
916.146	3298
916.259	3249
916.371	3424
916.483	3435
916.595	3298
916.708	3344
916.82	3367
916.932	3416
917.044	3370
917.156	3382
917.268	3313
917.38	3313
917.491	3359
917.603	3389
917.715	3507
917.826	3488
917.938	3401
918.049	3325
918.161	3481
918.272	3641
918.384	3633
918.495	3591
918.606	3378
918.717	3298
918.828	3409
918.939	3450
919.05	3325
919.161	3401
919.272	3241
919.383	3294
919.494	3519
919.604	3713
919.715	3530
919.826	3431
919.936	3462
920.047	3614
920.157	3606
920.267	3854
920.378	3660
920.488	3603
920.598	3812
920.708	3983
920.818	3838
920.928	3880
921.038	4032
921.148	4036
921.258	3778
921.368	3682
921.477	3603
921.587	3553
921.697	3500
921.806	3660
921.916	3580
922.025	3397
922.134	3382
922.244	3329
922.353	3473
922.462	3310
922.571	3241
922.68	3154
922.789	3146
922.898	3161
923.007	3119
923.116	3226
923.224	3218
923.333	3230
923.442	3142
923.55	3127
923.659	3169
923.767	3256
923.876	3138
923.984	3283
924.092	3127
924.201	3264
924.309	3218
924.417	3321
924.525	3241
924.633	3256
924.741	4242
924.849	3085
924.956	3287
925.064	3127
925.172	3066
925.279	3112
925.387	3233
925.494	3233
925.602	3359
925.709	3367
925.816	3249
925.924	3268
926.031	3412
926.138	3332
926.245	3401
926.352	3272
926.459	3439
926.566	3466
926.673	3340
926.779	3287
926.886	3310
926.993	3180
927.099	3154
927.206	3135
927.312	3154
927.419	3272
927.525	3218
927.631	3298
927.737	3165
927.843	3157
927.95	3066
928.056	3203
928.162	3211
928.267	3287
928.373	3884
928.479	3340
928.585	3116
928.69	3230
928.796	3279
928.901	3180
929.007	3058
929.112	3279
929.218	3237
929.323	3150
929.428	3180
929.533	3302
929.638	3119
929.743	3233
929.848	3272
929.953	3253
930.058	3184
930.163	3058
930.267	3055
930.372	3233
930.477	3070
930.581	3329
930.685	3253
930.79	3108
930.894	3150
930.998	3104
931.103	3272
931.207	2975
931.311	3001
931.415	2963
931.519	2823
931.623	2876
