Data from test_V78500241_1129.txt Node
Date: Fri Mar 25 16:23:01 CST 2022
User: usil
Spectrometer: V785-0024
Trigger mode: 0
Integration Time (sec): 4.000000E-1
Scans to average: 1
Nonlinearity correction enabled: false
Boxcar width: 0
Storing dark spectrum: false
XAxis mode: Wavelengths
Number of Pixels in Spectrum: 1024
>>>>>Begin Spectral Data<<<<<
801.071	2925
801.214	2952
801.356	2838
801.499	2929
801.641	2842
801.783	2902
801.926	3028
802.068	2941
802.211	2963
802.353	3024
802.496	2929
802.638	2994
802.78	3039
802.923	3062
803.065	2990
803.208	2880
803.35	2891
803.492	2868
803.635	2906
803.777	2762
803.919	2845
804.061	3169
804.204	2887
804.346	2929
804.488	2804
804.63	2971
804.773	2842
804.915	2895
805.057	3058
805.199	2914
805.341	2944
805.483	3028
805.626	2986
805.768	2971
805.91	3055
806.052	3116
806.194	3032
806.336	3218
806.478	3024
806.62	2944
806.762	2956
806.904	3020
807.046	3142
807.188	3013
807.33	2887
807.472	2971
807.614	2918
807.756	2967
807.898	2880
808.04	2864
808.182	2944
808.324	2937
808.465	2880
808.607	2899
808.749	2754
808.891	2853
809.033	2941
809.174	2971
809.316	2853
809.458	2868
809.6	2758
809.741	2762
809.883	2739
810.025	2838
810.166	2857
810.308	2788
810.45	2849
810.591	2773
810.733	2804
810.875	2800
811.016	2796
811.158	2735
811.299	2788
811.441	2933
811.582	2861
811.724	2815
811.865	2781
812.007	2876
812.148	2849
812.29	2834
812.431	2864
812.573	2929
812.714	2929
812.855	3001
812.997	3013
813.138	3097
813.279	2998
813.421	2922
813.562	2982
813.703	2815
813.845	2857
813.986	2754
814.127	2720
814.268	2811
814.41	2811
814.551	2807
814.692	2830
814.833	2769
814.974	2876
815.115	2944
815.256	2804
815.397	2781
815.539	2872
815.68	2758
815.821	2743
815.962	2906
816.103	2937
816.244	2864
816.385	2838
816.526	2925
816.666	2891
816.807	2724
816.948	2872
817.089	2918
817.23	2823
817.371	2781
817.512	2788
817.653	2819
817.793	2823
817.934	2842
818.075	2960
818.216	2979
818.356	2994
818.497	2853
818.638	2792
818.778	2796
818.919	2785
819.06	2731
819.2	2910
819.341	2788
819.481	2762
819.622	2880
819.762	3024
819.903	3013
820.043	2906
820.184	2864
820.324	2864
820.465	2979
820.605	3001
820.746	3001
820.886	2941
821.026	3062
821.167	3135
821.307	3222
821.447	3256
821.588	3233
821.728	3207
821.868	3173
822.008	3051
822.149	3199
822.289	3165
822.429	3074
822.569	3100
822.709	3150
822.849	3036
822.99	3047
823.13	3104
823.27	3192
823.41	3108
823.55	3184
823.69	3146
823.83	3199
823.97	3093
824.11	3001
824.25	3024
824.389	3055
824.529	3119
824.669	3097
824.809	3211
824.949	3256
825.089	3176
825.228	3195
825.368	2986
825.508	2941
825.648	2982
825.787	3020
825.927	3055
826.067	2982
826.206	2998
826.346	3047
826.485	3097
826.625	3188
826.765	3264
826.904	3195
827.044	3036
827.183	2952
827.323	2880
827.462	3020
827.601	2922
827.741	2967
827.88	2990
828.02	2887
828.159	3009
828.298	3047
828.437	3119
828.577	3043
828.716	3256
828.855	3097
828.994	2960
829.134	2941
829.273	2960
829.412	2914
829.551	2891
829.69	2922
829.829	2994
829.968	3127
830.107	3070
830.246	3058
830.385	2941
830.524	2891
830.663	2830
830.802	2773
830.941	2667
831.08	2678
831.219	2811
831.357	2781
831.496	2967
831.635	2773
831.774	2678
831.913	2674
832.051	2598
832.19	2598
832.329	2689
832.467	2568
832.606	2518
832.744	2606
832.883	2594
833.022	2632
833.16	2689
833.299	2727
833.437	2754
833.576	2708
833.714	2796
833.852	2739
833.991	2826
834.129	2887
834.267	2857
834.406	2880
834.544	2925
834.682	2925
834.821	2910
834.959	3085
835.097	2967
835.235	3085
835.373	3051
835.511	3043
835.65	2998
835.788	2975
835.926	2864
836.064	2834
836.202	2823
836.34	3150
836.478	3199
836.615	3089
836.753	3176
836.891	3218
837.029	3199
837.167	3112
837.305	3112
837.443	3089
837.58	2998
837.718	3192
837.856	3100
837.993	3043
838.131	3157
838.269	3085
838.406	3119
838.544	3104
838.681	2971
838.819	2906
838.956	2842
839.094	2864
839.231	2956
839.369	3081
839.506	3409
839.643	3264
839.781	3032
839.918	2971
840.055	3066
840.193	3074
840.33	3070
840.467	3104
840.604	3165
840.742	3462
840.879	3093
841.016	3081
841.153	3108
841.29	3374
841.427	3332
841.564	3302
841.701	3336
841.838	3230
841.975	3203
842.112	3237
842.249	3100
842.385	3074
842.522	3249
842.659	3127
842.796	3112
842.933	3127
843.069	3062
843.206	3066
843.343	3180
843.479	3131
843.616	3142
843.752	2910
843.889	2891
844.025	3104
844.162	2937
844.298	3116
844.435	2971
844.571	2933
844.708	3081
844.844	3241
844.98	3249
845.117	3222
845.253	3089
845.389	3024
845.525	3138
845.661	3100
845.798	3028
845.934	3203
846.07	3058
846.206	3256
846.342	3336
846.478	3241
846.614	3135
846.75	3077
846.886	3081
847.022	3256
847.158	3184
847.294	3260
847.429	3283
847.565	3237
847.701	3488
847.837	3077
847.972	3051
848.108	3188
848.244	3157
848.379	3020
848.515	2982
848.65	2975
848.786	3024
848.921	3051
849.057	3131
849.192	3165
849.328	3081
849.463	3127
849.598	3066
849.734	3089
849.869	3055
850.004	2933
850.14	2994
850.275	2910
850.41	2868
850.545	2933
850.68	2979
850.815	2990
850.95	3005
851.085	3222
851.22	3127
851.355	3036
851.49	3028
851.625	3032
851.76	3009
851.895	2975
852.03	2922
852.165	3028
852.299	3157
852.434	3195
852.569	3150
852.703	3214
852.838	3268
852.973	3321
853.107	3348
853.242	3249
853.376	3112
853.511	2982
853.645	3089
853.78	3294
853.914	3138
854.048	3180
854.183	3123
854.317	3157
854.451	3325
854.585	3123
854.72	3131
854.854	3260
854.988	3066
855.122	3108
855.256	3024
855.39	3173
855.524	3256
855.658	3226
855.792	3184
855.926	3218
856.06	3233
856.194	3283
856.327	3165
856.461	3108
856.595	3142
856.729	3104
856.862	3256
856.996	3211
857.13	3222
857.263	3245
857.397	3272
857.53	3127
857.664	3207
857.797	3253
857.931	3245
858.064	3222
858.197	3226
858.331	3142
858.464	3119
858.597	3028
858.731	3157
858.864	3135
858.997	3104
859.13	3176
859.263	3230
859.396	3233
859.529	3085
859.662	3100
859.795	3051
859.928	3135
860.061	3275
860.194	3291
860.327	3161
860.46	3108
860.592	3256
860.725	3264
860.858	3253
860.99	3131
861.123	3070
861.256	3074
861.388	3165
861.521	3743
861.653	3062
861.786	3020
861.918	2994
862.05	3089
862.183	3104
862.315	3131
862.447	3245
862.58	3097
862.712	3001
862.844	2925
862.976	3024
863.108	3032
863.24	3359
863.372	2876
863.504	2990
863.636	2963
863.768	3047
863.9	2979
864.032	2956
864.164	2986
864.296	3005
864.428	3089
864.559	3142
864.691	3097
864.823	3062
864.954	3024
865.086	3051
865.217	3009
865.349	2982
865.48	3024
865.612	3032
865.743	3157
865.875	3055
866.006	2933
866.137	3005
866.269	2963
866.4	2971
866.531	2948
866.662	2925
866.793	2895
866.924	2922
867.055	2971
867.186	2952
867.317	2902
867.448	2891
867.579	2853
867.71	2872
867.841	2845
867.972	2941
868.103	2925
868.233	2891
868.364	2922
868.495	2941
868.625	3112
868.756	3180
868.886	2994
869.017	3024
869.147	3192
869.278	3188
869.408	3055
869.539	3058
869.669	3138
869.799	3081
869.929	3138
870.06	3123
870.19	3306
870.32	3306
870.45	3321
870.58	3397
870.71	3428
870.84	3507
870.97	3302
871.1	3249
871.23	3507
871.36	3450
871.489	3397
871.619	3405
871.749	3439
871.879	3462
872.008	3466
872.138	3397
872.267	3325
872.397	3161
872.526	3138
872.656	3017
872.785	3100
872.915	3230
873.044	3344
873.173	3283
873.303	3256
873.432	3218
873.561	3233
873.69	3161
873.819	3131
873.948	3195
874.077	3173
874.206	3020
874.335	3081
874.464	3230
874.593	3359
874.722	3279
874.851	3401
874.979	3355
875.108	3317
875.237	3211
875.365	3169
875.494	3161
875.623	3264
875.751	3097
875.88	3104
876.008	3195
876.136	3226
876.265	3374
876.393	3561
876.521	3420
876.65	3397
876.778	3355
876.906	3279
877.034	3211
877.162	3256
877.29	3188
877.418	3283
877.546	3313
877.674	3264
877.802	3268
877.93	3222
878.058	3169
878.185	3123
878.313	3192
878.441	3233
878.568	3093
878.696	3154
878.824	3256
878.951	3317
879.079	3450
879.206	3644
879.333	3412
879.461	3294
879.588	3348
879.715	3511
879.842	3606
879.97	3424
880.097	3207
880.224	3127
880.351	3188
880.478	3203
880.605	3173
880.732	3214
880.859	3500
880.986	3340
881.112	3336
881.239	3233
881.366	3047
881.493	3032
881.619	3043
881.746	3089
881.872	3112
881.999	3104
882.125	3169
882.252	3249
882.378	3294
882.505	3450
882.631	3294
882.757	3154
882.883	3245
883.01	3214
883.136	3192
883.262	3093
883.388	3157
883.514	3283
883.64	3363
883.766	3332
883.892	3214
884.018	3237
884.143	3424
884.269	3542
884.395	3241
884.52	3230
884.646	3180
884.772	3108
884.897	3138
885.023	3211
885.148	3313
885.274	3431
885.399	3397
885.524	3294
885.65	3283
885.775	3325
885.9	3317
886.025	3409
886.15	3367
886.275	3336
886.4	3237
886.525	3321
886.65	3287
886.775	3264
886.9	3534
887.025	3663
887.149	3443
887.274	3268
887.399	3214
887.523	3180
887.648	3195
887.773	3211
887.897	3389
888.021	3447
888.146	3294
888.27	3424
888.395	3530
888.519	3477
888.643	3435
888.767	3443
888.891	3351
889.015	3256
889.139	3332
889.263	3237
889.387	3405
889.511	3507
889.635	3443
889.759	3253
889.883	3294
890.006	3409
890.13	3428
890.254	3268
890.377	3363
890.501	3207
890.624	3192
890.748	3302
890.871	3184
890.995	3085
891.118	3077
891.241	3195
891.364	3237
891.488	3332
891.611	3195
891.734	3214
891.857	3272
891.98	3241
892.103	3302
892.226	3302
892.349	3249
892.471	3112
892.594	3233
892.717	3302
892.839	3256
892.962	3268
893.085	3355
893.207	3294
893.33	3154
893.452	3203
893.575	3332
893.697	3260
893.819	3454
893.941	3515
894.064	3443
894.186	3302
894.308	3313
894.43	3492
894.552	3606
894.674	3466
894.796	3245
894.918	3294
895.04	3283
895.161	3401
895.283	3424
895.405	3348
895.526	3374
895.648	3450
895.769	3424
895.891	3473
896.012	3496
896.134	3477
896.255	3439
896.376	3405
896.498	3367
896.619	3439
896.74	3340
896.861	3439
896.982	3656
897.103	3842
897.224	3564
897.345	3500
897.466	3450
897.587	3469
897.708	3629
897.828	3572
897.949	3466
898.07	3336
898.19	3420
898.311	3648
898.431	3477
898.552	3469
898.672	3599
898.792	3591
898.913	3507
899.033	3409
899.153	3283
899.273	3230
899.393	3291
899.513	3336
899.633	3321
899.753	3310
899.873	3325
899.993	3382
900.113	3332
900.232	3409
900.352	3329
900.472	3317
900.591	3180
900.711	3272
900.83	3230
900.95	3435
901.069	3466
901.189	3386
901.308	3184
901.427	3112
901.546	3169
901.665	3283
901.784	3344
901.904	3230
902.023	3180
902.141	3020
902.26	3001
902.379	3100
902.498	3062
902.617	3043
902.735	3230
902.854	3264
902.973	3214
903.091	3077
903.21	3058
903.328	3123
903.446	3157
903.565	3097
903.683	3226
903.801	3135
903.919	3260
904.038	3298
904.156	3188
904.274	3348
904.392	3222
904.51	3332
904.627	3329
904.745	3477
904.863	3519
904.981	3294
905.098	3195
905.216	3279
905.334	3329
905.451	3306
905.569	3348
905.686	3473
905.803	3477
905.921	3302
906.038	3504
906.155	3409
906.272	3306
906.389	3393
906.506	3260
906.623	3302
906.74	3332
906.857	3264
906.974	3294
907.091	3500
907.208	3599
907.324	3538
907.441	3416
907.557	3287
907.674	3291
907.79	3253
907.907	3325
908.023	3424
908.139	3412
908.256	3363
908.372	3447
908.488	3386
908.604	3344
908.72	3249
908.836	3332
908.952	3348
909.068	3363
909.184	3530
909.3	3431
909.415	3511
909.531	3519
909.647	3325
909.762	3325
909.878	3310
909.993	3416
910.108	3386
910.224	3412
910.339	3447
910.454	3348
910.57	3317
910.685	3283
910.8	3656
910.915	3637
911.03	3504
911.145	3302
911.259	3302
911.374	3344
911.489	3283
911.604	3214
911.718	3161
911.833	3218
911.947	3081
912.062	3039
912.176	3237
912.291	3241
912.405	3249
912.519	3485
912.633	3523
912.748	3386
912.862	3325
912.976	3188
913.09	3112
913.204	3195
913.318	3268
913.431	3363
913.545	3393
913.659	3462
913.772	3397
913.886	3291
914	3207
914.113	3389
914.226	3485
914.34	3435
914.453	3211
914.566	3454
914.68	3294
914.793	3389
914.906	3184
915.019	3154
915.132	3127
915.245	3233
915.358	3237
915.47	3233
915.583	3306
915.696	3348
915.809	3447
915.921	3469
916.034	3283
916.146	3310
916.259	3260
916.371	3450
916.483	3397
916.595	3317
916.708	3405
916.82	3367
916.932	3340
917.044	3409
917.156	3355
917.268	3268
917.38	3344
917.491	3302
917.603	3405
917.715	3504
917.826	3542
917.938	3431
918.049	3302
918.161	3397
918.272	3603
918.384	3610
918.495	3466
918.606	3374
918.717	3325
918.828	3416
918.939	3466
919.05	3355
919.161	3405
919.272	3211
919.383	3302
919.494	3519
919.604	3701
919.715	3500
919.826	3439
919.936	3500
920.047	3637
920.157	3587
920.267	3808
920.378	3622
920.488	3591
920.598	3808
920.708	3968
920.818	3812
920.928	3850
921.038	4109
921.148	4044
921.258	3751
921.368	3660
921.477	3610
921.587	3587
921.697	3515
921.806	3648
921.916	3561
922.025	3401
922.134	3405
922.244	3340
922.353	3492
922.462	3291
922.571	3245
922.68	3161
922.789	3116
922.898	3157
923.007	3146
923.116	3256
923.224	3176
923.333	3233
923.442	3116
923.55	3131
923.659	3161
923.767	3256
923.876	3173
923.984	3275
924.092	3173
924.201	3275
924.309	3214
924.417	3321
924.525	3253
924.633	3241
924.741	4048
924.849	3104
924.956	3291
925.064	3150
925.172	3070
925.279	3093
925.387	3211
925.494	3233
925.602	3428
925.709	3401
925.816	3245
925.924	3321
926.031	3428
926.138	3370
926.245	3332
926.352	3264
926.459	3401
926.566	3530
926.673	3374
926.779	3287
926.886	3241
926.993	3180
927.099	3169
927.206	3157
927.312	3138
927.419	3233
927.525	3195
927.631	3310
927.737	3195
927.843	3138
927.95	3070
928.056	3138
928.162	3192
928.267	3283
928.373	3857
928.479	3313
928.585	3097
928.69	3241
928.796	3279
928.901	3207
929.007	3112
929.112	3218
929.218	3211
929.323	3211
929.428	3199
929.533	3340
929.638	3146
929.743	3211
929.848	3291
929.953	3245
930.058	3176
930.163	2994
930.267	3062
930.372	3211
930.477	3089
930.581	3351
930.685	3199
930.79	3081
930.894	3180
930.998	3119
931.103	3272
931.207	2975
931.311	2952
931.415	2929
931.519	2834
931.623	2891
