Data from test_V78500241_1117.txt Node
Date: Fri Mar 25 16:22:56 CST 2022
User: usil
Spectrometer: V785-0024
Trigger mode: 0
Integration Time (sec): 4.000000E-1
Scans to average: 1
Nonlinearity correction enabled: false
Boxcar width: 0
Storing dark spectrum: false
XAxis mode: Wavelengths
Number of Pixels in Spectrum: 1024
>>>>>Begin Spectral Data<<<<<
801.071	2891
801.214	2952
801.356	2826
801.499	2887
801.641	2895
801.783	2937
801.926	3001
802.068	3001
802.211	3013
802.353	3017
802.496	2979
802.638	3039
802.78	3028
802.923	3066
803.065	2994
803.208	2906
803.35	2929
803.492	2925
803.635	2933
803.777	2773
803.919	2868
804.061	3173
804.204	2933
804.346	2891
804.488	2826
804.63	2986
804.773	2895
804.915	2902
805.057	3100
805.199	2937
805.341	2982
805.483	3036
805.626	3017
805.768	2963
805.91	3058
806.052	3097
806.194	3047
806.336	3207
806.478	3001
806.62	2948
806.762	2956
806.904	3055
807.046	3127
807.188	2979
807.33	2895
807.472	2960
807.614	2910
807.756	3001
807.898	2906
808.04	2883
808.182	2960
808.324	2967
808.465	2834
808.607	2895
808.749	2788
808.891	2857
809.033	2944
809.174	2948
809.316	2925
809.458	2864
809.6	2762
809.741	2773
809.883	2743
810.025	2830
810.166	2857
810.308	2845
810.45	2834
810.591	2758
810.733	2781
810.875	2830
811.016	2769
811.158	2769
811.299	2838
811.441	2975
811.582	2918
811.724	2819
811.865	2830
812.007	2910
812.148	2906
812.29	2842
812.431	2883
812.573	2944
812.714	2986
812.855	3047
812.997	3066
813.138	3097
813.279	3020
813.421	2960
813.562	2956
813.703	2876
813.845	2868
813.986	2807
814.127	2750
814.268	2823
814.41	2815
814.551	2792
814.692	2895
814.833	2815
814.974	2891
815.115	2929
815.256	2861
815.397	2815
815.539	2849
815.68	2766
815.821	2773
815.962	2941
816.103	2906
816.244	2834
816.385	2864
816.526	2979
816.666	2910
816.807	2731
816.948	2906
817.089	2910
817.23	2842
817.371	2781
817.512	2781
817.653	2845
817.793	2788
817.934	2910
818.075	2986
818.216	3020
818.356	3036
818.497	2929
818.638	2766
818.778	2796
818.919	2758
819.06	2735
819.2	2883
819.341	2792
819.481	2796
819.622	2914
819.762	3123
819.903	3081
820.043	2914
820.184	2918
820.324	2895
820.465	3017
820.605	3009
820.746	3024
820.886	2941
821.026	3127
821.167	3138
821.307	3222
821.447	3214
821.588	3230
821.728	3195
821.868	3169
822.008	3081
822.149	3165
822.289	3245
822.429	3108
822.569	3077
822.709	3188
822.849	3043
822.99	3081
823.13	3150
823.27	3176
823.41	3108
823.55	3138
823.69	3123
823.83	3157
823.97	3104
824.11	2994
824.25	3024
824.389	3062
824.529	3104
824.669	3108
824.809	3199
824.949	3264
825.089	3203
825.228	3192
825.368	2994
825.508	2975
825.648	2956
825.787	3005
825.927	3009
826.067	2944
826.206	2967
826.346	3039
826.485	3036
826.625	3119
826.765	3233
826.904	3207
827.044	2975
827.183	2952
827.323	2868
827.462	2994
827.601	2906
827.741	2948
827.88	2952
828.02	2849
828.159	2979
828.298	3051
828.437	3104
828.577	3039
828.716	3260
828.855	3093
828.994	2918
829.134	2887
829.273	2925
829.412	2842
829.551	2861
829.69	2868
829.829	2990
829.968	3104
830.107	3005
830.246	3036
830.385	2941
830.524	2845
830.663	2796
830.802	2750
830.941	2617
831.08	2636
831.219	2739
831.357	2735
831.496	2937
831.635	2739
831.774	2693
831.913	2651
832.051	2530
832.19	2602
832.329	2663
832.467	2518
832.606	2473
832.744	2579
832.883	2613
833.022	2575
833.16	2667
833.299	2682
833.437	2701
833.576	2663
833.714	2655
833.852	2716
833.991	2724
834.129	2815
834.267	2842
834.406	2788
834.544	2868
834.682	2834
834.821	2861
834.959	3020
835.097	2902
835.235	3039
835.373	2975
835.511	2979
835.65	2941
835.788	2960
835.926	2785
836.064	2800
836.202	2872
836.34	3093
836.478	3135
836.615	3036
836.753	3123
836.891	3173
837.029	3165
837.167	3093
837.305	3089
837.443	3051
837.58	2948
837.718	3100
837.856	3077
837.993	3009
838.131	3135
838.269	3089
838.406	3089
838.544	3047
838.681	2937
838.819	2883
838.956	2800
839.094	2842
839.231	2887
839.369	3005
839.506	3355
839.643	3180
839.781	2998
839.918	2948
840.055	3020
840.193	3036
840.33	3074
840.467	3085
840.604	3116
840.742	3386
840.879	3077
841.016	3028
841.153	3123
841.29	3329
841.427	3279
841.564	3237
841.701	3310
841.838	3195
841.975	3157
842.112	3218
842.249	3085
842.385	3024
842.522	3256
842.659	3089
842.796	3036
842.933	3104
843.069	2998
843.206	3020
843.343	3157
843.479	3097
843.616	3142
843.752	2895
843.889	2853
844.025	3085
844.162	2895
844.298	3058
844.435	2918
844.571	2941
844.708	3081
844.844	3165
844.98	3211
845.117	3161
845.253	3058
845.389	3017
845.525	3119
845.661	3093
845.798	2982
845.934	3112
846.07	3062
846.206	3195
846.342	3310
846.478	3188
846.614	3062
846.75	3055
846.886	3024
847.022	3222
847.158	3135
847.294	3207
847.429	3218
847.565	3203
847.701	3477
847.837	3062
847.972	3020
848.108	3135
848.244	3108
848.379	2986
848.515	2937
848.65	2941
848.786	2990
848.921	2994
849.057	3108
849.192	3165
849.328	3058
849.463	3085
849.598	3036
849.734	3055
849.869	2944
850.004	2910
850.14	2956
850.275	2880
850.41	2857
850.545	2895
850.68	2929
850.815	2952
850.95	2944
851.085	3211
851.22	3093
851.355	3024
851.49	2975
851.625	2986
851.76	3009
851.895	2880
852.03	2925
852.165	3043
852.299	3131
852.434	3199
852.569	3104
852.703	3173
852.838	3249
852.973	3336
853.107	3306
853.242	3131
853.376	3074
853.511	2960
853.645	3028
853.78	3218
853.914	3097
854.048	3112
854.183	3100
854.317	3142
854.451	3279
854.585	3135
854.72	3066
854.854	3195
854.988	3066
855.122	3108
855.256	2941
855.39	3108
855.524	3222
855.658	3169
855.792	3131
855.926	3146
856.06	3211
856.194	3283
856.327	3123
856.461	3043
856.595	3077
856.729	3112
856.862	3245
856.996	3154
857.13	3188
857.263	3226
857.397	3233
857.53	3131
857.664	3161
857.797	3199
857.931	3253
858.064	3176
858.197	3214
858.331	3154
858.464	3093
858.597	2971
858.731	3097
858.864	3142
858.997	3085
859.13	3173
859.263	3146
859.396	3195
859.529	3070
859.662	3058
859.795	3039
859.928	3142
860.061	3310
860.194	3283
860.327	3146
860.46	3112
860.592	3222
860.725	3237
860.858	3268
860.99	3119
861.123	3043
861.256	3047
861.388	3123
861.521	3682
861.653	3017
861.786	2986
861.918	2986
862.05	3077
862.183	3066
862.315	3161
862.447	3241
862.58	3055
862.712	2979
862.844	2883
862.976	3020
863.108	2963
863.24	3317
863.372	2845
863.504	2944
863.636	2937
863.768	3043
863.9	3043
864.032	2925
864.164	2941
864.296	3001
864.428	3043
864.559	3108
864.691	3055
864.823	3070
864.954	2986
865.086	3036
865.217	2990
865.349	2918
865.48	2963
865.612	2994
865.743	3150
865.875	2975
866.006	2941
866.137	2971
866.269	2895
866.4	2910
866.531	2933
866.662	2891
866.793	2872
866.924	2929
867.055	2929
867.186	2910
867.317	2887
867.448	2868
867.579	2845
867.71	2868
867.841	2788
867.972	2891
868.103	2891
868.233	2826
868.364	2887
868.495	2857
868.625	3051
868.756	3138
868.886	2960
869.017	3051
869.147	3146
869.278	3154
869.408	3051
869.539	2998
869.669	3074
869.799	3024
869.929	3135
870.06	3112
870.19	3325
870.32	3230
870.45	3302
870.58	3348
870.71	3412
870.84	3412
870.97	3306
871.1	3199
871.23	3469
871.36	3473
871.489	3374
871.619	3359
871.749	3386
871.879	3469
872.008	3473
872.138	3370
872.267	3279
872.397	3119
872.526	3070
872.656	2998
872.785	3089
872.915	3214
873.044	3294
873.173	3195
873.303	3233
873.432	3226
873.561	3245
873.69	3131
873.819	3116
873.948	3207
874.077	3089
874.206	3017
874.335	3104
874.464	3195
874.593	3367
874.722	3241
874.851	3397
874.979	3386
875.108	3348
875.237	3180
875.365	3188
875.494	3135
875.623	3237
875.751	3066
875.88	3135
876.008	3195
876.136	3199
876.265	3344
876.393	3458
876.521	3397
876.65	3382
876.778	3332
876.906	3230
877.034	3188
877.162	3218
877.29	3184
877.418	3256
877.546	3264
877.674	3237
877.802	3214
877.93	3211
878.058	3138
878.185	3097
878.313	3214
878.441	3237
878.568	3070
878.696	3146
878.824	3245
878.951	3268
879.079	3420
879.206	3637
879.333	3405
879.461	3291
879.588	3317
879.715	3458
879.842	3606
879.97	3397
880.097	3165
880.224	3123
880.351	3138
880.478	3241
880.605	3173
880.732	3180
880.859	3504
880.986	3256
881.112	3336
881.239	3169
881.366	3108
881.493	3024
881.619	3001
881.746	3051
881.872	3085
881.999	3051
882.125	3108
882.252	3237
882.378	3253
882.505	3443
882.631	3287
882.757	3169
882.883	3211
883.01	3245
883.136	3138
883.262	3085
883.388	3127
883.514	3317
883.64	3389
883.766	3272
883.892	3176
884.018	3256
884.143	3428
884.269	3526
884.395	3218
884.52	3119
884.646	3184
884.772	3169
884.897	3131
885.023	3230
885.148	3363
885.274	3405
885.399	3332
885.524	3272
885.65	3279
885.775	3272
885.9	3256
886.025	3466
886.15	3386
886.275	3233
886.4	3283
886.525	3313
886.65	3245
886.775	3294
886.9	3504
887.025	3595
887.149	3386
887.274	3207
887.399	3173
887.523	3214
887.648	3173
887.773	3207
887.897	3374
888.021	3367
888.146	3275
888.27	3431
888.395	3504
888.519	3458
888.643	3424
888.767	3492
888.891	3310
889.015	3272
889.139	3272
889.263	3275
889.387	3416
889.511	3485
889.635	3458
889.759	3321
889.883	3298
890.006	3382
890.13	3519
890.254	3260
890.377	3355
890.501	3180
890.624	3150
890.748	3317
890.871	3176
890.995	3112
891.118	3074
891.241	3165
891.364	3237
891.488	3298
891.611	3199
891.734	3184
891.857	3283
891.98	3241
892.103	3313
892.226	3275
892.349	3230
892.471	3138
892.594	3249
892.717	3275
892.839	3230
892.962	3291
893.085	3329
893.207	3294
893.33	3116
893.452	3207
893.575	3340
893.697	3256
893.819	3439
893.941	3538
894.064	3412
894.186	3237
894.308	3256
894.43	3447
894.552	3523
894.674	3454
894.796	3294
894.918	3253
895.04	3272
895.161	3424
895.283	3389
895.405	3321
895.526	3374
895.648	3409
895.769	3409
895.891	3462
896.012	3485
896.134	3454
896.255	3412
896.376	3363
896.498	3359
896.619	3416
896.74	3397
896.861	3367
896.982	3682
897.103	3800
897.224	3618
897.345	3500
897.466	3469
897.587	3507
897.708	3606
897.828	3576
897.949	3454
898.07	3283
898.19	3431
898.311	3606
898.431	3424
898.552	3458
898.672	3561
898.792	3599
898.913	3511
899.033	3416
899.153	3306
899.273	3195
899.393	3256
899.513	3287
899.633	3344
899.753	3306
899.873	3321
899.993	3401
900.113	3313
900.232	3370
900.352	3386
900.472	3298
900.591	3199
900.711	3291
900.83	3253
900.95	3450
901.069	3458
901.189	3389
901.308	3192
901.427	3097
901.546	3176
901.665	3283
901.784	3287
901.904	3207
902.023	3089
902.141	3039
902.26	2994
902.379	3077
902.498	3077
902.617	3070
902.735	3188
902.854	3207
902.973	3195
903.091	3039
903.21	3085
903.328	3150
903.446	3097
903.565	3104
903.683	3218
903.801	3135
903.919	3241
904.038	3317
904.156	3176
904.274	3298
904.392	3260
904.51	3310
904.627	3351
904.745	3424
904.863	3466
904.981	3253
905.098	3211
905.216	3218
905.334	3279
905.451	3272
905.569	3313
905.686	3367
905.803	3416
905.921	3298
906.038	3424
906.155	3348
906.272	3256
906.389	3329
906.506	3233
906.623	3230
906.74	3264
906.857	3154
906.974	3268
907.091	3469
907.208	3545
907.324	3473
907.441	3401
907.557	3245
907.674	3222
907.79	3173
907.907	3268
908.023	3397
908.139	3367
908.256	3317
908.372	3378
908.488	3317
908.604	3264
908.72	3272
908.836	3310
908.952	3245
909.068	3344
909.184	3492
909.3	3336
909.415	3477
909.531	3450
909.647	3306
909.762	3256
909.878	3256
909.993	3363
910.108	3336
910.224	3355
910.339	3389
910.454	3336
910.57	3268
910.685	3253
910.8	3564
910.915	3538
911.03	3424
911.145	3218
911.259	3268
911.374	3332
911.489	3241
911.604	3226
911.718	3108
911.833	3138
911.947	2990
912.062	2990
912.176	3188
912.291	3249
912.405	3226
912.519	3454
912.633	3450
912.748	3340
912.862	3272
912.976	3184
913.09	3020
913.204	3131
913.318	3214
913.431	3340
913.545	3287
913.659	3458
913.772	3355
913.886	3214
914	3165
914.113	3351
914.226	3416
914.34	3355
914.453	3226
914.566	3382
914.68	3302
914.793	3332
914.906	3112
915.019	3112
915.132	3074
915.245	3173
915.358	3226
915.47	3214
915.583	3249
915.696	3287
915.809	3397
915.921	3431
916.034	3272
916.146	3294
916.259	3249
916.371	3355
916.483	3370
916.595	3294
916.708	3329
916.82	3355
916.932	3344
917.044	3359
917.156	3332
917.268	3256
917.38	3264
917.491	3256
917.603	3389
917.715	3450
917.826	3485
917.938	3351
918.049	3294
918.161	3447
918.272	3580
918.384	3599
918.495	3481
918.606	3325
918.717	3283
918.828	3367
918.939	3454
919.05	3310
919.161	3336
919.272	3173
919.383	3237
919.494	3466
919.604	3644
919.715	3469
919.826	3389
919.936	3428
920.047	3603
920.157	3549
920.267	3682
920.378	3610
920.488	3568
920.598	3800
920.708	3972
920.818	3816
920.928	3785
921.038	3998
921.148	3983
921.258	3679
921.368	3610
921.477	3599
921.587	3572
921.697	3454
921.806	3660
921.916	3515
922.025	3348
922.134	3355
922.244	3348
922.353	3439
922.462	3256
922.571	3211
922.68	3100
922.789	3085
922.898	3131
923.007	3077
923.116	3211
923.224	3180
923.333	3195
923.442	3108
923.55	3058
923.659	3157
923.767	3241
923.876	3131
923.984	3237
924.092	3100
924.201	3192
924.309	3169
924.417	3245
924.525	3165
924.633	3214
924.741	4032
924.849	3017
924.956	3306
925.064	3138
925.172	3047
925.279	3135
925.387	3192
925.494	3184
925.602	3332
925.709	3306
925.816	3184
925.924	3302
926.031	3355
926.138	3321
926.245	3332
926.352	3241
926.459	3397
926.566	3500
926.673	3310
926.779	3241
926.886	3260
926.993	3142
927.099	3127
927.206	3112
927.312	3089
927.419	3256
927.525	3180
927.631	3272
927.737	3142
927.843	3119
927.95	3036
928.056	3116
928.162	3150
928.267	3291
928.373	3854
928.479	3336
928.585	3093
928.69	3226
928.796	3233
928.901	3161
929.007	3036
929.112	3176
929.218	3161
929.323	3131
929.428	3169
929.533	3310
929.638	3127
929.743	3146
929.848	3256
929.953	3211
930.058	3169
930.163	2967
930.267	3017
930.372	3188
930.477	3047
930.581	3325
930.685	3161
930.79	3089
930.894	3112
930.998	3097
931.103	3272
931.207	2952
931.311	2914
931.415	2956
931.519	2781
931.623	2811
