Data from test_V78500241_1312.txt Node
Date: Fri Mar 25 16:24:17 CST 2022
User: usil
Spectrometer: V785-0024
Trigger mode: 0
Integration Time (sec): 4.000000E-1
Scans to average: 1
Nonlinearity correction enabled: false
Boxcar width: 0
Storing dark spectrum: false
XAxis mode: Wavelengths
Number of Pixels in Spectrum: 1024
>>>>>Begin Spectral Data<<<<<
801.071	2937
801.214	2948
801.356	2895
801.499	2914
801.641	2883
801.783	2933
801.926	3013
802.068	2948
802.211	3032
802.353	3058
802.496	2982
802.638	2982
802.78	3024
802.923	3093
803.065	3028
803.208	2872
803.35	2918
803.492	2937
803.635	2929
803.777	2754
803.919	2861
804.061	3207
804.204	2948
804.346	2902
804.488	2834
804.63	2963
804.773	2868
804.915	2895
805.057	3032
805.199	2925
805.341	2956
805.483	3066
805.626	3005
805.768	2929
805.91	3085
806.052	3097
806.194	3017
806.336	3237
806.478	3017
806.62	2941
806.762	2963
806.904	3062
807.046	3222
807.188	2994
807.33	2895
807.472	2975
807.614	2887
807.756	2994
807.898	2944
808.04	2887
808.182	2967
808.324	2979
808.465	2861
808.607	2861
808.749	2800
808.891	2842
809.033	2986
809.174	2937
809.316	2899
809.458	2895
809.6	2762
809.741	2750
809.883	2731
810.025	2849
810.166	2883
810.308	2819
810.45	2853
810.591	2769
810.733	2731
810.875	2830
811.016	2739
811.158	2735
811.299	2785
811.441	2925
811.582	2864
811.724	2830
811.865	2807
812.007	2918
812.148	2861
812.29	2902
812.431	2864
812.573	2929
812.714	2937
812.855	3043
812.997	3047
813.138	3097
813.279	3013
813.421	2967
813.562	2948
813.703	2864
813.845	2887
813.986	2762
814.127	2720
814.268	2811
814.41	2830
814.551	2857
814.692	2872
814.833	2819
814.974	2872
815.115	2971
815.256	2838
815.397	2826
815.539	2834
815.68	2796
815.821	2781
815.962	2952
816.103	2918
816.244	2853
816.385	2891
816.526	2956
816.666	2902
816.807	2746
816.948	2883
817.089	2918
817.23	2819
817.371	2788
817.512	2762
817.653	2845
817.793	2861
817.934	2883
818.075	2960
818.216	2967
818.356	3024
818.497	2853
818.638	2769
818.778	2777
818.919	2769
819.06	2743
819.2	2826
819.341	2800
819.481	2796
819.622	2918
819.762	3119
819.903	3009
820.043	2910
820.184	2910
820.324	2880
820.465	3024
820.605	2971
820.746	3001
820.886	2941
821.026	3077
821.167	3154
821.307	3253
821.447	3245
821.588	3214
821.728	3203
821.868	3157
822.008	3058
822.149	3161
822.289	3249
822.429	3070
822.569	3070
822.709	3176
822.849	3009
822.99	3062
823.13	3169
823.27	3154
823.41	3100
823.55	3142
823.69	3169
823.83	3203
823.97	3093
824.11	2990
824.25	3005
824.389	3085
824.529	3123
824.669	3077
824.809	3188
824.949	3233
825.089	3199
825.228	3169
825.368	2990
825.508	2937
825.648	2994
825.787	3020
825.927	3020
826.067	2941
826.206	2986
826.346	3032
826.485	3081
826.625	3100
826.765	3272
826.904	3180
827.044	2986
827.183	2918
827.323	2838
827.462	2960
827.601	2933
827.741	2910
827.88	2952
828.02	2857
828.159	2982
828.298	3013
828.437	3112
828.577	2994
828.716	3256
828.855	3070
828.994	2914
829.134	2895
829.273	2906
829.412	2815
829.551	2834
829.69	2872
829.829	2975
829.968	3112
830.107	2990
830.246	2986
830.385	2941
830.524	2845
830.663	2826
830.802	2735
830.941	2644
831.08	2655
831.219	2758
831.357	2750
831.496	2929
831.635	2705
831.774	2651
831.913	2648
832.051	2518
832.19	2594
832.329	2716
832.467	2526
832.606	2488
832.744	2583
832.883	2602
833.022	2590
833.16	2621
833.299	2640
833.437	2659
833.576	2659
833.714	2686
833.852	2735
833.991	2708
834.129	2811
834.267	2842
834.406	2815
834.544	2895
834.682	2895
834.821	2830
834.959	3013
835.097	2883
835.235	3036
835.373	2982
835.511	3028
835.65	2963
835.788	2937
835.926	2819
836.064	2781
836.202	2838
836.34	3039
836.478	3123
836.615	3028
836.753	3097
836.891	3203
837.029	3192
837.167	3093
837.305	3058
837.443	3039
837.58	2979
837.718	3093
837.856	3062
837.993	3062
838.131	3131
838.269	3104
838.406	3066
838.544	3062
838.681	2933
838.819	2899
838.956	2792
839.094	2834
839.231	2937
839.369	2971
839.506	3363
839.643	3180
839.781	3001
839.918	2963
840.055	3085
840.193	3051
840.33	3070
840.467	3104
840.604	3169
840.742	3397
840.879	2998
841.016	3039
841.153	3116
841.29	3321
841.427	3283
841.564	3264
841.701	3340
841.838	3253
841.975	3157
842.112	3214
842.249	3089
842.385	2998
842.522	3207
842.659	3074
842.796	3028
842.933	3112
843.069	3024
843.206	3005
843.343	3154
843.479	3097
843.616	3108
843.752	2864
843.889	2876
844.025	3051
844.162	2861
844.298	3074
844.435	2956
844.571	2952
844.708	3062
844.844	3173
844.98	3226
845.117	3176
845.253	3047
845.389	2994
845.525	3104
845.661	3074
845.798	3020
845.934	3150
846.07	3058
846.206	3218
846.342	3298
846.478	3176
846.614	3074
846.75	3028
846.886	3005
847.022	3253
847.158	3150
847.294	3180
847.429	3207
847.565	3192
847.701	3462
847.837	3036
847.972	3020
848.108	3184
848.244	3123
848.379	2994
848.515	2918
848.65	2925
848.786	2941
848.921	2986
849.057	3093
849.192	3131
849.328	3089
849.463	3097
849.598	3062
849.734	3039
849.869	2982
850.004	2864
850.14	2937
850.275	2914
850.41	2826
850.545	2849
850.68	2929
850.815	2948
850.95	2944
851.085	3142
851.22	3116
851.355	3013
851.49	2941
851.625	3005
851.76	3036
851.895	2887
852.03	2876
852.165	3013
852.299	3135
852.434	3176
852.569	3142
852.703	3192
852.838	3260
852.973	3317
853.107	3313
853.242	3127
853.376	3032
853.511	2956
853.645	3058
853.78	3195
853.914	3154
854.048	3116
854.183	3089
854.317	3123
854.451	3249
854.585	3161
854.72	3066
854.854	3157
854.988	3097
855.122	3055
855.256	2971
855.39	3131
855.524	3214
855.658	3176
855.792	3131
855.926	3180
856.06	3218
856.194	3317
856.327	3173
856.461	3089
856.595	3100
856.729	3100
856.862	3203
856.996	3142
857.13	3180
857.263	3222
857.397	3260
857.53	3085
857.664	3218
857.797	3218
857.931	3237
858.064	3146
858.197	3218
858.331	3116
858.464	3062
858.597	3005
858.731	3104
858.864	3150
858.997	3077
859.13	3131
859.263	3180
859.396	3199
859.529	3089
859.662	3043
859.795	3009
859.928	3089
860.061	3245
860.194	3264
860.327	3112
860.46	3089
860.592	3218
860.725	3233
860.858	3249
860.99	3100
861.123	3047
861.256	3070
861.388	3154
861.521	3701
861.653	3013
861.786	2979
861.918	3005
862.05	3039
862.183	3100
862.315	3116
862.447	3180
862.58	3058
862.712	2929
862.844	2883
862.976	3005
863.108	3020
863.24	3298
863.372	2868
863.504	2963
863.636	2929
863.768	3028
863.9	2925
864.032	2876
864.164	2918
864.296	3051
864.428	3058
864.559	3081
864.691	3017
864.823	3024
864.954	3032
865.086	3055
865.217	2986
865.349	2963
865.48	2960
865.612	3013
865.743	3135
865.875	2994
866.006	2971
866.137	2975
866.269	2914
866.4	2929
866.531	2933
866.662	2876
866.793	2891
866.924	2906
867.055	2933
867.186	2910
867.317	2883
867.448	2830
867.579	2849
867.71	2834
867.841	2792
867.972	2891
868.103	2918
868.233	2899
868.364	2849
868.495	2872
868.625	3032
868.756	3154
868.886	2944
869.017	2998
869.147	3146
869.278	3154
869.408	3039
869.539	3028
869.669	3085
869.799	3047
869.929	3119
870.06	3074
870.19	3336
870.32	3283
870.45	3291
870.58	3351
870.71	3435
870.84	3473
870.97	3298
871.1	3264
871.23	3481
871.36	3447
871.489	3332
871.619	3424
871.749	3397
871.879	3420
872.008	3469
872.138	3378
872.267	3245
872.397	3173
872.526	3108
872.656	3032
872.785	3066
872.915	3249
873.044	3340
873.173	3203
873.303	3226
873.432	3226
873.561	3218
873.69	3173
873.819	3165
873.948	3195
874.077	3093
874.206	3047
874.335	3047
874.464	3192
874.593	3298
874.722	3218
874.851	3378
874.979	3325
875.108	3321
875.237	3180
875.365	3138
875.494	3169
875.623	3233
875.751	3097
875.88	3116
876.008	3176
876.136	3230
876.265	3355
876.393	3458
876.521	3409
876.65	3355
876.778	3348
876.906	3264
877.034	3207
877.162	3249
877.29	3119
877.418	3249
877.546	3245
877.674	3230
877.802	3237
877.93	3245
878.058	3135
878.185	3066
878.313	3169
878.441	3176
878.568	3070
878.696	3165
878.824	3245
878.951	3321
879.079	3469
879.206	3557
879.333	3462
879.461	3321
879.588	3329
879.715	3485
879.842	3606
879.97	3294
880.097	3146
880.224	3112
880.351	3161
880.478	3230
880.605	3176
880.732	3157
880.859	3507
880.986	3275
881.112	3336
881.239	3154
881.366	3077
881.493	3032
881.619	3009
881.746	3074
881.872	3077
881.999	3104
882.125	3154
882.252	3195
882.378	3310
882.505	3393
882.631	3275
882.757	3161
882.883	3184
883.01	3211
883.136	3154
883.262	3108
883.388	3100
883.514	3313
883.64	3340
883.766	3287
883.892	3150
884.018	3211
884.143	3405
884.269	3511
884.395	3169
884.52	3150
884.646	3195
884.772	3127
884.897	3104
885.023	3184
885.148	3268
885.274	3405
885.399	3348
885.524	3249
885.65	3283
885.775	3302
885.9	3283
886.025	3348
886.15	3386
886.275	3306
886.4	3203
886.525	3275
886.65	3260
886.775	3256
886.9	3511
887.025	3641
887.149	3409
887.274	3249
887.399	3138
887.523	3173
887.648	3214
887.773	3199
887.897	3386
888.021	3412
888.146	3298
888.27	3450
888.395	3515
888.519	3485
888.643	3420
888.767	3428
888.891	3317
889.015	3245
889.139	3291
889.263	3233
889.387	3424
889.511	3515
889.635	3439
889.759	3279
889.883	3279
890.006	3389
890.13	3450
890.254	3264
890.377	3344
890.501	3188
890.624	3188
890.748	3306
890.871	3188
890.995	3108
891.118	3097
891.241	3211
891.364	3203
891.488	3317
891.611	3157
891.734	3207
891.857	3306
891.98	3199
892.103	3302
892.226	3256
892.349	3199
892.471	3108
892.594	3237
892.717	3291
892.839	3272
892.962	3279
893.085	3294
893.207	3298
893.33	3112
893.452	3214
893.575	3294
893.697	3237
893.819	3443
893.941	3473
894.064	3393
894.186	3260
894.308	3264
894.43	3393
894.552	3500
894.674	3439
894.796	3298
894.918	3287
895.04	3291
895.161	3462
895.283	3363
895.405	3268
895.526	3329
895.648	3401
895.769	3378
895.891	3393
896.012	3466
896.134	3469
896.255	3428
896.376	3367
896.498	3348
896.619	3435
896.74	3355
896.861	3370
896.982	3682
897.103	3854
897.224	3576
897.345	3488
897.466	3405
897.587	3458
897.708	3633
897.828	3530
897.949	3439
898.07	3313
898.19	3412
898.311	3580
898.431	3420
898.552	3511
898.672	3603
898.792	3568
898.913	3504
899.033	3389
899.153	3298
899.273	3207
899.393	3294
899.513	3279
899.633	3294
899.753	3313
899.873	3306
899.993	3367
900.113	3329
900.232	3344
900.352	3348
900.472	3279
900.591	3207
900.711	3294
900.83	3214
900.95	3378
901.069	3466
901.189	3359
901.308	3173
901.427	3127
901.546	3214
901.665	3298
901.784	3336
901.904	3222
902.023	3123
902.141	3013
902.26	2990
902.379	3100
902.498	3081
902.617	3051
902.735	3199
902.854	3207
902.973	3169
903.091	3001
903.21	3043
903.328	3123
903.446	3081
903.565	3131
903.683	3207
903.801	3123
903.919	3233
904.038	3279
904.156	3161
904.274	3268
904.392	3264
904.51	3253
904.627	3348
904.745	3424
904.863	3466
904.981	3249
905.098	3146
905.216	3230
905.334	3283
905.451	3294
905.569	3253
905.686	3401
905.803	3458
905.921	3272
906.038	3416
906.155	3363
906.272	3287
906.389	3329
906.506	3218
906.623	3237
906.74	3268
906.857	3207
906.974	3233
907.091	3462
907.208	3576
907.324	3466
907.441	3405
907.557	3249
907.674	3230
907.79	3184
907.907	3260
908.023	3382
908.139	3389
908.256	3302
908.372	3344
908.488	3367
908.604	3275
908.72	3211
908.836	3241
908.952	3253
909.068	3359
909.184	3481
909.3	3374
909.415	3485
909.531	3466
909.647	3275
909.762	3245
909.878	3249
909.993	3325
910.108	3317
910.224	3382
910.339	3351
910.454	3332
910.57	3283
910.685	3203
910.8	3584
910.915	3538
911.03	3393
911.145	3321
911.259	3237
911.374	3332
911.489	3226
911.604	3192
911.718	3055
911.833	3123
911.947	2998
912.062	2986
912.176	3146
912.291	3199
912.405	3192
912.519	3443
912.633	3431
912.748	3317
912.862	3256
912.976	3161
913.09	3070
913.204	3119
913.318	3154
913.431	3313
913.545	3321
913.659	3428
913.772	3351
913.886	3165
914	3176
914.113	3355
914.226	3428
914.34	3420
914.453	3218
914.566	3393
914.68	3283
914.793	3336
914.906	3135
915.019	3097
915.132	3066
915.245	3146
915.358	3169
915.47	3207
915.583	3256
915.696	3294
915.809	3428
915.921	3367
916.034	3230
916.146	3214
916.259	3211
916.371	3359
916.483	3363
916.595	3237
916.708	3310
916.82	3332
916.932	3298
917.044	3367
917.156	3275
917.268	3268
917.38	3291
917.491	3275
917.603	3321
917.715	3382
917.826	3450
917.938	3340
918.049	3291
918.161	3447
918.272	3561
918.384	3561
918.495	3447
918.606	3325
918.717	3264
918.828	3363
918.939	3428
919.05	3332
919.161	3367
919.272	3211
919.383	3279
919.494	3526
919.604	3671
919.715	3500
919.826	3389
919.936	3439
920.047	3580
920.157	3584
920.267	3785
920.378	3564
920.488	3584
920.598	3793
920.708	3964
920.818	3762
920.928	3857
921.038	4002
921.148	4021
921.258	3701
921.368	3629
921.477	3625
921.587	3542
921.697	3462
921.806	3667
921.916	3549
922.025	3397
922.134	3386
922.244	3313
922.353	3431
922.462	3317
922.571	3275
922.68	3104
922.789	3146
922.898	3180
923.007	3157
923.116	3241
923.224	3245
923.333	3211
923.442	3116
923.55	3138
923.659	3173
923.767	3260
923.876	3169
923.984	3264
924.092	3161
924.201	3218
924.309	3279
924.417	3268
924.525	3233
924.633	3279
924.741	4048
924.849	3066
924.956	3329
925.064	3161
925.172	3070
925.279	3112
925.387	3207
925.494	3211
925.602	3420
925.709	3382
925.816	3192
925.924	3363
926.031	3401
926.138	3401
926.245	3412
926.352	3268
926.459	3431
926.566	3542
926.673	3370
926.779	3264
926.886	3310
926.993	3173
927.099	3165
927.206	3173
927.312	3150
927.419	3241
927.525	3241
927.631	3298
927.737	3184
927.843	3157
927.95	3070
928.056	3192
928.162	3203
928.267	3298
928.373	3918
928.479	3340
928.585	3123
928.69	3260
928.796	3313
928.901	3260
929.007	3100
929.112	3256
929.218	3233
929.323	3192
929.428	3214
929.533	3340
929.638	3146
929.743	3214
929.848	3332
929.953	3245
930.058	3138
930.163	3028
930.267	3100
930.372	3260
930.477	3070
930.581	3340
930.685	3226
930.79	3077
930.894	3131
930.998	3108
931.103	3294
931.207	3017
931.311	2994
931.415	2979
931.519	2815
931.623	2849
