Data from test_V78500241_755.txt Node
Date: Fri Mar 25 16:20:26 CST 2022
User: usil
Spectrometer: V785-0024
Trigger mode: 0
Integration Time (sec): 4.000000E-1
Scans to average: 1
Nonlinearity correction enabled: false
Boxcar width: 0
Storing dark spectrum: false
XAxis mode: Wavelengths
Number of Pixels in Spectrum: 1024
>>>>>Begin Spectral Data<<<<<
801.071	2937
801.214	2929
801.356	2842
801.499	2880
801.641	2845
801.783	2937
801.926	3055
802.068	2941
802.211	2982
802.353	2998
802.496	2914
802.638	2975
802.78	3047
802.923	3093
803.065	2979
803.208	2918
803.35	2891
803.492	2948
803.635	2944
803.777	2750
803.919	2807
804.061	3207
804.204	2925
804.346	2899
804.488	2811
804.63	3005
804.773	2880
804.915	2891
805.057	3055
805.199	2895
805.341	2960
805.483	3024
805.626	3020
805.768	2963
805.91	3055
806.052	3093
806.194	3036
806.336	3195
806.478	3043
806.62	2933
806.762	2971
806.904	3043
807.046	3138
807.188	3005
807.33	2902
807.472	3005
807.614	2918
807.756	2994
807.898	2941
808.04	2853
808.182	3005
808.324	2956
808.465	2895
808.607	2895
808.749	2800
808.891	2823
809.033	2963
809.174	2982
809.316	2883
809.458	2861
809.6	2739
809.741	2796
809.883	2750
810.025	2826
810.166	2823
810.308	2845
810.45	2838
810.591	2762
810.733	2766
810.875	2811
811.016	2792
811.158	2727
811.299	2769
811.441	2925
811.582	2853
811.724	2796
811.865	2807
812.007	2918
812.148	2872
812.29	2880
812.431	2925
812.573	2914
812.714	2929
812.855	3013
812.997	3036
813.138	3135
813.279	3013
813.421	2967
813.562	2963
813.703	2876
813.845	2857
813.986	2800
814.127	2746
814.268	2823
814.41	2845
814.551	2804
814.692	2842
814.833	2800
814.974	2880
815.115	2956
815.256	2857
815.397	2823
815.539	2883
815.68	2796
815.821	2777
815.962	2986
816.103	2906
816.244	2853
816.385	2876
816.526	2975
816.666	2876
816.807	2727
816.948	2895
817.089	2922
817.23	2857
817.371	2777
817.512	2796
817.653	2807
817.793	2800
817.934	2830
818.075	2937
818.216	3043
818.356	3028
818.497	2861
818.638	2804
818.778	2838
818.919	2754
819.06	2773
819.2	2864
819.341	2796
819.481	2796
819.622	2933
819.762	3081
819.903	3005
820.043	2925
820.184	2857
820.324	2895
820.465	3001
820.605	2963
820.746	3032
820.886	2899
821.026	3127
821.167	3150
821.307	3260
821.447	3260
821.588	3207
821.728	3188
821.868	3165
822.008	3036
822.149	3169
822.289	3188
822.429	3051
822.569	3081
822.709	3161
822.849	2990
822.99	3039
823.13	3199
823.27	3180
823.41	3108
823.55	3146
823.69	3138
823.83	3230
823.97	3097
824.11	3017
824.25	3005
824.389	3047
824.529	3108
824.669	3074
824.809	3241
824.949	3272
825.089	3184
825.228	3150
825.368	3009
825.508	2922
825.648	2941
825.787	2990
825.927	2986
826.067	2971
826.206	2967
826.346	3051
826.485	3070
826.625	3108
826.765	3237
826.904	3192
827.044	2979
827.183	2922
827.323	2811
827.462	2975
827.601	2918
827.741	2933
827.88	2922
828.02	2849
828.159	2982
828.298	3062
828.437	3085
828.577	3043
828.716	3211
828.855	3077
828.994	2910
829.134	2906
829.273	2880
829.412	2891
829.551	2830
829.69	2895
829.829	2990
829.968	3104
830.107	2986
830.246	3039
830.385	2864
830.524	2849
830.663	2773
830.802	2716
830.941	2636
831.08	2640
831.219	2766
831.357	2766
831.496	2975
831.635	2686
831.774	2621
831.913	2632
832.051	2560
832.19	2602
832.329	2655
832.467	2522
832.606	2476
832.744	2625
832.883	2587
833.022	2549
833.16	2655
833.299	2682
833.437	2663
833.576	2689
833.714	2720
833.852	2708
833.991	2773
834.129	2857
834.267	2777
834.406	2781
834.544	2880
834.682	2872
834.821	2849
834.959	3062
835.097	2883
835.235	3017
835.373	2963
835.511	3017
835.65	2948
835.788	2933
835.926	2849
836.064	2811
836.202	2861
836.34	3055
836.478	3127
836.615	3020
836.753	3112
836.891	3188
837.029	3154
837.167	3085
837.305	3055
837.443	3036
837.58	2948
837.718	3100
837.856	3058
837.993	3020
838.131	3104
838.269	3093
838.406	3089
838.544	3047
838.681	2910
838.819	2914
838.956	2811
839.094	2853
839.231	2902
839.369	2986
839.506	3336
839.643	3188
839.781	3028
839.918	2937
840.055	3028
840.193	3043
840.33	3055
840.467	3047
840.604	3146
840.742	3389
840.879	3047
841.016	3051
841.153	3077
841.29	3344
841.427	3332
841.564	3253
841.701	3321
841.838	3184
841.975	3176
842.112	3203
842.249	3085
842.385	2986
842.522	3279
842.659	3036
842.796	3066
842.933	3089
843.069	3013
843.206	2948
843.343	3150
843.479	3093
843.616	3123
843.752	2880
843.889	2830
844.025	3081
844.162	2834
844.298	3108
844.435	2948
844.571	2883
844.708	3077
844.844	3237
844.98	3237
845.117	3195
845.253	3055
845.389	2990
845.525	3104
845.661	3070
845.798	3001
845.934	3108
846.07	2998
846.206	3184
846.342	3310
846.478	3180
846.614	3123
846.75	3043
846.886	3062
847.022	3218
847.158	3138
847.294	3176
847.429	3230
847.565	3169
847.701	3477
847.837	3005
847.972	3009
848.108	3131
848.244	3135
848.379	3005
848.515	2929
848.65	2918
848.786	2963
848.921	3001
849.057	3119
849.192	3127
849.328	3093
849.463	3100
849.598	3077
849.734	3024
849.869	2948
850.004	2906
850.14	2986
850.275	2922
850.41	2811
850.545	2944
850.68	2910
850.815	2952
850.95	3001
851.085	3192
851.22	3093
851.355	3013
851.49	2948
851.625	3001
851.76	3001
851.895	2941
852.03	2956
852.165	3009
852.299	3062
852.434	3203
852.569	3135
852.703	3192
852.838	3226
852.973	3329
853.107	3321
853.242	3123
853.376	3081
853.511	2971
853.645	3013
853.78	3230
853.914	3135
854.048	3081
854.183	3074
854.317	3142
854.451	3298
854.585	3131
854.72	3074
854.854	3218
854.988	3024
855.122	3097
855.256	2948
855.39	3081
855.524	3214
855.658	3173
855.792	3154
855.926	3173
856.06	3199
856.194	3253
856.327	3123
856.461	3093
856.595	3100
856.729	3070
856.862	3188
856.996	3138
857.13	3211
857.263	3165
857.397	3283
857.53	3093
857.664	3218
857.797	3222
857.931	3207
858.064	3142
858.197	3199
858.331	3119
858.464	3119
858.597	3020
858.731	3104
858.864	3112
858.997	3104
859.13	3173
859.263	3188
859.396	3180
859.529	3066
859.662	3081
859.795	3020
859.928	3093
860.061	3253
860.194	3264
860.327	3108
860.46	3081
860.592	3245
860.725	3272
860.858	3218
860.99	3116
861.123	3005
861.256	3001
861.388	3108
861.521	3888
861.653	2971
861.786	2963
861.918	3028
862.05	3043
862.183	3108
862.315	3112
862.447	3192
862.58	3097
862.712	2906
862.844	2872
862.976	2982
863.108	3009
863.24	3382
863.372	2868
863.504	2994
863.636	2944
863.768	3013
863.9	2990
864.032	2914
864.164	2922
864.296	3024
864.428	3058
864.559	3089
864.691	3070
864.823	3036
864.954	3032
865.086	3028
865.217	2956
865.349	2956
865.48	2994
865.612	3020
865.743	3150
865.875	2990
866.006	2929
866.137	2979
866.269	2929
866.4	2910
866.531	2929
866.662	2868
866.793	2864
866.924	2853
867.055	2941
867.186	2880
867.317	2861
867.448	2826
867.579	2861
867.71	2792
867.841	2800
867.972	2899
868.103	2853
868.233	2857
868.364	2876
868.495	2868
868.625	3074
868.756	3165
868.886	2952
869.017	3001
869.147	3123
869.278	3142
869.408	3017
869.539	3024
869.669	3112
869.799	3013
869.929	3108
870.06	3085
870.19	3291
870.32	3218
870.45	3287
870.58	3363
870.71	3458
870.84	3439
870.97	3260
871.1	3253
871.23	3481
871.36	3420
871.489	3351
871.619	3363
871.749	3374
871.879	3397
872.008	3447
872.138	3348
872.267	3275
872.397	3123
872.526	3085
872.656	2998
872.785	3055
872.915	3241
873.044	3310
873.173	3211
873.303	3241
873.432	3279
873.561	3218
873.69	3135
873.819	3085
873.948	3207
874.077	3104
874.206	3020
874.335	3081
874.464	3195
874.593	3317
874.722	3237
874.851	3382
874.979	3359
875.108	3344
875.237	3142
875.365	3119
875.494	3157
875.623	3237
875.751	3024
875.88	3070
876.008	3157
876.136	3237
876.265	3325
876.393	3504
876.521	3370
876.65	3431
876.778	3340
876.906	3260
877.034	3161
877.162	3207
877.29	3157
877.418	3222
877.546	3188
877.674	3211
877.802	3211
877.93	3233
878.058	3119
878.185	3051
878.313	3222
878.441	3184
878.568	3039
878.696	3188
878.824	3237
878.951	3302
879.079	3397
879.206	3629
879.333	3378
879.461	3306
879.588	3374
879.715	3485
879.842	3595
879.97	3378
880.097	3195
880.224	3157
880.351	3176
880.478	3169
880.605	3199
880.732	3146
880.859	3462
880.986	3264
881.112	3329
881.239	3226
881.366	3062
881.493	3051
881.619	3020
881.746	3070
881.872	3119
881.999	3104
882.125	3142
882.252	3260
882.378	3275
882.505	3412
882.631	3264
882.757	3135
882.883	3218
883.01	3184
883.136	3184
883.262	3123
883.388	3131
883.514	3336
883.64	3348
883.766	3294
883.892	3222
884.018	3260
884.143	3431
884.269	3557
884.395	3195
884.52	3188
884.646	3192
884.772	3184
884.897	3127
885.023	3275
885.148	3294
885.274	3439
885.399	3367
885.524	3310
885.65	3302
885.775	3378
885.9	3298
886.025	3469
886.15	3393
886.275	3332
886.4	3241
886.525	3386
886.65	3332
886.775	3329
886.9	3481
887.025	3644
887.149	3439
887.274	3287
887.399	3241
887.523	3199
887.648	3275
887.773	3233
887.897	3424
888.021	3450
888.146	3321
888.27	3481
888.395	3584
888.519	3462
888.643	3504
888.767	3462
888.891	3359
889.015	3291
889.139	3325
889.263	3329
889.387	3466
889.511	3545
889.635	3458
889.759	3370
889.883	3344
890.006	3447
890.13	3523
890.254	3302
890.377	3389
890.501	3253
890.624	3195
890.748	3329
890.871	3192
890.995	3173
891.118	3112
891.241	3214
891.364	3230
891.488	3374
891.611	3230
891.734	3268
891.857	3283
891.98	3306
892.103	3378
892.226	3302
892.349	3249
892.471	3154
892.594	3272
892.717	3332
892.839	3317
892.962	3332
893.085	3397
893.207	3367
893.33	3180
893.452	3253
893.575	3363
893.697	3233
893.819	3496
893.941	3507
894.064	3485
894.186	3287
894.308	3321
894.43	3469
894.552	3606
894.674	3507
894.796	3313
894.918	3329
895.04	3321
895.161	3443
895.283	3409
895.405	3363
895.526	3389
895.648	3477
895.769	3447
895.891	3485
896.012	3523
896.134	3526
896.255	3450
896.376	3450
896.498	3424
896.619	3435
896.74	3401
896.861	3439
896.982	3709
897.103	3842
897.224	3633
897.345	3538
897.466	3473
897.587	3519
897.708	3679
897.828	3587
897.949	3439
898.07	3374
898.19	3416
898.311	3595
898.431	3473
898.552	3572
898.672	3633
898.792	3595
898.913	3542
899.033	3439
899.153	3272
899.273	3268
899.393	3256
899.513	3351
899.633	3321
899.753	3332
899.873	3348
899.993	3405
900.113	3378
900.232	3431
900.352	3382
900.472	3332
900.591	3222
900.711	3374
900.83	3298
900.95	3473
901.069	3504
901.189	3382
901.308	3222
901.427	3142
901.546	3211
901.665	3298
901.784	3351
901.904	3264
902.023	3226
902.141	3024
902.26	3051
902.379	3192
902.498	3104
902.617	3081
902.735	3233
902.854	3279
902.973	3195
903.091	3051
903.21	3104
903.328	3161
903.446	3154
903.565	3154
903.683	3237
903.801	3112
903.919	3268
904.038	3294
904.156	3195
904.274	3291
904.392	3283
904.51	3321
904.627	3325
904.745	3454
904.863	3511
904.981	3245
905.098	3173
905.216	3249
905.334	3363
905.451	3340
905.569	3294
905.686	3469
905.803	3469
905.921	3310
906.038	3466
906.155	3439
906.272	3317
906.389	3367
906.506	3245
906.623	3279
906.74	3306
906.857	3233
906.974	3275
907.091	3477
907.208	3591
907.324	3492
907.441	3389
907.557	3226
907.674	3256
907.79	3272
907.907	3359
908.023	3416
908.139	3382
908.256	3355
908.372	3412
908.488	3389
908.604	3287
908.72	3268
908.836	3287
908.952	3310
909.068	3351
909.184	3534
909.3	3443
909.415	3515
909.531	3515
909.647	3329
909.762	3348
909.878	3332
909.993	3389
910.108	3386
910.224	3409
910.339	3424
910.454	3359
910.57	3367
910.685	3245
910.8	3648
910.915	3545
911.03	3443
911.145	3260
911.259	3287
911.374	3374
911.489	3275
911.604	3291
911.718	3131
911.833	3165
911.947	3036
912.062	2998
912.176	3203
912.291	3249
912.405	3233
912.519	3462
912.633	3469
912.748	3374
912.862	3302
912.976	3184
913.09	3047
913.204	3146
913.318	3203
913.431	3370
913.545	3317
913.659	3431
913.772	3348
913.886	3245
914	3192
914.113	3374
914.226	3439
914.34	3401
914.453	3237
914.566	3409
914.68	3279
914.793	3359
914.906	3207
915.019	3176
915.132	3074
915.245	3184
915.358	3233
915.47	3260
915.583	3283
915.696	3321
915.809	3466
915.921	3424
916.034	3268
916.146	3268
916.259	3233
916.371	3416
916.483	3397
916.595	3268
916.708	3374
916.82	3367
916.932	3409
917.044	3355
917.156	3363
917.268	3291
917.38	3344
917.491	3317
917.603	3412
917.715	3439
917.826	3466
917.938	3389
918.049	3329
918.161	3477
918.272	3587
918.384	3561
918.495	3523
918.606	3363
918.717	3279
918.828	3420
918.939	3450
919.05	3313
919.161	3435
919.272	3214
919.383	3329
919.494	3523
919.604	3698
919.715	3553
919.826	3447
919.936	3462
920.047	3603
920.157	3580
920.267	3812
920.378	3660
920.488	3591
920.598	3766
920.708	4021
920.818	3831
920.928	3850
921.038	4044
921.148	3979
921.258	3686
921.368	3629
921.477	3625
921.587	3599
921.697	3504
921.806	3660
921.916	3542
922.025	3389
922.134	3351
922.244	3332
922.353	3443
922.462	3298
922.571	3226
922.68	3112
922.789	3089
922.898	3165
923.007	3100
923.116	3218
923.224	3169
923.333	3203
923.442	3104
923.55	3135
923.659	3150
923.767	3264
923.876	3157
923.984	3241
924.092	3093
924.201	3188
924.309	3268
924.417	3283
924.525	3195
924.633	3237
924.741	4227
924.849	3093
924.956	3279
925.064	3142
925.172	3039
925.279	3142
925.387	3249
925.494	3237
925.602	3363
925.709	3355
925.816	3199
925.924	3313
926.031	3405
926.138	3363
926.245	3382
926.352	3294
926.459	3431
926.566	3481
926.673	3355
926.779	3275
926.886	3287
926.993	3157
927.099	3116
927.206	3127
927.312	3138
927.419	3245
927.525	3192
927.631	3287
927.737	3127
927.843	3116
927.95	3017
928.056	3180
928.162	3176
928.267	3188
928.373	3922
928.479	3340
928.585	3089
928.69	3211
928.796	3310
928.901	3161
929.007	3051
929.112	3222
929.218	3195
929.323	3135
929.428	3192
929.533	3363
929.638	3131
929.743	3169
929.848	3275
929.953	3211
930.058	3184
930.163	3024
930.267	3062
930.372	3207
930.477	3039
930.581	3317
930.685	3203
930.79	3047
930.894	3150
930.998	3142
931.103	3298
931.207	2960
931.311	2952
931.415	2929
931.519	2819
931.623	2842
