Data from test_V78500241_1573.txt Node
Date: Fri Mar 25 16:26:06 CST 2022
User: usil
Spectrometer: V785-0024
Trigger mode: 0
Integration Time (sec): 4.000000E-1
Scans to average: 1
Nonlinearity correction enabled: false
Boxcar width: 0
Storing dark spectrum: false
XAxis mode: Wavelengths
Number of Pixels in Spectrum: 1024
>>>>>Begin Spectral Data<<<<<
801.071	2910
801.214	2941
801.356	2880
801.499	2868
801.641	2861
801.783	2902
801.926	3024
802.068	2963
802.211	3020
802.353	3043
802.496	2937
802.638	2986
802.78	3009
802.923	3055
803.065	3017
803.208	2872
803.35	2944
803.492	2918
803.635	2899
803.777	2746
803.919	2853
804.061	3188
804.204	2902
804.346	2887
804.488	2804
804.63	3001
804.773	2880
804.915	2918
805.057	3051
805.199	2891
805.341	2971
805.483	3047
805.626	2998
805.768	2986
805.91	3089
806.052	3100
806.194	3039
806.336	3192
806.478	3032
806.62	2952
806.762	2982
806.904	3013
807.046	3142
807.188	2982
807.33	2914
807.472	2998
807.614	2910
807.756	2967
807.898	2906
808.04	2880
808.182	2960
808.324	2933
808.465	2868
808.607	2883
808.749	2788
808.891	2845
809.033	2944
809.174	2922
809.316	2876
809.458	2922
809.6	2724
809.741	2758
809.883	2758
810.025	2876
810.166	2868
810.308	2807
810.45	2861
810.591	2769
810.733	2781
810.875	2796
811.016	2762
811.158	2727
811.299	2823
811.441	2899
811.582	2883
811.724	2849
811.865	2849
812.007	2922
812.148	2868
812.29	2811
812.431	2906
812.573	2895
812.714	2925
812.855	3058
812.997	3039
813.138	3074
813.279	3043
813.421	3024
813.562	2914
813.703	2876
813.845	2910
813.986	2807
814.127	2739
814.268	2800
814.41	2811
814.551	2807
814.692	2891
814.833	2769
814.974	2902
815.115	2925
815.256	2830
815.397	2800
815.539	2864
815.68	2788
815.821	2769
815.962	2918
816.103	2902
816.244	2902
816.385	2853
816.526	2963
816.666	2899
816.807	2743
816.948	2895
817.089	2891
817.23	2811
817.371	2796
817.512	2766
817.653	2864
817.793	2815
817.934	2891
818.075	2952
818.216	2956
818.356	2971
818.497	2872
818.638	2788
818.778	2834
818.919	2773
819.06	2739
819.2	2845
819.341	2800
819.481	2788
819.622	2922
819.762	3093
819.903	3028
820.043	2887
820.184	2906
820.324	2914
820.465	3001
820.605	2979
820.746	3005
820.886	2933
821.026	3135
821.167	3161
821.307	3275
821.447	3310
821.588	3256
821.728	3192
821.868	3211
822.008	3047
822.149	3154
822.289	3214
822.429	3077
822.569	3066
822.709	3173
822.849	3051
822.99	3047
823.13	3138
823.27	3192
823.41	3131
823.55	3138
823.69	3100
823.83	3199
823.97	3119
824.11	3001
824.25	2971
824.389	3055
824.529	3116
824.669	3028
824.809	3176
824.949	3275
825.089	3222
825.228	3108
825.368	2990
825.508	2967
825.648	2956
825.787	2982
825.927	3013
826.067	2956
826.206	2960
826.346	3028
826.485	3097
826.625	3104
826.765	3241
826.904	3211
827.044	2975
827.183	2914
827.323	2853
827.462	2979
827.601	2952
827.741	2925
827.88	2963
828.02	2834
828.159	2971
828.298	3051
828.437	3116
828.577	3005
828.716	3226
828.855	3058
828.994	2895
829.134	2902
829.273	2899
829.412	2826
829.551	2861
829.69	2864
829.829	2986
829.968	3112
830.107	2979
830.246	3020
830.385	2849
830.524	2853
830.663	2811
830.802	2746
830.941	2648
831.08	2602
831.219	2758
831.357	2746
831.496	2960
831.635	2750
831.774	2610
831.913	2621
832.051	2560
832.19	2602
832.329	2701
832.467	2511
832.606	2514
832.744	2564
832.883	2579
833.022	2590
833.16	2667
833.299	2686
833.437	2708
833.576	2739
833.714	2667
833.852	2750
833.991	2762
834.129	2781
834.267	2826
834.406	2800
834.544	2830
834.682	2891
834.821	2830
834.959	3017
835.097	2944
835.235	3047
835.373	3005
835.511	3039
835.65	2971
835.788	2967
835.926	2792
836.064	2800
836.202	2872
836.34	3077
836.478	3131
836.615	3028
836.753	3146
836.891	3161
837.029	3188
837.167	3108
837.305	3055
837.443	2998
837.58	2941
837.718	3157
837.856	3036
837.993	3020
838.131	3085
838.269	3070
838.406	3085
838.544	3085
838.681	2937
838.819	2910
838.956	2834
839.094	2845
839.231	2880
839.369	3013
839.506	3363
839.643	3188
839.781	3043
839.918	2941
840.055	3024
840.193	3036
840.33	3051
840.467	3089
840.604	3138
840.742	3401
840.879	3055
841.016	3039
841.153	3127
841.29	3310
841.427	3310
841.564	3279
841.701	3310
841.838	3214
841.975	3173
842.112	3222
842.249	3077
842.385	3028
842.522	3226
842.659	3070
842.796	3047
842.933	3123
843.069	3043
843.206	3020
843.343	3195
843.479	3165
843.616	3085
843.752	2883
843.889	2815
844.025	3058
844.162	2868
844.298	3089
844.435	2929
844.571	2899
844.708	3032
844.844	3192
844.98	3222
845.117	3169
845.253	3051
845.389	2986
845.525	3066
845.661	3089
845.798	3005
845.934	3089
846.07	3017
846.206	3218
846.342	3340
846.478	3203
846.614	3039
846.75	3043
846.886	3001
847.022	3233
847.158	3112
847.294	3169
847.429	3237
847.565	3157
847.701	3466
847.837	3032
847.972	2990
848.108	3188
848.244	3108
848.379	2994
848.515	2899
848.65	2891
848.786	2918
848.921	3036
849.057	3097
849.192	3112
849.328	3074
849.463	3138
849.598	3070
849.734	3047
849.869	2933
850.004	2922
850.14	2944
850.275	2914
850.41	2819
850.545	2864
850.68	2925
850.815	2986
850.95	2990
851.085	3161
851.22	3100
851.355	3055
851.49	2956
851.625	2967
851.76	2979
851.895	2944
852.03	2891
852.165	3024
852.299	3097
852.434	3146
852.569	3131
852.703	3123
852.838	3207
852.973	3344
853.107	3329
853.242	3146
853.376	3104
853.511	2941
853.645	3055
853.78	3233
853.914	3074
854.048	3142
854.183	3055
854.317	3112
854.451	3264
854.585	3077
854.72	3089
854.854	3157
854.988	3032
855.122	3077
855.256	2979
855.39	3097
855.524	3245
855.658	3138
855.792	3150
855.926	3188
856.06	3211
856.194	3268
856.327	3138
856.461	3108
856.595	3116
856.729	3070
856.862	3203
856.996	3165
857.13	3192
857.263	3226
857.397	3241
857.53	3051
857.664	3165
857.797	3207
857.931	3237
858.064	3176
858.197	3188
858.331	3074
858.464	3085
858.597	2975
858.731	3123
858.864	3123
858.997	3036
859.13	3131
859.263	3169
859.396	3188
859.529	3104
859.662	3093
859.795	3032
859.928	3131
860.061	3279
860.194	3253
860.327	3104
860.46	3070
860.592	3211
860.725	3226
860.858	3218
860.99	3074
861.123	3013
861.256	3039
861.388	3146
861.521	3854
861.653	3001
861.786	2998
861.918	2990
862.05	3055
862.183	3070
862.315	3123
862.447	3165
862.58	3062
862.712	2895
862.844	2834
862.976	3013
863.108	2967
863.24	3310
863.372	2872
863.504	2967
863.636	2925
863.768	3032
863.9	2948
864.032	2876
864.164	2941
864.296	3017
864.428	3074
864.559	3066
864.691	3058
864.823	3028
864.954	3020
865.086	2994
865.217	2979
865.349	2906
865.48	2971
865.612	2982
865.743	3097
865.875	2975
866.006	2914
866.137	2922
866.269	2929
866.4	2899
866.531	2937
866.662	2861
866.793	2895
866.924	2883
867.055	2998
867.186	2918
867.317	2880
867.448	2861
867.579	2838
867.71	2857
867.841	2872
867.972	2902
868.103	2918
868.233	2906
868.364	2883
868.495	2948
868.625	3104
868.756	3161
868.886	2998
869.017	3047
869.147	3154
869.278	3173
869.408	3097
869.539	3058
869.669	3119
869.799	3062
869.929	3146
870.06	3138
870.19	3336
870.32	3302
870.45	3363
870.58	3389
870.71	3466
870.84	3507
870.97	3310
871.1	3249
871.23	3507
871.36	3526
871.489	3428
871.619	3424
871.749	3458
871.879	3447
872.008	3507
872.138	3412
872.267	3336
872.397	3192
872.526	3150
872.656	3077
872.785	3146
872.915	3226
873.044	3332
873.173	3245
873.303	3279
873.432	3272
873.561	3283
873.69	3203
873.819	3211
873.948	3218
874.077	3169
874.206	3081
874.335	3138
874.464	3241
874.593	3424
874.722	3260
874.851	3416
874.979	3386
875.108	3351
875.237	3218
875.365	3180
875.494	3188
875.623	3291
875.751	3154
875.88	3157
876.008	3222
876.136	3272
876.265	3412
876.393	3507
876.521	3424
876.65	3412
876.778	3389
876.906	3306
877.034	3245
877.162	3264
877.29	3241
877.418	3249
877.546	3298
877.674	3306
877.802	3249
877.93	3264
878.058	3184
878.185	3123
878.313	3233
878.441	3230
878.568	3154
878.696	3161
878.824	3291
878.951	3344
879.079	3454
879.206	3629
879.333	3473
879.461	3336
879.588	3397
879.715	3549
879.842	3622
879.97	3435
880.097	3180
880.224	3127
880.351	3157
880.478	3249
880.605	3207
880.732	3195
880.859	3561
880.986	3370
881.112	3329
881.239	3214
881.366	3089
881.493	3074
881.619	3043
881.746	3116
881.872	3104
881.999	3142
882.125	3165
882.252	3260
882.378	3302
882.505	3450
882.631	3302
882.757	3180
882.883	3272
883.01	3249
883.136	3192
883.262	3123
883.388	3154
883.514	3374
883.64	3401
883.766	3355
883.892	3188
884.018	3268
884.143	3424
884.269	3553
884.395	3249
884.52	3180
884.646	3207
884.772	3135
884.897	3104
885.023	3260
885.148	3374
885.274	3412
885.399	3386
885.524	3306
885.65	3279
885.775	3317
885.9	3264
886.025	3469
886.15	3405
886.275	3325
886.4	3253
886.525	3291
886.65	3340
886.775	3317
886.9	3523
887.025	3656
887.149	3439
887.274	3268
887.399	3180
887.523	3180
887.648	3188
887.773	3272
887.897	3447
888.021	3378
888.146	3313
888.27	3462
888.395	3606
888.519	3485
888.643	3469
888.767	3447
888.891	3340
889.015	3253
889.139	3344
889.263	3291
889.387	3424
889.511	3568
889.635	3473
889.759	3317
889.883	3344
890.006	3424
890.13	3523
890.254	3294
890.377	3374
890.501	3211
890.624	3184
890.748	3329
890.871	3184
890.995	3138
891.118	3085
891.241	3203
891.364	3214
891.488	3336
891.611	3211
891.734	3268
891.857	3310
891.98	3268
892.103	3367
892.226	3321
892.349	3253
892.471	3142
892.594	3245
892.717	3313
892.839	3313
892.962	3332
893.085	3389
893.207	3321
893.33	3176
893.452	3207
893.575	3367
893.697	3317
893.819	3466
893.941	3553
894.064	3492
894.186	3294
894.308	3298
894.43	3469
894.552	3576
894.674	3488
894.796	3313
894.918	3363
895.04	3310
895.161	3450
895.283	3420
895.405	3363
895.526	3382
895.648	3473
895.769	3393
895.891	3477
896.012	3473
896.134	3519
896.255	3439
896.376	3435
896.498	3389
896.619	3454
896.74	3370
896.861	3412
896.982	3720
897.103	3873
897.224	3595
897.345	3542
897.466	3485
897.587	3492
897.708	3701
897.828	3572
897.949	3496
898.07	3348
898.19	3431
898.311	3644
898.431	3454
898.552	3534
898.672	3591
898.792	3606
898.913	3557
899.033	3450
899.153	3298
899.273	3241
899.393	3306
899.513	3363
899.633	3351
899.753	3378
899.873	3344
899.993	3409
900.113	3363
900.232	3435
900.352	3355
900.472	3287
900.591	3226
900.711	3306
900.83	3237
900.95	3443
901.069	3519
901.189	3378
901.308	3199
901.427	3146
901.546	3237
901.665	3325
901.784	3359
901.904	3233
902.023	3207
902.141	3039
902.26	3024
902.379	3116
902.498	3093
902.617	3100
902.735	3264
902.854	3222
902.973	3226
903.091	3043
903.21	3081
903.328	3184
903.446	3138
903.565	3173
903.683	3241
903.801	3131
903.919	3253
904.038	3294
904.156	3184
904.274	3325
904.392	3260
904.51	3329
904.627	3302
904.745	3450
904.863	3553
904.981	3310
905.098	3169
905.216	3211
905.334	3317
905.451	3329
905.569	3302
905.686	3466
905.803	3473
905.921	3287
906.038	3462
906.155	3382
906.272	3359
906.389	3348
906.506	3268
906.623	3264
906.74	3272
906.857	3211
906.974	3264
907.091	3462
907.208	3599
907.324	3515
907.441	3397
907.557	3245
907.674	3253
907.79	3214
907.907	3340
908.023	3386
908.139	3363
908.256	3367
908.372	3401
908.488	3412
908.604	3249
908.72	3268
908.836	3294
908.952	3291
909.068	3355
909.184	3500
909.3	3420
909.415	3504
909.531	3466
909.647	3313
909.762	3313
909.878	3287
909.993	3378
910.108	3367
910.224	3382
910.339	3439
910.454	3374
910.57	3317
910.685	3275
910.8	3622
910.915	3530
911.03	3428
911.145	3279
911.259	3321
911.374	3340
911.489	3230
911.604	3253
911.718	3131
911.833	3169
911.947	3028
912.062	3032
912.176	3184
912.291	3272
912.405	3233
912.519	3462
912.633	3485
912.748	3329
912.862	3310
912.976	3195
913.09	3100
913.204	3180
913.318	3207
913.431	3340
913.545	3348
913.659	3416
913.772	3306
913.886	3226
914	3214
914.113	3378
914.226	3409
914.34	3401
914.453	3237
914.566	3439
914.68	3283
914.793	3340
914.906	3173
915.019	3119
915.132	3047
915.245	3150
915.358	3222
915.47	3241
915.583	3272
915.696	3313
915.809	3443
915.921	3462
916.034	3249
916.146	3260
916.259	3230
916.371	3431
916.483	3386
916.595	3268
916.708	3336
916.82	3378
916.932	3370
917.044	3348
917.156	3351
917.268	3279
917.38	3325
917.491	3332
917.603	3389
917.715	3488
917.826	3504
917.938	3389
918.049	3294
918.161	3454
918.272	3610
918.384	3599
918.495	3523
918.606	3378
918.717	3253
918.828	3374
918.939	3477
919.05	3310
919.161	3393
919.272	3199
919.383	3306
919.494	3500
919.604	3698
919.715	3473
919.826	3473
919.936	3477
920.047	3622
920.157	3523
920.267	3793
920.378	3576
920.488	3557
920.598	3759
920.708	3975
920.818	3888
920.928	3880
921.038	4029
921.148	4010
921.258	3709
921.368	3629
921.477	3584
921.587	3534
921.697	3496
921.806	3637
921.916	3515
922.025	3405
922.134	3397
922.244	3340
922.353	3466
922.462	3272
922.571	3253
922.68	3077
922.789	3085
922.898	3142
923.007	3131
923.116	3230
923.224	3180
923.333	3173
923.442	3104
923.55	3097
923.659	3169
923.767	3241
923.876	3127
923.984	3279
924.092	3093
924.201	3253
924.309	3211
924.417	3230
924.525	3199
924.633	3279
924.741	4173
924.849	3055
924.956	3291
925.064	3093
925.172	3077
925.279	3119
925.387	3256
925.494	3253
925.602	3386
925.709	3351
925.816	3207
925.924	3340
926.031	3378
926.138	3325
926.245	3351
926.352	3237
926.459	3409
926.566	3466
926.673	3287
926.779	3222
926.886	3268
926.993	3154
927.099	3146
927.206	3127
927.312	3142
927.419	3268
927.525	3226
927.631	3291
927.737	3176
927.843	3127
927.95	3036
928.056	3131
928.162	3199
928.267	3256
928.373	3880
928.479	3298
928.585	3070
928.69	3226
928.796	3268
928.901	3161
929.007	3024
929.112	3256
929.218	3176
929.323	3165
929.428	3192
929.533	3302
929.638	3108
929.743	3176
929.848	3249
929.953	3199
930.058	3150
930.163	3001
930.267	3036
930.372	3161
930.477	3032
930.581	3321
930.685	3214
930.79	3055
930.894	3131
930.998	3104
931.103	3256
931.207	2960
931.311	2952
931.415	2922
931.519	2769
931.623	2804
