Data from test_V78500241_1201.txt Node
Date: Fri Mar 25 16:23:31 CST 2022
User: usil
Spectrometer: V785-0024
Trigger mode: 0
Integration Time (sec): 4.000000E-1
Scans to average: 1
Nonlinearity correction enabled: false
Boxcar width: 0
Storing dark spectrum: false
XAxis mode: Wavelengths
Number of Pixels in Spectrum: 1024
>>>>>Begin Spectral Data<<<<<
801.071	2906
801.214	2948
801.356	2899
801.499	2830
801.641	2849
801.783	2922
801.926	3009
802.068	2944
802.211	2971
802.353	3028
802.496	2971
802.638	3005
802.78	3020
802.923	3051
803.065	2975
803.208	2910
803.35	2914
803.492	2895
803.635	2887
803.777	2762
803.919	2883
804.061	3192
804.204	2918
804.346	2895
804.488	2868
804.63	2994
804.773	2872
804.915	2918
805.057	3058
805.199	2937
805.341	2967
805.483	3051
805.626	3001
805.768	2948
805.91	3077
806.052	3089
806.194	3009
806.336	3203
806.478	3005
806.62	2941
806.762	2960
806.904	3081
807.046	3142
807.188	2975
807.33	2933
807.472	2956
807.614	2906
807.756	2979
807.898	2933
808.04	2906
808.182	3005
808.324	2925
808.465	2876
808.607	2868
808.749	2766
808.891	2842
809.033	2975
809.174	2963
809.316	2902
809.458	2902
809.6	2781
809.741	2746
809.883	2758
810.025	2853
810.166	2834
810.308	2830
810.45	2857
810.591	2788
810.733	2731
810.875	2842
811.016	2815
811.158	2766
811.299	2861
811.441	2948
811.582	2861
811.724	2777
811.865	2823
812.007	2891
812.148	2883
812.29	2868
812.431	2925
812.573	2902
812.714	2971
812.855	3036
812.997	3070
813.138	3161
813.279	2994
813.421	3013
813.562	2906
813.703	2849
813.845	2887
813.986	2815
814.127	2686
814.268	2819
814.41	2834
814.551	2811
814.692	2864
814.833	2796
814.974	2922
815.115	2922
815.256	2834
815.397	2777
815.539	2864
815.68	2754
815.821	2796
815.962	2933
816.103	2925
816.244	2853
816.385	2883
816.526	2975
816.666	2937
816.807	2743
816.948	2872
817.089	2910
817.23	2826
817.371	2792
817.512	2777
817.653	2796
817.793	2800
817.934	2906
818.075	2963
818.216	3001
818.356	3028
818.497	2849
818.638	2819
818.778	2815
818.919	2762
819.06	2781
819.2	2899
819.341	2815
819.481	2766
819.622	2925
819.762	3108
819.903	3043
820.043	2906
820.184	2910
820.324	2823
820.465	3024
820.605	3017
820.746	3032
820.886	2887
821.026	3100
821.167	3169
821.307	3249
821.447	3253
821.588	3222
821.728	3211
821.868	3157
822.008	3108
822.149	3180
822.289	3195
822.429	3058
822.569	3112
822.709	3188
822.849	2990
822.99	3074
823.13	3150
823.27	3192
823.41	3093
823.55	3112
823.69	3127
823.83	3184
823.97	3108
824.11	3001
824.25	3009
824.389	3070
824.529	3100
824.669	3058
824.809	3237
824.949	3237
825.089	3176
825.228	3123
825.368	2986
825.508	2941
825.648	2986
825.787	3024
825.927	3024
826.067	2960
826.206	2982
826.346	3028
826.485	3047
826.625	3119
826.765	3287
826.904	3192
827.044	3036
827.183	2937
827.323	2876
827.462	2971
827.601	2925
827.741	2933
827.88	2963
828.02	2834
828.159	2979
828.298	2994
828.437	3108
828.577	3051
828.716	3218
828.855	3024
828.994	2918
829.134	2902
829.273	2902
829.412	2842
829.551	2811
829.69	2880
829.829	2975
829.968	3108
830.107	3013
830.246	3024
830.385	2922
830.524	2887
830.663	2815
830.802	2754
830.941	2636
831.08	2613
831.219	2766
831.357	2739
831.496	2906
831.635	2689
831.774	2636
831.913	2651
832.051	2514
832.19	2571
832.329	2640
832.467	2511
832.606	2488
832.744	2522
832.883	2579
833.022	2541
833.16	2629
833.299	2670
833.437	2716
833.576	2693
833.714	2743
833.852	2758
833.991	2743
834.129	2845
834.267	2792
834.406	2792
834.544	2857
834.682	2895
834.821	2845
834.959	3020
835.097	2864
835.235	3001
835.373	2963
835.511	3017
835.65	2910
835.788	2941
835.926	2819
836.064	2811
836.202	2815
836.34	3077
836.478	3142
836.615	3020
836.753	3131
836.891	3188
837.029	3154
837.167	3089
837.305	3017
837.443	3028
837.58	2941
837.718	3100
837.856	3039
837.993	3032
838.131	3108
838.269	3104
838.406	3100
838.544	3047
838.681	2929
838.819	2925
838.956	2796
839.094	2838
839.231	2857
839.369	2982
839.506	3340
839.643	3241
839.781	3024
839.918	2910
840.055	3028
840.193	3047
840.33	3047
840.467	3081
840.604	3154
840.742	3378
840.879	3036
841.016	3062
841.153	3131
841.29	3325
841.427	3268
841.564	3275
841.701	3332
841.838	3230
841.975	3161
842.112	3203
842.249	3032
842.385	3001
842.522	3264
842.659	3070
842.796	3028
842.933	3123
843.069	3024
843.206	3062
843.343	3169
843.479	3119
843.616	3135
843.752	2910
843.889	2876
844.025	3089
844.162	2868
844.298	3036
844.435	2956
844.571	2925
844.708	3043
844.844	3195
844.98	3180
845.117	3218
845.253	3051
845.389	3009
845.525	3085
845.661	3100
845.798	3005
845.934	3108
846.07	3062
846.206	3207
846.342	3325
846.478	3211
846.614	3081
846.75	3036
846.886	3005
847.022	3199
847.158	3135
847.294	3173
847.429	3283
847.565	3195
847.701	3507
847.837	3017
847.972	3013
848.108	3161
848.244	3127
848.379	2998
848.515	2914
848.65	2880
848.786	2952
848.921	2998
849.057	3077
849.192	3119
849.328	3051
849.463	3104
849.598	3077
849.734	3036
849.869	2979
850.004	2906
850.14	2986
850.275	2925
850.41	2842
850.545	2845
850.68	2899
850.815	2952
850.95	2975
851.085	3157
851.22	3089
851.355	3051
851.49	2979
851.625	2986
851.76	3036
851.895	2891
852.03	2899
852.165	3020
852.299	3146
852.434	3199
852.569	3142
852.703	3146
852.838	3222
852.973	3329
853.107	3332
853.242	3135
853.376	3062
853.511	2960
853.645	3024
853.78	3256
853.914	3123
854.048	3081
854.183	3077
854.317	3138
854.451	3272
854.585	3081
854.72	3097
854.854	3199
854.988	3070
855.122	3032
855.256	2937
855.39	3104
855.524	3253
855.658	3150
855.792	3127
855.926	3195
856.06	3214
856.194	3256
856.327	3135
856.461	3077
856.595	3028
856.729	3066
856.862	3188
856.996	3150
857.13	3203
857.263	3214
857.397	3283
857.53	3112
857.664	3214
857.797	3195
857.931	3203
858.064	3161
858.197	3199
858.331	3138
858.464	3070
858.597	3009
858.731	3093
858.864	3116
858.997	3074
859.13	3150
859.263	3188
859.396	3146
859.529	3108
859.662	3043
859.795	3020
859.928	3138
860.061	3260
860.194	3287
860.327	3108
860.46	3089
860.592	3214
860.725	3233
860.858	3279
860.99	3089
861.123	3032
861.256	3058
861.388	3127
861.521	3667
861.653	2990
861.786	2967
861.918	2998
862.05	3074
862.183	3058
862.315	3085
862.447	3157
862.58	3055
862.712	2933
862.844	2887
862.976	3009
863.108	3013
863.24	3336
863.372	2883
863.504	2975
863.636	2925
863.768	2979
863.9	2956
864.032	2922
864.164	2948
864.296	3009
864.428	3047
864.559	3108
864.691	3043
864.823	3039
864.954	3028
865.086	3013
865.217	2956
865.349	2937
865.48	2967
865.612	3001
865.743	3161
865.875	2963
866.006	2899
866.137	2994
866.269	2933
866.4	2937
866.531	2883
866.662	2914
866.793	2902
866.924	2872
867.055	2941
867.186	2902
867.317	2876
867.448	2804
867.579	2823
867.71	2868
867.841	2857
867.972	2902
868.103	2906
868.233	2842
868.364	2914
868.495	2906
868.625	3058
868.756	3131
868.886	2990
869.017	3013
869.147	3127
869.278	3154
869.408	3020
869.539	3032
869.669	3108
869.799	3024
869.929	3108
870.06	3112
870.19	3302
870.32	3249
870.45	3272
870.58	3397
870.71	3439
870.84	3450
870.97	3302
871.1	3207
871.23	3462
871.36	3439
871.489	3344
871.619	3428
871.749	3412
871.879	3477
872.008	3454
872.138	3306
872.267	3249
872.397	3112
872.526	3097
872.656	2998
872.785	3097
872.915	3245
873.044	3321
873.173	3188
873.303	3249
873.432	3218
873.561	3207
873.69	3165
873.819	3142
873.948	3195
874.077	3089
874.206	3032
874.335	3085
874.464	3184
874.593	3336
874.722	3214
874.851	3355
874.979	3359
875.108	3306
875.237	3188
875.365	3135
875.494	3154
875.623	3241
875.751	3028
875.88	3093
876.008	3169
876.136	3195
876.265	3367
876.393	3488
876.521	3428
876.65	3367
876.778	3332
876.906	3241
877.034	3203
877.162	3199
877.29	3222
877.418	3291
877.546	3211
877.674	3214
877.802	3222
877.93	3233
878.058	3089
878.185	3074
878.313	3245
878.441	3218
878.568	3032
878.696	3131
878.824	3230
878.951	3298
879.079	3397
879.206	3622
879.333	3435
879.461	3363
879.588	3374
879.715	3500
879.842	3614
879.97	3378
880.097	3127
880.224	3142
880.351	3207
880.478	3192
880.605	3176
880.732	3180
880.859	3504
880.986	3325
881.112	3283
881.239	3222
881.366	3100
881.493	3017
881.619	3028
881.746	3058
881.872	3070
881.999	3077
882.125	3161
882.252	3211
882.378	3306
882.505	3393
882.631	3272
882.757	3131
882.883	3192
883.01	3214
883.136	3161
883.262	3081
883.388	3089
883.514	3359
883.64	3367
883.766	3336
883.892	3173
884.018	3249
884.143	3424
884.269	3519
884.395	3195
884.52	3165
884.646	3173
884.772	3161
884.897	3119
885.023	3203
885.148	3321
885.274	3405
885.399	3363
885.524	3256
885.65	3226
885.775	3298
885.9	3287
886.025	3409
886.15	3329
886.275	3298
886.4	3230
886.525	3313
886.65	3268
886.775	3264
886.9	3511
887.025	3618
887.149	3367
887.274	3233
887.399	3192
887.523	3218
887.648	3173
887.773	3188
887.897	3348
888.021	3428
888.146	3302
888.27	3450
888.395	3496
888.519	3420
888.643	3447
888.767	3473
888.891	3283
889.015	3230
889.139	3260
889.263	3226
889.387	3405
889.511	3492
889.635	3443
889.759	3272
889.883	3291
890.006	3359
890.13	3481
890.254	3275
890.377	3340
890.501	3188
890.624	3176
890.748	3249
890.871	3161
890.995	3100
891.118	3043
891.241	3180
891.364	3222
891.488	3313
891.611	3169
891.734	3154
891.857	3279
891.98	3249
892.103	3355
892.226	3306
892.349	3214
892.471	3146
892.594	3203
892.717	3291
892.839	3268
892.962	3264
893.085	3340
893.207	3260
893.33	3100
893.452	3233
893.575	3359
893.697	3279
893.819	3431
893.941	3530
894.064	3447
894.186	3268
894.308	3237
894.43	3435
894.552	3500
894.674	3469
894.796	3249
894.918	3325
895.04	3313
895.161	3424
895.283	3367
895.405	3321
895.526	3340
895.648	3454
895.769	3469
895.891	3428
896.012	3469
896.134	3496
896.255	3412
896.376	3397
896.498	3317
896.619	3439
896.74	3351
896.861	3351
896.982	3656
897.103	3873
897.224	3614
897.345	3542
897.466	3443
897.587	3462
897.708	3637
897.828	3500
897.949	3450
898.07	3332
898.19	3435
898.311	3591
898.431	3439
898.552	3496
898.672	3603
898.792	3584
898.913	3519
899.033	3397
899.153	3275
899.273	3195
899.393	3287
899.513	3306
899.633	3306
899.753	3325
899.873	3329
899.993	3393
900.113	3348
900.232	3374
900.352	3306
900.472	3272
900.591	3203
900.711	3306
900.83	3272
900.95	3420
901.069	3488
901.189	3321
901.308	3142
901.427	3127
901.546	3176
901.665	3329
901.784	3306
901.904	3199
902.023	3184
902.141	3047
902.26	2990
902.379	3116
902.498	3077
902.617	3043
902.735	3173
902.854	3214
902.973	3199
903.091	3005
903.21	3070
903.328	3100
903.446	3085
903.565	3123
903.683	3180
903.801	3169
903.919	3222
904.038	3222
904.156	3169
904.274	3233
904.392	3260
904.51	3283
904.627	3302
904.745	3454
904.863	3504
904.981	3237
905.098	3176
905.216	3218
905.334	3317
905.451	3272
905.569	3317
905.686	3439
905.803	3447
905.921	3272
906.038	3370
906.155	3336
906.272	3268
906.389	3306
906.506	3184
906.623	3294
906.74	3310
906.857	3176
906.974	3256
907.091	3466
907.208	3564
907.324	3485
907.441	3351
907.557	3180
907.674	3256
907.79	3226
907.907	3253
908.023	3355
908.139	3317
908.256	3317
908.372	3325
908.488	3348
908.604	3298
908.72	3249
908.836	3294
908.952	3298
909.068	3340
909.184	3443
909.3	3401
909.415	3492
909.531	3431
909.647	3237
909.762	3283
909.878	3249
909.993	3332
910.108	3329
910.224	3329
910.339	3382
910.454	3317
910.57	3291
910.685	3253
910.8	3557
910.915	3534
911.03	3401
911.145	3249
911.259	3233
911.374	3313
911.489	3230
911.604	3199
911.718	3100
911.833	3157
911.947	3028
912.062	2979
912.176	3131
912.291	3176
912.405	3188
912.519	3447
912.633	3458
912.748	3329
912.862	3264
912.976	3150
913.09	3028
913.204	3119
913.318	3230
913.431	3317
913.545	3336
913.659	3420
913.772	3325
913.886	3214
914	3180
914.113	3336
914.226	3397
914.34	3359
914.453	3169
914.566	3409
914.68	3268
914.793	3351
914.906	3116
915.019	3123
915.132	3070
915.245	3146
915.358	3173
915.47	3214
915.583	3230
915.696	3291
915.809	3412
915.921	3409
916.034	3245
916.146	3233
916.259	3226
916.371	3397
916.483	3359
916.595	3291
916.708	3325
916.82	3332
916.932	3329
917.044	3355
917.156	3340
917.268	3253
917.38	3329
917.491	3287
917.603	3325
917.715	3447
917.826	3447
917.938	3332
918.049	3279
918.161	3393
918.272	3580
918.384	3523
918.495	3443
918.606	3283
918.717	3249
918.828	3386
918.939	3416
919.05	3302
919.161	3355
919.272	3176
919.383	3275
919.494	3481
919.604	3622
919.715	3473
919.826	3416
919.936	3454
920.047	3538
920.157	3530
920.267	3755
920.378	3614
920.488	3553
920.598	3785
920.708	3949
920.818	3816
920.928	3808
921.038	4048
921.148	3956
921.258	3720
921.368	3625
921.477	3587
921.587	3515
921.697	3458
921.806	3591
921.916	3492
922.025	3317
922.134	3340
922.244	3272
922.353	3397
922.462	3256
922.571	3222
922.68	3127
922.789	3058
922.898	3142
923.007	3070
923.116	3199
923.224	3180
923.333	3157
923.442	3146
923.55	3066
923.659	3150
923.767	3203
923.876	3093
923.984	3230
924.092	3058
924.201	3165
924.309	3199
924.417	3233
924.525	3157
924.633	3260
924.741	3979
924.849	3055
924.956	3287
925.064	3093
925.172	3024
925.279	3058
925.387	3180
925.494	3192
925.602	3336
925.709	3325
925.816	3154
925.924	3241
926.031	3374
926.138	3294
926.245	3336
926.352	3222
926.459	3367
926.566	3443
926.673	3287
926.779	3241
926.886	3264
926.993	3146
927.099	3112
927.206	3127
927.312	3100
927.419	3207
927.525	3169
927.631	3256
927.737	3093
927.843	3127
927.95	3017
928.056	3081
928.162	3146
928.267	3230
928.373	3854
928.479	3294
928.585	3036
928.69	3188
928.796	3268
928.901	3150
929.007	3032
929.112	3230
929.218	3150
929.323	3138
929.428	3104
929.533	3291
929.638	3119
929.743	3169
929.848	3245
929.953	3195
930.058	3100
930.163	2963
930.267	3043
930.372	3173
930.477	3047
930.581	3283
930.685	3161
930.79	3081
930.894	3157
930.998	3055
931.103	3287
931.207	2971
931.311	2937
931.415	2944
931.519	2804
931.623	2834
