Data from test_V78500241_125.txt Node
Date: Fri Mar 25 16:16:04 CST 2022
User: usil
Spectrometer: V785-0024
Trigger mode: 0
Integration Time (sec): 4.000000E-1
Scans to average: 1
Nonlinearity correction enabled: false
Boxcar width: 0
Storing dark spectrum: false
XAxis mode: Wavelengths
Number of Pixels in Spectrum: 1024
>>>>>Begin Spectral Data<<<<<
801.071	2986
801.214	2979
801.356	2876
801.499	2922
801.641	2895
801.783	2967
801.926	3104
802.068	3017
802.211	3039
802.353	3039
802.496	2994
802.638	3043
802.78	3097
802.923	3116
803.065	3051
803.208	2933
803.35	2963
803.492	2956
803.635	2952
803.777	2804
803.919	2899
804.061	3188
804.204	2952
804.346	2963
804.488	2849
804.63	3005
804.773	2925
804.915	2956
805.057	3127
805.199	2933
805.341	2963
805.483	3036
805.626	3009
805.768	2990
805.91	3116
806.052	3112
806.194	3055
806.336	3283
806.478	3058
806.62	3005
806.762	3013
806.904	3062
807.046	3161
807.188	2990
807.33	2929
807.472	3047
807.614	2948
807.756	3039
807.898	2922
808.04	2887
808.182	2994
808.324	2960
808.465	2914
808.607	2891
808.749	2853
808.891	2910
809.033	2986
809.174	2967
809.316	2925
809.458	2914
809.6	2766
809.741	2781
809.883	2785
810.025	2868
810.166	2872
810.308	2838
810.45	2883
810.591	2807
810.733	2796
810.875	2895
811.016	2804
811.158	2777
811.299	2834
811.441	2929
811.582	2914
811.724	2826
811.865	2857
812.007	2910
812.148	2876
812.29	2857
812.431	2948
812.573	2979
812.714	2990
812.855	3043
812.997	3077
813.138	3131
813.279	3032
813.421	3005
813.562	2956
813.703	2895
813.845	2929
813.986	2800
814.127	2731
814.268	2838
814.41	2872
814.551	2819
814.692	2864
814.833	2811
814.974	2899
815.115	2963
815.256	2845
815.397	2853
815.539	2872
815.68	2807
815.821	2792
815.962	2929
816.103	2925
816.244	2887
816.385	2880
816.526	2986
816.666	2929
816.807	2766
816.948	2887
817.089	2910
817.23	2849
817.371	2773
817.512	2830
817.653	2880
817.793	2815
817.934	2902
818.075	2979
818.216	2994
818.356	3039
818.497	2895
818.638	2807
818.778	2861
818.919	2819
819.06	2804
819.2	2906
819.341	2815
819.481	2807
819.622	2941
819.762	3119
819.903	3070
820.043	2948
820.184	2902
820.324	2929
820.465	3036
820.605	3036
820.746	3047
820.886	2967
821.026	3119
821.167	3195
821.307	3283
821.447	3287
821.588	3287
821.728	3249
821.868	3275
822.008	3104
822.149	3211
822.289	3283
822.429	3146
822.569	3123
822.709	3195
822.849	3077
822.99	3165
823.13	3237
823.27	3260
823.41	3192
823.55	3176
823.69	3233
823.83	3226
823.97	3146
824.11	3058
824.25	3051
824.389	3169
824.529	3180
824.669	3142
824.809	3199
824.949	3321
825.089	3302
825.228	3241
825.368	3043
825.508	3020
825.648	3024
825.787	3116
825.927	3097
826.067	3013
826.206	3039
826.346	3100
826.485	3104
826.625	3154
826.765	3325
826.904	3279
827.044	3024
827.183	3013
827.323	2922
827.462	3055
827.601	2971
827.741	2982
827.88	3036
828.02	2929
828.159	3032
828.298	3093
828.437	3169
828.577	3112
828.716	3287
828.855	3184
828.994	2986
829.134	2922
829.273	3001
829.412	2944
829.551	2937
829.69	2944
829.829	3039
829.968	3199
830.107	3074
830.246	3097
830.385	2967
830.524	2929
830.663	2853
830.802	2781
830.941	2712
831.08	2701
831.219	2788
831.357	2823
831.496	3001
831.635	2762
831.774	2724
831.913	2735
832.051	2606
832.19	2621
832.329	2777
832.467	2606
832.606	2549
832.744	2663
832.883	2587
833.022	2644
833.16	2701
833.299	2731
833.437	2743
833.576	2739
833.714	2826
833.852	2792
833.991	2891
834.129	2914
834.267	2876
834.406	2819
834.544	2937
834.682	2914
834.821	2929
834.959	3112
835.097	2956
835.235	3104
835.373	3074
835.511	3108
835.65	3024
835.788	3001
835.926	2914
836.064	2906
836.202	2891
836.34	3131
836.478	3165
836.615	3089
836.753	3195
836.891	3264
837.029	3230
837.167	3176
837.305	3085
837.443	3097
837.58	2975
837.718	3188
837.856	3104
837.993	3108
838.131	3188
838.269	3161
838.406	3146
838.544	3161
838.681	2960
838.819	2975
838.956	2861
839.094	2864
839.231	3001
839.369	3085
839.506	3435
839.643	3207
839.781	3081
839.918	2998
840.055	3119
840.193	3123
840.33	3089
840.467	3146
840.604	3184
840.742	3504
840.879	3085
841.016	3108
841.153	3199
841.29	3340
841.427	3336
841.564	3332
841.701	3382
841.838	3302
841.975	3222
842.112	3245
842.249	3142
842.385	3089
842.522	3329
842.659	3142
842.796	3119
842.933	3154
843.069	3097
843.206	3089
843.343	3195
843.479	3123
843.616	3169
843.752	2944
843.889	2929
844.025	3097
844.162	2895
844.298	3138
844.435	2990
844.571	2960
844.708	3081
844.844	3253
844.98	3268
845.117	3245
845.253	3123
845.389	3077
845.525	3188
845.661	3176
845.798	3070
845.934	3180
846.07	3123
846.206	3283
846.342	3359
846.478	3279
846.614	3165
846.75	3157
846.886	3104
847.022	3306
847.158	3199
847.294	3256
847.429	3283
847.565	3226
847.701	3557
847.837	3100
847.972	3070
848.108	3214
848.244	3188
848.379	3047
848.515	3032
848.65	2982
848.786	3043
848.921	3058
849.057	3173
849.192	3150
849.328	3135
849.463	3138
849.598	3161
849.734	3138
849.869	3055
850.004	2975
850.14	3020
850.275	2986
850.41	2902
850.545	2933
850.68	3001
850.815	2986
850.95	3028
851.085	3245
851.22	3119
851.355	3089
851.49	3066
851.625	3005
851.76	3077
851.895	3013
852.03	2971
852.165	3085
852.299	3154
852.434	3256
852.569	3173
852.703	3211
852.838	3279
852.973	3386
853.107	3370
853.242	3188
853.376	3165
853.511	3013
853.645	3081
853.78	3272
853.914	3176
854.048	3150
854.183	3138
854.317	3211
854.451	3348
854.585	3199
854.72	3097
854.854	3245
854.988	3085
855.122	3108
855.256	3055
855.39	3192
855.524	3294
855.658	3207
855.792	3192
855.926	3237
856.06	3275
856.194	3272
856.327	3169
856.461	3112
856.595	3116
856.729	3142
856.862	3253
856.996	3253
857.13	3253
857.263	3287
857.397	3317
857.53	3165
857.664	3233
857.797	3302
857.931	3279
858.064	3226
858.197	3283
858.331	3192
858.464	3165
858.597	3062
858.731	3169
858.864	3157
858.997	3169
859.13	3237
859.263	3241
859.396	3192
859.529	3123
859.662	3100
859.795	3097
859.928	3184
860.061	3329
860.194	3348
860.327	3192
860.46	3138
860.592	3298
860.725	3241
860.858	3291
860.99	3169
861.123	3089
861.256	3116
861.388	3184
861.521	3857
861.653	3085
861.786	3028
861.918	3070
862.05	3093
862.183	3138
862.315	3249
862.447	3275
862.58	3154
862.712	2998
862.844	2933
862.976	3085
863.108	3020
863.24	3420
863.372	2902
863.504	3001
863.636	2986
863.768	3043
863.9	2998
864.032	2948
864.164	2998
864.296	3055
864.428	3119
864.559	3176
864.691	3116
864.823	3150
864.954	3070
865.086	3066
865.217	3062
865.349	3017
865.48	3039
865.612	3043
865.743	3211
865.875	3005
866.006	2982
866.137	2994
866.269	2994
866.4	2986
866.531	2982
866.662	2922
866.793	2895
866.924	2922
867.055	3020
867.186	2963
867.317	2906
867.448	2883
867.579	2914
867.71	2853
867.841	2834
867.972	2922
868.103	2971
868.233	2941
868.364	2895
868.495	2941
868.625	3119
868.756	3192
868.886	2967
869.017	3051
869.147	3150
869.278	3218
869.408	3093
869.539	3047
869.669	3108
869.799	3123
869.929	3131
870.06	3157
870.19	3378
870.32	3306
870.45	3374
870.58	3409
870.71	3492
870.84	3504
870.97	3321
871.1	3294
871.23	3492
871.36	3492
871.489	3416
871.619	3462
871.749	3458
871.879	3477
872.008	3530
872.138	3477
872.267	3355
872.397	3211
872.526	3142
872.656	3070
872.785	3157
872.915	3306
873.044	3355
873.173	3287
873.303	3310
873.432	3287
873.561	3302
873.69	3188
873.819	3203
873.948	3222
874.077	3131
874.206	3104
874.335	3138
874.464	3260
874.593	3412
874.722	3275
874.851	3412
874.979	3367
875.108	3370
875.237	3230
875.365	3241
875.494	3176
875.623	3291
875.751	3146
875.88	3138
876.008	3214
876.136	3275
876.265	3386
876.393	3545
876.521	3462
876.65	3420
876.778	3348
876.906	3268
877.034	3256
877.162	3249
877.29	3245
877.418	3275
877.546	3306
877.674	3275
877.802	3264
877.93	3294
878.058	3222
878.185	3100
878.313	3226
878.441	3275
878.568	3108
878.696	3176
878.824	3291
878.951	3348
879.079	3458
879.206	3656
879.333	3454
879.461	3359
879.588	3431
879.715	3511
879.842	3641
879.97	3447
880.097	3218
880.224	3161
880.351	3241
880.478	3260
880.605	3230
880.732	3184
880.859	3557
880.986	3329
881.112	3370
881.239	3260
881.366	3138
881.493	3062
881.619	3058
881.746	3104
881.872	3116
881.999	3157
882.125	3180
882.252	3298
882.378	3325
882.505	3473
882.631	3348
882.757	3180
882.883	3256
883.01	3268
883.136	3161
883.262	3127
883.388	3116
883.514	3378
883.64	3420
883.766	3317
883.892	3268
884.018	3291
884.143	3466
884.269	3614
884.395	3218
884.52	3184
884.646	3195
884.772	3176
884.897	3184
885.023	3245
885.148	3355
885.274	3443
885.399	3409
885.524	3313
885.65	3306
885.775	3374
885.9	3291
886.025	3466
886.15	3412
886.275	3355
886.4	3283
886.525	3306
886.65	3287
886.775	3291
886.9	3519
887.025	3622
887.149	3454
887.274	3283
887.399	3237
887.523	3226
887.648	3211
887.773	3237
887.897	3378
888.021	3431
888.146	3340
888.27	3507
888.395	3580
888.519	3492
888.643	3488
888.767	3458
888.891	3359
889.015	3268
889.139	3348
889.263	3306
889.387	3428
889.511	3523
889.635	3435
889.759	3306
889.883	3386
890.006	3450
890.13	3515
890.254	3268
890.377	3382
890.501	3249
890.624	3214
890.748	3355
890.871	3211
890.995	3154
891.118	3062
891.241	3245
891.364	3230
891.488	3336
891.611	3211
891.734	3249
891.857	3351
891.98	3264
892.103	3363
892.226	3329
892.349	3218
892.471	3154
892.594	3253
892.717	3363
892.839	3291
892.962	3302
893.085	3424
893.207	3313
893.33	3165
893.452	3233
893.575	3370
893.697	3332
893.819	3507
893.941	3519
894.064	3435
894.186	3321
894.308	3306
894.43	3469
894.552	3561
894.674	3511
894.796	3313
894.918	3351
895.04	3336
895.161	3485
895.283	3469
895.405	3325
895.526	3416
895.648	3469
895.769	3462
895.891	3473
896.012	3530
896.134	3526
896.255	3424
896.376	3412
896.498	3367
896.619	3454
896.74	3389
896.861	3447
896.982	3774
897.103	3876
897.224	3633
897.345	3561
897.466	3454
897.587	3557
897.708	3652
897.828	3572
897.949	3454
898.07	3363
898.19	3447
898.311	3663
898.431	3447
898.552	3526
898.672	3622
898.792	3648
898.913	3572
899.033	3431
899.153	3298
899.273	3260
899.393	3313
899.513	3332
899.633	3389
899.753	3340
899.873	3306
899.993	3412
900.113	3336
900.232	3431
900.352	3370
900.472	3359
900.591	3249
900.711	3363
900.83	3279
900.95	3443
901.069	3519
901.189	3424
901.308	3173
901.427	3188
901.546	3237
901.665	3306
901.784	3336
901.904	3241
902.023	3184
902.141	3043
902.26	3013
902.379	3195
902.498	3085
902.617	3100
902.735	3230
902.854	3249
902.973	3214
903.091	3081
903.21	3104
903.328	3169
903.446	3127
903.565	3146
903.683	3226
903.801	3192
903.919	3249
904.038	3310
904.156	3222
904.274	3329
904.392	3279
904.51	3310
904.627	3367
904.745	3450
904.863	3534
904.981	3237
905.098	3211
905.216	3245
905.334	3359
905.451	3344
905.569	3321
905.686	3485
905.803	3466
905.921	3325
906.038	3462
906.155	3378
906.272	3291
906.389	3378
906.506	3260
906.623	3310
906.74	3329
906.857	3207
906.974	3291
907.091	3488
907.208	3591
907.324	3488
907.441	3397
907.557	3287
907.674	3264
907.79	3226
907.907	3283
908.023	3374
908.139	3397
908.256	3370
908.372	3397
908.488	3367
908.604	3294
908.72	3268
908.836	3294
908.952	3279
909.068	3374
909.184	3519
909.3	3420
909.415	3553
909.531	3481
909.647	3275
909.762	3310
909.878	3336
909.993	3412
910.108	3351
910.224	3332
910.339	3458
910.454	3370
910.57	3310
910.685	3272
910.8	3625
910.915	3561
911.03	3420
911.145	3313
911.259	3264
911.374	3367
911.489	3260
911.604	3237
911.718	3138
911.833	3173
911.947	3085
912.062	3001
912.176	3176
912.291	3199
912.405	3237
912.519	3492
912.633	3473
912.748	3332
912.862	3294
912.976	3199
913.09	3085
913.204	3150
913.318	3245
913.431	3367
913.545	3325
913.659	3435
913.772	3325
913.886	3268
914	3226
914.113	3367
914.226	3435
914.34	3367
914.453	3230
914.566	3431
914.68	3321
914.793	3355
914.906	3180
915.019	3154
915.132	3077
915.245	3226
915.358	3272
915.47	3291
915.583	3294
915.696	3283
915.809	3473
915.921	3439
916.034	3298
916.146	3279
916.259	3218
916.371	3458
916.483	3416
916.595	3298
916.708	3332
916.82	3336
916.932	3401
917.044	3367
917.156	3359
917.268	3272
917.38	3363
917.491	3359
917.603	3428
917.715	3466
917.826	3507
917.938	3424
918.049	3302
918.161	3435
918.272	3614
918.384	3618
918.495	3515
918.606	3378
918.717	3317
918.828	3382
918.939	3443
919.05	3313
919.161	3389
919.272	3211
919.383	3313
919.494	3526
919.604	3713
919.715	3542
919.826	3462
919.936	3458
920.047	3660
920.157	3557
920.267	3797
920.378	3629
920.488	3610
920.598	3778
920.708	3949
920.818	3812
920.928	3880
921.038	4078
921.148	4002
921.258	3736
921.368	3694
921.477	3641
921.587	3542
921.697	3500
921.806	3652
921.916	3549
922.025	3359
922.134	3344
922.244	3348
922.353	3443
922.462	3279
922.571	3249
922.68	3154
922.789	3100
922.898	3184
923.007	3100
923.116	3268
923.224	3241
923.333	3203
923.442	3154
923.55	3116
923.659	3195
923.767	3230
923.876	3169
923.984	3275
924.092	3169
924.201	3230
924.309	3222
924.417	3283
924.525	3233
924.633	3237
924.741	4188
924.849	3032
924.956	3287
925.064	3138
925.172	3055
925.279	3127
925.387	3218
925.494	3218
925.602	3389
925.709	3351
925.816	3192
925.924	3317
926.031	3443
926.138	3332
926.245	3416
926.352	3237
926.459	3431
926.566	3473
926.673	3340
926.779	3310
926.886	3283
926.993	3192
927.099	3127
927.206	3176
927.312	3116
927.419	3272
927.525	3195
927.631	3279
927.737	3157
927.843	3119
927.95	3066
928.056	3230
928.162	3192
928.267	3287
928.373	3816
928.479	3332
928.585	3116
928.69	3245
928.796	3279
928.901	3192
929.007	3032
929.112	3218
929.218	3188
929.323	3131
929.428	3116
929.533	3313
929.638	3138
929.743	3233
929.848	3291
929.953	3214
930.058	3176
930.163	2982
930.267	3062
930.372	3245
930.477	3009
930.581	3370
930.685	3180
930.79	3112
930.894	3157
930.998	3131
931.103	3283
931.207	2975
931.311	2979
931.415	2956
931.519	2766
931.623	2804
