Data from test_V78500241_866.txt Node
Date: Fri Mar 25 16:21:12 CST 2022
User: usil
Spectrometer: V785-0024
Trigger mode: 0
Integration Time (sec): 4.000000E-1
Scans to average: 1
Nonlinearity correction enabled: false
Boxcar width: 0
Storing dark spectrum: false
XAxis mode: Wavelengths
Number of Pixels in Spectrum: 1024
>>>>>Begin Spectral Data<<<<<
801.071	2902
801.214	2929
801.356	2883
801.499	2887
801.641	2880
801.783	2933
801.926	3036
802.068	2998
802.211	2990
802.353	3020
802.496	2990
802.638	3005
802.78	3066
802.923	3074
803.065	2979
803.208	2914
803.35	2952
803.492	2914
803.635	2941
803.777	2769
803.919	2861
804.061	3184
804.204	2967
804.346	2902
804.488	2811
804.63	2990
804.773	2906
804.915	2895
805.057	3093
805.199	2910
805.341	2994
805.483	3017
805.626	2994
805.768	2922
805.91	3108
806.052	3116
806.194	3066
806.336	3233
806.478	3043
806.62	2944
806.762	3013
806.904	3032
807.046	3165
807.188	3001
807.33	2902
807.472	3039
807.614	2883
807.756	2979
807.898	2952
808.04	2853
808.182	2944
808.324	2960
808.465	2895
808.607	2864
808.749	2826
808.891	2861
809.033	2963
809.174	2952
809.316	2941
809.458	2922
809.6	2758
809.741	2785
809.883	2773
810.025	2849
810.166	2864
810.308	2811
810.45	2838
810.591	2766
810.733	2785
810.875	2834
811.016	2781
811.158	2750
811.299	2815
811.441	2941
811.582	2918
811.724	2845
811.865	2857
812.007	2887
812.148	2861
812.29	2845
812.431	2880
812.573	2941
812.714	2941
812.855	3017
812.997	3062
813.138	3112
813.279	2971
813.421	2933
813.562	2956
813.703	2887
813.845	2887
813.986	2785
814.127	2731
814.268	2811
814.41	2830
814.551	2815
814.692	2883
814.833	2826
814.974	2868
815.115	2952
815.256	2838
815.397	2823
815.539	2853
815.68	2777
815.821	2781
815.962	2937
816.103	2925
816.244	2842
816.385	2861
816.526	2952
816.666	2891
816.807	2720
816.948	2891
817.089	2929
817.23	2807
817.371	2773
817.512	2819
817.653	2861
817.793	2788
817.934	2868
818.075	2952
818.216	2990
818.356	3024
818.497	2883
818.638	2785
818.778	2796
818.919	2800
819.06	2750
819.2	2883
819.341	2826
819.481	2788
819.622	2922
819.762	3089
819.903	3043
820.043	2937
820.184	2887
820.324	2910
820.465	3024
820.605	3009
820.746	3028
820.886	2933
821.026	3085
821.167	3169
821.307	3249
821.447	3283
821.588	3161
821.728	3165
821.868	3230
822.008	3058
822.149	3188
822.289	3192
822.429	3081
822.569	3070
822.709	3184
822.849	3020
822.99	3036
823.13	3150
823.27	3173
823.41	3108
823.55	3154
823.69	3138
823.83	3161
823.97	3127
824.11	3024
824.25	2960
824.389	3058
824.529	3058
824.669	3047
824.809	3169
824.949	3279
825.089	3226
825.228	3154
825.368	3020
825.508	2960
825.648	2971
825.787	3013
825.927	3013
826.067	2918
826.206	2967
826.346	3036
826.485	3039
826.625	3108
826.765	3249
826.904	3192
827.044	2971
827.183	2914
827.323	2857
827.462	2975
827.601	2929
827.741	2933
827.88	2956
828.02	2842
828.159	2994
828.298	3024
828.437	3085
828.577	3024
828.716	3233
828.855	3085
828.994	2922
829.134	2895
829.273	2902
829.412	2883
829.551	2895
829.69	2902
829.829	2971
829.968	3154
830.107	3009
830.246	3017
830.385	2906
830.524	2880
830.663	2800
830.802	2701
830.941	2602
831.08	2663
831.219	2746
831.357	2746
831.496	2925
831.635	2689
831.774	2617
831.913	2648
832.051	2511
832.19	2602
832.329	2697
832.467	2530
832.606	2457
832.744	2587
832.883	2560
833.022	2552
833.16	2651
833.299	2686
833.437	2659
833.576	2686
833.714	2720
833.852	2697
833.991	2724
834.129	2830
834.267	2796
834.406	2781
834.544	2880
834.682	2887
834.821	2861
834.959	3062
835.097	2906
835.235	3074
835.373	3028
835.511	2971
835.65	2975
835.788	2925
835.926	2834
836.064	2800
836.202	2857
836.34	3085
836.478	3154
836.615	3032
836.753	3138
836.891	3188
837.029	3119
837.167	3089
837.305	3066
837.443	2998
837.58	2967
837.718	3116
837.856	3093
837.993	3001
838.131	3097
838.269	3100
838.406	3077
838.544	3043
838.681	2952
838.819	2933
838.956	2811
839.094	2826
839.231	2933
839.369	3005
839.506	3374
839.643	3199
839.781	2990
839.918	2982
840.055	3039
840.193	3039
840.33	3055
840.467	3066
840.604	3108
840.742	3389
840.879	3032
841.016	3017
841.153	3116
841.29	3321
841.427	3272
841.564	3279
841.701	3302
841.838	3157
841.975	3157
842.112	3207
842.249	3043
842.385	3055
842.522	3214
842.659	3081
842.796	3070
842.933	3097
843.069	3020
843.206	3009
843.343	3199
843.479	3077
843.616	3108
843.752	2861
843.889	2883
844.025	3074
844.162	2883
844.298	3089
844.435	2918
844.571	2929
844.708	3058
844.844	3146
844.98	3241
845.117	3195
845.253	3036
845.389	2986
845.525	3074
845.661	3119
845.798	3009
845.934	3104
846.07	3036
846.206	3237
846.342	3306
846.478	3226
846.614	3081
846.75	3032
846.886	3024
847.022	3253
847.158	3135
847.294	3180
847.429	3203
847.565	3199
847.701	3504
847.837	3009
847.972	2990
848.108	3142
848.244	3138
848.379	2960
848.515	2895
848.65	2922
848.786	2960
848.921	2998
849.057	3119
849.192	3169
849.328	3036
849.463	3093
849.598	3047
849.734	3024
849.869	2944
850.004	2944
850.14	2944
850.275	2910
850.41	2826
850.545	2872
850.68	2914
850.815	2952
850.95	2990
851.085	3173
851.22	3093
851.355	3032
851.49	2979
851.625	2979
851.76	2963
851.895	2944
852.03	2895
852.165	3039
852.299	3093
852.434	3176
852.569	3100
852.703	3176
852.838	3230
852.973	3340
853.107	3306
853.242	3150
853.376	3077
853.511	2979
853.645	3039
853.78	3294
853.914	3138
854.048	3112
854.183	3085
854.317	3127
854.451	3298
854.585	3123
854.72	3051
854.854	3203
854.988	3043
855.122	3104
855.256	2971
855.39	3089
855.524	3253
855.658	3180
855.792	3131
855.926	3214
856.06	3211
856.194	3264
856.327	3127
856.461	3062
856.595	3051
856.729	3058
856.862	3211
856.996	3173
857.13	3138
857.263	3195
857.397	3264
857.53	3119
857.664	3199
857.797	3233
857.931	3253
858.064	3173
858.197	3226
858.331	3135
858.464	3047
858.597	2963
858.731	3127
858.864	3131
858.997	3074
859.13	3135
859.263	3184
859.396	3203
859.529	3047
859.662	3066
859.795	3032
859.928	3138
860.061	3272
860.194	3272
860.327	3119
860.46	3108
860.592	3230
860.725	3245
860.858	3211
860.99	3074
861.123	3032
861.256	3051
861.388	3127
861.521	3800
861.653	3024
861.786	2944
861.918	2986
862.05	3051
862.183	3062
862.315	3138
862.447	3230
862.58	3097
862.712	2902
862.844	2883
862.976	2994
863.108	3001
863.24	3313
863.372	2868
863.504	2941
863.636	2929
863.768	3024
863.9	2986
864.032	2910
864.164	2933
864.296	3032
864.428	3036
864.559	3070
864.691	3097
864.823	3024
864.954	2990
865.086	3043
865.217	2998
865.349	2902
865.48	2986
865.612	3028
865.743	3150
865.875	3024
866.006	2922
866.137	2963
866.269	2952
866.4	2918
866.531	2906
866.662	2864
866.793	2861
866.924	2857
867.055	2948
867.186	2944
867.317	2872
867.448	2853
867.579	2830
867.71	2830
867.841	2781
867.972	2868
868.103	2925
868.233	2876
868.364	2861
868.495	2880
868.625	3039
868.756	3154
868.886	2986
869.017	3013
869.147	3138
869.278	3135
869.408	3024
869.539	3058
869.669	3093
869.799	3024
869.929	3123
870.06	3119
870.19	3275
870.32	3233
870.45	3317
870.58	3370
870.71	3431
870.84	3409
870.97	3283
871.1	3226
871.23	3469
871.36	3466
871.489	3306
871.619	3409
871.749	3389
871.879	3462
872.008	3447
872.138	3348
872.267	3302
872.397	3108
872.526	3089
872.656	3001
872.785	3093
872.915	3249
873.044	3306
873.173	3226
873.303	3222
873.432	3241
873.561	3241
873.69	3165
873.819	3146
873.948	3180
874.077	3085
874.206	3039
874.335	3074
874.464	3218
874.593	3329
874.722	3241
874.851	3325
874.979	3306
875.108	3310
875.237	3173
875.365	3180
875.494	3173
875.623	3249
875.751	3074
875.88	3074
876.008	3214
876.136	3211
876.265	3351
876.393	3462
876.521	3409
876.65	3420
876.778	3340
876.906	3233
877.034	3195
877.162	3199
877.29	3169
877.418	3211
877.546	3207
877.674	3226
877.802	3222
877.93	3195
878.058	3116
878.185	3104
878.313	3161
878.441	3173
878.568	3036
878.696	3150
878.824	3214
878.951	3249
879.079	3431
879.206	3587
879.333	3409
879.461	3298
879.588	3332
879.715	3473
879.842	3568
879.97	3409
880.097	3142
880.224	3085
880.351	3154
880.478	3207
880.605	3165
880.732	3150
880.859	3515
880.986	3313
881.112	3302
881.239	3188
881.366	3085
881.493	3039
881.619	2994
881.746	3051
881.872	3100
881.999	3135
882.125	3142
882.252	3222
882.378	3275
882.505	3382
882.631	3260
882.757	3100
882.883	3230
883.01	3176
883.136	3180
883.262	3085
883.388	3089
883.514	3313
883.64	3386
883.766	3294
883.892	3195
884.018	3192
884.143	3378
884.269	3511
884.395	3195
884.52	3157
884.646	3188
884.772	3100
884.897	3119
885.023	3233
885.148	3329
885.274	3424
885.399	3359
885.524	3321
885.65	3298
885.775	3321
885.9	3291
886.025	3439
886.15	3382
886.275	3256
886.4	3184
886.525	3298
886.65	3245
886.775	3256
886.9	3488
887.025	3606
887.149	3412
887.274	3245
887.399	3188
887.523	3195
887.648	3184
887.773	3173
887.897	3310
888.021	3416
888.146	3264
888.27	3450
888.395	3511
888.519	3428
888.643	3466
888.767	3466
888.891	3283
889.015	3298
889.139	3298
889.263	3226
889.387	3428
889.511	3507
889.635	3443
889.759	3264
889.883	3272
890.006	3405
890.13	3481
890.254	3237
890.377	3355
890.501	3188
890.624	3188
890.748	3325
890.871	3142
890.995	3104
891.118	3066
891.241	3203
891.364	3169
891.488	3291
891.611	3161
891.734	3192
891.857	3298
891.98	3203
892.103	3332
892.226	3226
892.349	3161
892.471	3077
892.594	3241
892.717	3302
892.839	3291
892.962	3313
893.085	3355
893.207	3237
893.33	3154
893.452	3192
893.575	3359
893.697	3230
893.819	3481
893.941	3488
894.064	3435
894.186	3230
894.308	3253
894.43	3428
894.552	3530
894.674	3443
894.796	3203
894.918	3298
895.04	3279
895.161	3462
895.283	3378
895.405	3264
895.526	3325
895.648	3420
895.769	3409
895.891	3428
896.012	3507
896.134	3447
896.255	3412
896.376	3393
896.498	3317
896.619	3428
896.74	3370
896.861	3355
896.982	3671
897.103	3823
897.224	3591
897.345	3481
897.466	3420
897.587	3412
897.708	3614
897.828	3534
897.949	3416
898.07	3336
898.19	3439
898.311	3564
898.431	3435
898.552	3530
898.672	3610
898.792	3568
898.913	3564
899.033	3405
899.153	3302
899.273	3233
899.393	3264
899.513	3313
899.633	3313
899.753	3340
899.873	3306
899.993	3382
900.113	3306
900.232	3431
900.352	3348
900.472	3321
900.591	3222
900.711	3306
900.83	3237
900.95	3428
901.069	3492
901.189	3367
901.308	3199
901.427	3165
901.546	3184
901.665	3313
901.784	3378
901.904	3233
902.023	3184
902.141	3032
902.26	3066
902.379	3173
902.498	3104
902.617	3097
902.735	3226
902.854	3268
902.973	3214
903.091	3123
903.21	3116
903.328	3157
903.446	3127
903.565	3150
903.683	3222
903.801	3123
903.919	3287
904.038	3340
904.156	3207
904.274	3355
904.392	3321
904.51	3351
904.627	3359
904.745	3488
904.863	3507
904.981	3298
905.098	3237
905.216	3275
905.334	3363
905.451	3351
905.569	3313
905.686	3466
905.803	3485
905.921	3329
906.038	3462
906.155	3389
906.272	3336
906.389	3359
906.506	3272
906.623	3287
906.74	3283
906.857	3256
906.974	3317
907.091	3469
907.208	3603
907.324	3496
907.441	3412
907.557	3237
907.674	3279
907.79	3245
907.907	3279
908.023	3439
908.139	3416
908.256	3363
908.372	3409
908.488	3397
908.604	3302
908.72	3256
908.836	3298
908.952	3294
909.068	3378
909.184	3545
909.3	3424
909.415	3534
909.531	3515
909.647	3340
909.762	3313
909.878	3279
909.993	3393
910.108	3367
910.224	3389
910.339	3435
910.454	3382
910.57	3359
910.685	3272
910.8	3603
910.915	3564
911.03	3454
911.145	3329
911.259	3291
911.374	3348
911.489	3233
911.604	3275
911.718	3161
911.833	3192
911.947	3058
912.062	3013
912.176	3161
912.291	3218
912.405	3256
912.519	3485
912.633	3469
912.748	3332
912.862	3325
912.976	3222
913.09	3093
913.204	3173
913.318	3249
913.431	3367
913.545	3378
913.659	3439
913.772	3336
913.886	3233
914	3260
914.113	3409
914.226	3447
914.34	3374
914.453	3253
914.566	3389
914.68	3336
914.793	3302
914.906	3157
915.019	3154
915.132	3116
915.245	3226
915.358	3211
915.47	3268
915.583	3302
915.696	3291
915.809	3435
915.921	3450
916.034	3317
916.146	3275
916.259	3294
916.371	3454
916.483	3428
916.595	3298
916.708	3355
916.82	3344
916.932	3355
917.044	3397
917.156	3367
917.268	3253
917.38	3332
917.491	3302
917.603	3397
917.715	3450
917.826	3504
917.938	3420
918.049	3336
918.161	3447
918.272	3603
918.384	3591
918.495	3469
918.606	3355
918.717	3317
918.828	3428
918.939	3435
919.05	3302
919.161	3386
919.272	3218
919.383	3302
919.494	3523
919.604	3705
919.715	3526
919.826	3397
919.936	3500
920.047	3614
920.157	3587
920.267	3827
920.378	3656
920.488	3595
920.598	3846
920.708	3975
920.818	3819
920.928	3857
921.038	4055
921.148	4029
921.258	3724
921.368	3641
921.477	3572
921.587	3542
921.697	3488
921.806	3671
921.916	3557
922.025	3386
922.134	3420
922.244	3351
922.353	3500
922.462	3279
922.571	3260
922.68	3161
922.789	3108
922.898	3165
923.007	3138
923.116	3256
923.224	3199
923.333	3230
923.442	3157
923.55	3138
923.659	3169
923.767	3245
923.876	3154
923.984	3268
924.092	3093
924.201	3218
924.309	3283
924.417	3245
924.525	3195
924.633	3249
924.741	4238
924.849	3077
924.956	3279
925.064	3112
925.172	3104
925.279	3138
925.387	3222
925.494	3237
925.602	3428
925.709	3313
925.816	3237
925.924	3317
926.031	3386
926.138	3374
926.245	3389
926.352	3283
926.459	3443
926.566	3504
926.673	3332
926.779	3283
926.886	3291
926.993	3188
927.099	3188
927.206	3135
927.312	3180
927.419	3256
927.525	3214
927.631	3310
927.737	3176
927.843	3135
927.95	3093
928.056	3176
928.162	3180
928.267	3306
928.373	3789
928.479	3298
928.585	3093
928.69	3237
928.796	3298
928.901	3176
929.007	3081
929.112	3275
929.218	3207
929.323	3211
929.428	3180
929.533	3340
929.638	3138
929.743	3195
929.848	3283
929.953	3222
930.058	3173
930.163	3013
930.267	3039
930.372	3207
930.477	3081
930.581	3367
930.685	3218
930.79	3062
930.894	3157
930.998	3116
931.103	3302
931.207	2967
931.311	2998
931.415	2941
931.519	2815
931.623	2864
