Data from test_V78500241_485.txt Node
Date: Fri Mar 25 16:18:33 CST 2022
User: usil
Spectrometer: V785-0024
Trigger mode: 0
Integration Time (sec): 4.000000E-1
Scans to average: 1
Nonlinearity correction enabled: false
Boxcar width: 0
Storing dark spectrum: false
XAxis mode: Wavelengths
Number of Pixels in Spectrum: 1024
>>>>>Begin Spectral Data<<<<<
801.071	2910
801.214	2948
801.356	2842
801.499	2887
801.641	2853
801.783	2948
801.926	3062
802.068	2975
802.211	2994
802.353	3028
802.496	2952
802.638	2986
802.78	3024
802.923	3085
803.065	3001
803.208	2891
803.35	2933
803.492	2918
803.635	2880
803.777	2758
803.919	2891
804.061	3173
804.204	2952
804.346	2895
804.488	2838
804.63	2948
804.773	2880
804.915	2895
805.057	3070
805.199	2887
805.341	2944
805.483	3009
805.626	2990
805.768	2979
805.91	3070
806.052	3062
806.194	3024
806.336	3245
806.478	3001
806.62	2918
806.762	2922
806.904	3055
807.046	3127
807.188	2941
807.33	2895
807.472	2990
807.614	2895
807.756	2998
807.898	2914
808.04	2830
808.182	2960
808.324	2937
808.465	2864
808.607	2826
808.749	2785
808.891	2815
809.033	2952
809.174	2967
809.316	2883
809.458	2872
809.6	2716
809.741	2781
809.883	2735
810.025	2830
810.166	2887
810.308	2804
810.45	2777
810.591	2766
810.733	2743
810.875	2826
811.016	2754
811.158	2727
811.299	2785
811.441	2906
811.582	2861
811.724	2766
811.865	2830
812.007	2887
812.148	2849
812.29	2819
812.431	2845
812.573	2922
812.714	2922
812.855	2994
812.997	3009
813.138	3108
813.279	2960
813.421	2948
813.562	2952
813.703	2883
813.845	2876
813.986	2754
814.127	2705
814.268	2769
814.41	2826
814.551	2811
814.692	2853
814.833	2785
814.974	2868
815.115	2948
815.256	2823
815.397	2788
815.539	2880
815.68	2773
815.821	2777
815.962	2929
816.103	2914
816.244	2864
816.385	2868
816.526	2967
816.666	2956
816.807	2758
816.948	2861
817.089	2887
817.23	2864
817.371	2838
817.512	2804
817.653	2807
817.793	2830
817.934	2849
818.075	2998
818.216	3017
818.356	3043
818.497	2918
818.638	2842
818.778	2861
818.919	2804
819.06	2792
819.2	2891
819.341	2857
819.481	2842
819.622	2967
819.762	3154
819.903	3055
820.043	2933
820.184	2933
820.324	2948
820.465	3036
820.605	2994
820.746	3047
820.886	2956
821.026	3097
821.167	3203
821.307	3279
821.447	3351
821.588	3279
821.728	3241
821.868	3253
822.008	3142
822.149	3199
822.289	3272
822.429	3127
822.569	3112
822.709	3226
822.849	3093
822.99	3093
823.13	3165
823.27	3203
823.41	3142
823.55	3199
823.69	3173
823.83	3237
823.97	3150
824.11	3066
824.25	3036
824.389	3116
824.529	3119
824.669	3047
824.809	3249
824.949	3253
825.089	3230
825.228	3233
825.368	3051
825.508	3005
825.648	2986
825.787	3028
825.927	3089
826.067	3020
826.206	3013
826.346	3100
826.485	3074
826.625	3173
826.765	3264
826.904	3188
827.044	3013
827.183	2963
827.323	2910
827.462	3009
827.601	2960
827.741	2956
827.88	2990
828.02	2876
828.159	2990
828.298	3051
828.437	3184
828.577	3066
828.716	3294
828.855	3157
828.994	2963
829.134	2948
829.273	2948
829.412	2914
829.551	2895
829.69	2937
829.829	3036
829.968	3184
830.107	3081
830.246	3055
830.385	2979
830.524	2910
830.663	2857
830.802	2785
830.941	2727
831.08	2648
831.219	2807
831.357	2743
831.496	2967
831.635	2769
831.774	2663
831.913	2678
832.051	2606
832.19	2602
832.329	2731
832.467	2541
832.606	2522
832.744	2632
832.883	2610
833.022	2602
833.16	2674
833.299	2716
833.437	2716
833.576	2743
833.714	2724
833.852	2746
833.991	2773
834.129	2883
834.267	2849
834.406	2826
834.544	2902
834.682	2902
834.821	2914
834.959	3135
835.097	2960
835.235	3089
835.373	3005
835.511	3009
835.65	2941
835.788	2960
835.926	2887
836.064	2853
836.202	2895
836.34	3146
836.478	3184
836.615	3100
836.753	3169
836.891	3233
837.029	3184
837.167	3142
837.305	3062
837.443	3085
837.58	3009
837.718	3173
837.856	3142
837.993	3032
838.131	3180
838.269	3138
838.406	3169
838.544	3142
838.681	2963
838.819	2948
838.956	2849
839.094	2876
839.231	2944
839.369	3058
839.506	3424
839.643	3226
839.781	3028
839.918	3017
840.055	3043
840.193	3081
840.33	3093
840.467	3119
840.604	3199
840.742	3450
840.879	3062
841.016	3070
841.153	3112
841.29	3363
841.427	3302
841.564	3283
841.701	3340
841.838	3199
841.975	3188
842.112	3199
842.249	3131
842.385	3070
842.522	3237
842.659	3116
842.796	3055
842.933	3119
843.069	3043
843.206	3089
843.343	3188
843.479	3154
843.616	3173
843.752	2891
843.889	2887
844.025	3119
844.162	2906
844.298	3104
844.435	3005
844.571	2948
844.708	3116
844.844	3214
844.98	3256
845.117	3211
845.253	3097
845.389	3017
845.525	3100
845.661	3142
845.798	3020
845.934	3150
846.07	3066
846.206	3260
846.342	3367
846.478	3241
846.614	3150
846.75	3081
846.886	3070
847.022	3294
847.158	3161
847.294	3268
847.429	3306
847.565	3237
847.701	3477
847.837	3051
847.972	3009
848.108	3176
848.244	3169
848.379	3032
848.515	2975
848.65	2975
848.786	2952
848.921	3036
849.057	3100
849.192	3161
849.328	3077
849.463	3119
849.598	3100
849.734	3062
849.869	3001
850.004	2918
850.14	2994
850.275	2948
850.41	2845
850.545	2872
850.68	2960
850.815	2963
850.95	2998
851.085	3241
851.22	3135
851.355	3009
851.49	3001
851.625	3055
851.76	3047
851.895	2895
852.03	2929
852.165	3043
852.299	3161
852.434	3211
852.569	3176
852.703	3203
852.838	3272
852.973	3344
853.107	3370
853.242	3184
853.376	3058
853.511	2975
853.645	3051
853.78	3237
853.914	3116
854.048	3127
854.183	3116
854.317	3138
854.451	3317
854.585	3165
854.72	3127
854.854	3211
854.988	3112
855.122	3100
855.256	3013
855.39	3146
855.524	3272
855.658	3207
855.792	3188
855.926	3199
856.06	3230
856.194	3310
856.327	3173
856.461	3097
856.595	3074
856.729	3127
856.862	3268
856.996	3199
857.13	3214
857.263	3214
857.397	3283
857.53	3112
857.664	3214
857.797	3237
857.931	3264
858.064	3203
858.197	3253
858.331	3192
858.464	3108
858.597	3066
858.731	3154
858.864	3127
858.997	3074
859.13	3176
859.263	3176
859.396	3199
859.529	3097
859.662	3123
859.795	3089
859.928	3161
860.061	3306
860.194	3313
860.327	3184
860.46	3135
860.592	3218
860.725	3241
860.858	3283
860.99	3142
861.123	3070
861.256	3081
861.388	3165
861.521	3896
861.653	3020
861.786	2982
861.918	3017
862.05	3100
862.183	3108
862.315	3176
862.447	3203
862.58	3097
862.712	2990
862.844	2910
862.976	3058
863.108	3039
863.24	3355
863.372	2922
863.504	2994
863.636	2967
863.768	3009
863.9	2982
864.032	2937
864.164	2948
864.296	3055
864.428	3146
864.559	3138
864.691	3093
864.823	3112
864.954	3024
865.086	3070
865.217	2979
865.349	2975
865.48	3001
865.612	3066
865.743	3195
865.875	2986
866.006	2937
866.137	2986
866.269	2971
866.4	2941
866.531	2895
866.662	2906
866.793	2880
866.924	2914
867.055	2998
867.186	2937
867.317	2891
867.448	2861
867.579	2819
867.71	2895
867.841	2845
867.972	2914
868.103	2906
868.233	2941
868.364	2929
868.495	2910
868.625	3089
868.756	3169
868.886	2971
869.017	3058
869.147	3207
869.278	3184
869.408	3024
869.539	3009
869.669	3119
869.799	3085
869.929	3138
870.06	3100
870.19	3348
870.32	3313
870.45	3306
870.58	3405
870.71	3458
870.84	3439
870.97	3264
871.1	3260
871.23	3481
871.36	3458
871.489	3386
871.619	3416
871.749	3420
871.879	3439
872.008	3488
872.138	3329
872.267	3279
872.397	3154
872.526	3150
872.656	3020
872.785	3085
872.915	3272
873.044	3359
873.173	3249
873.303	3241
873.432	3260
873.561	3233
873.69	3150
873.819	3146
873.948	3218
874.077	3104
874.206	3074
874.335	3074
874.464	3226
874.593	3359
874.722	3253
874.851	3405
874.979	3355
875.108	3340
875.237	3199
875.365	3180
875.494	3188
875.623	3298
875.751	3097
875.88	3123
876.008	3226
876.136	3264
876.265	3393
876.393	3519
876.521	3424
876.65	3401
876.778	3325
876.906	3287
877.034	3237
877.162	3230
877.29	3184
877.418	3222
877.546	3237
877.674	3245
877.802	3260
877.93	3241
878.058	3154
878.185	3138
878.313	3230
878.441	3211
878.568	3051
878.696	3173
878.824	3256
878.951	3272
879.079	3431
879.206	3637
879.333	3409
879.461	3329
879.588	3348
879.715	3500
879.842	3576
879.97	3344
880.097	3154
880.224	3112
880.351	3211
880.478	3237
880.605	3214
880.732	3199
880.859	3519
880.986	3329
881.112	3302
881.239	3176
881.366	3081
881.493	3074
881.619	3013
881.746	3089
881.872	3104
881.999	3135
882.125	3161
882.252	3256
882.378	3283
882.505	3409
882.631	3279
882.757	3161
882.883	3230
883.01	3260
883.136	3214
883.262	3112
883.388	3097
883.514	3317
883.64	3401
883.766	3329
883.892	3230
884.018	3237
884.143	3405
884.269	3530
884.395	3253
884.52	3180
884.646	3195
884.772	3138
884.897	3142
885.023	3211
885.148	3344
885.274	3428
885.399	3355
885.524	3283
885.65	3253
885.775	3321
885.9	3283
886.025	3435
886.15	3348
886.275	3321
886.4	3275
886.525	3344
886.65	3283
886.775	3302
886.9	3492
887.025	3679
887.149	3431
887.274	3260
887.399	3214
887.523	3188
887.648	3211
887.773	3199
887.897	3370
888.021	3412
888.146	3302
888.27	3458
888.395	3538
888.519	3458
888.643	3469
888.767	3492
888.891	3336
889.015	3272
889.139	3264
889.263	3214
889.387	3435
889.511	3538
889.635	3439
889.759	3298
889.883	3329
890.006	3435
890.13	3496
890.254	3310
890.377	3378
890.501	3245
890.624	3154
890.748	3306
890.871	3195
890.995	3154
891.118	3077
891.241	3199
891.364	3226
891.488	3298
891.611	3180
891.734	3237
891.857	3348
891.98	3241
892.103	3344
892.226	3317
892.349	3245
892.471	3154
892.594	3268
892.717	3325
892.839	3279
892.962	3313
893.085	3367
893.207	3310
893.33	3135
893.452	3211
893.575	3355
893.697	3214
893.819	3477
893.941	3492
894.064	3500
894.186	3249
894.308	3283
894.43	3439
894.552	3557
894.674	3439
894.796	3298
894.918	3340
895.04	3298
895.161	3435
895.283	3397
895.405	3313
895.526	3412
895.648	3401
895.769	3443
895.891	3458
896.012	3488
896.134	3466
896.255	3397
896.376	3416
896.498	3374
896.619	3431
896.74	3340
896.861	3416
896.982	3720
897.103	3838
897.224	3618
897.345	3534
897.466	3428
897.587	3477
897.708	3614
897.828	3542
897.949	3511
898.07	3332
898.19	3378
898.311	3564
898.431	3439
898.552	3511
898.672	3572
898.792	3557
898.913	3515
899.033	3424
899.153	3264
899.273	3203
899.393	3310
899.513	3325
899.633	3275
899.753	3340
899.873	3344
899.993	3405
900.113	3317
900.232	3374
900.352	3363
900.472	3279
900.591	3230
900.711	3294
900.83	3222
900.95	3416
901.069	3469
901.189	3329
901.308	3188
901.427	3119
901.546	3203
901.665	3367
901.784	3313
901.904	3176
902.023	3138
902.141	3009
902.26	3013
902.379	3154
902.498	3055
902.617	3074
902.735	3207
902.854	3203
902.973	3188
903.091	3036
903.21	3058
903.328	3142
903.446	3142
903.565	3119
903.683	3226
903.801	3142
903.919	3230
904.038	3298
904.156	3161
904.274	3264
904.392	3294
904.51	3291
904.627	3306
904.745	3447
904.863	3504
904.981	3237
905.098	3142
905.216	3264
905.334	3268
905.451	3317
905.569	3279
905.686	3416
905.803	3420
905.921	3275
906.038	3431
906.155	3363
906.272	3275
906.389	3359
906.506	3253
906.623	3264
906.74	3298
906.857	3226
906.974	3253
907.091	3477
907.208	3591
907.324	3469
907.441	3428
907.557	3253
907.674	3203
907.79	3222
907.907	3253
908.023	3374
908.139	3386
908.256	3329
908.372	3397
908.488	3386
908.604	3253
908.72	3272
908.836	3249
908.952	3287
909.068	3359
909.184	3477
909.3	3401
909.415	3504
909.531	3496
909.647	3253
909.762	3264
909.878	3253
909.993	3370
910.108	3283
910.224	3344
910.339	3428
910.454	3321
910.57	3310
910.685	3298
910.8	3595
910.915	3504
911.03	3428
911.145	3256
911.259	3279
911.374	3329
911.489	3275
911.604	3226
911.718	3116
911.833	3154
911.947	3055
912.062	3013
912.176	3150
912.291	3184
912.405	3207
912.519	3428
912.633	3458
912.748	3351
912.862	3260
912.976	3157
913.09	3100
913.204	3119
913.318	3211
913.431	3348
913.545	3355
913.659	3428
913.772	3355
913.886	3222
914	3207
914.113	3374
914.226	3412
914.34	3378
914.453	3233
914.566	3439
914.68	3294
914.793	3340
914.906	3150
915.019	3089
915.132	3062
915.245	3169
915.358	3207
915.47	3214
915.583	3241
915.696	3302
915.809	3412
915.921	3428
916.034	3241
916.146	3226
916.259	3199
916.371	3397
916.483	3363
916.595	3260
916.708	3351
916.82	3325
916.932	3370
917.044	3374
917.156	3332
917.268	3256
917.38	3321
917.491	3275
917.603	3344
917.715	3496
917.826	3477
917.938	3389
918.049	3275
918.161	3435
918.272	3599
918.384	3584
918.495	3511
918.606	3348
918.717	3283
918.828	3363
918.939	3443
919.05	3321
919.161	3386
919.272	3131
919.383	3291
919.494	3466
919.604	3671
919.715	3469
919.826	3389
919.936	3443
920.047	3603
920.157	3557
920.267	3785
920.378	3568
920.488	3568
920.598	3743
920.708	3979
920.818	3823
920.928	3823
921.038	4017
921.148	4017
921.258	3747
921.368	3644
921.477	3557
921.587	3538
921.697	3454
921.806	3614
921.916	3511
922.025	3302
922.134	3351
922.244	3302
922.353	3386
922.462	3275
922.571	3199
922.68	3108
922.789	3127
922.898	3131
923.007	3077
923.116	3199
923.224	3184
923.333	3180
923.442	3100
923.55	3112
923.659	3157
923.767	3237
923.876	3123
923.984	3275
924.092	3135
924.201	3173
924.309	3211
924.417	3272
924.525	3233
924.633	3256
924.741	3994
924.849	3028
924.956	3275
925.064	3077
925.172	3039
925.279	3112
925.387	3207
925.494	3203
925.602	3344
925.709	3325
925.816	3180
925.924	3306
926.031	3370
926.138	3294
926.245	3386
926.352	3226
926.459	3416
926.566	3439
926.673	3325
926.779	3249
926.886	3226
926.993	3119
927.099	3074
927.206	3146
927.312	3150
927.419	3233
927.525	3218
927.631	3268
927.737	3150
927.843	3119
927.95	3028
928.056	3104
928.162	3192
928.267	3302
928.373	3762
928.479	3298
928.585	3043
928.69	3256
928.796	3272
928.901	3138
929.007	3077
929.112	3176
929.218	3180
929.323	3161
929.428	3192
929.533	3351
929.638	3104
929.743	3203
929.848	3275
929.953	3207
930.058	3146
930.163	3009
930.267	3043
930.372	3169
930.477	3051
930.581	3294
930.685	3161
930.79	3005
930.894	3119
930.998	3081
931.103	3279
931.207	2925
931.311	2944
931.415	2941
931.519	2781
931.623	2826
