Data from test_V78500241_1644.txt Node
Date: Fri Mar 25 16:26:35 CST 2022
User: usil
Spectrometer: V785-0024
Trigger mode: 0
Integration Time (sec): 4.000000E-1
Scans to average: 1
Nonlinearity correction enabled: false
Boxcar width: 0
Storing dark spectrum: false
XAxis mode: Wavelengths
Number of Pixels in Spectrum: 1024
>>>>>Begin Spectral Data<<<<<
801.071	2891
801.214	2952
801.356	2842
801.499	2887
801.641	2849
801.783	2929
801.926	3032
802.068	2929
802.211	2998
802.353	3043
802.496	2937
802.638	2963
802.78	3036
802.923	3058
803.065	2998
803.208	2906
803.35	2902
803.492	2937
803.635	2933
803.777	2689
803.919	2857
804.061	3211
804.204	2925
804.346	2925
804.488	2830
804.63	2963
804.773	2899
804.915	2883
805.057	3058
805.199	2906
805.341	2956
805.483	3028
805.626	2982
805.768	2971
805.91	3097
806.052	3104
806.194	3051
806.336	3188
806.478	3017
806.62	2933
806.762	2975
806.904	3051
807.046	3169
807.188	2994
807.33	2922
807.472	2982
807.614	2899
807.756	2990
807.898	2910
808.04	2861
808.182	2975
808.324	2944
808.465	2887
808.607	2853
808.749	2796
808.891	2876
809.033	2986
809.174	2960
809.316	2857
809.458	2887
809.6	2777
809.741	2769
809.883	2773
810.025	2861
810.166	2849
810.308	2834
810.45	2849
810.591	2781
810.733	2773
810.875	2849
811.016	2758
811.158	2758
811.299	2788
811.441	2944
811.582	2895
811.724	2815
811.865	2845
812.007	2906
812.148	2853
812.29	2868
812.431	2883
812.573	2914
812.714	2960
812.855	3009
812.997	3062
813.138	3146
813.279	3001
813.421	3017
813.562	2956
813.703	2861
813.845	2880
813.986	2796
814.127	2720
814.268	2819
814.41	2842
814.551	2811
814.692	2880
814.833	2796
814.974	2914
815.115	2952
815.256	2842
815.397	2811
815.539	2834
815.68	2777
815.821	2785
815.962	2948
816.103	2914
816.244	2895
816.385	2845
816.526	2944
816.666	2929
816.807	2773
816.948	2914
817.089	2914
817.23	2845
817.371	2792
817.512	2758
817.653	2815
817.793	2811
817.934	2861
818.075	2971
818.216	2998
818.356	3039
818.497	2845
818.638	2785
818.778	2773
818.919	2766
819.06	2735
819.2	2861
819.341	2785
819.481	2804
819.622	2941
819.762	3074
819.903	3032
820.043	2922
820.184	2872
820.324	2887
820.465	2975
820.605	2994
820.746	3013
820.886	2902
821.026	3085
821.167	3154
821.307	3279
821.447	3283
821.588	3218
821.728	3214
821.868	3211
822.008	3020
822.149	3138
822.289	3241
822.429	3062
822.569	3081
822.709	3161
822.849	3009
822.99	3089
823.13	3157
823.27	3184
823.41	3116
823.55	3085
823.69	3146
823.83	3154
823.97	3123
824.11	3020
824.25	2971
824.389	3028
824.529	3104
824.669	3058
824.809	3192
824.949	3249
825.089	3195
825.228	3192
825.368	2994
825.508	2944
825.648	2956
825.787	2971
825.927	3024
826.067	2979
826.206	2963
826.346	3032
826.485	3066
826.625	3135
826.765	3226
826.904	3222
827.044	2975
827.183	2944
827.323	2834
827.462	2941
827.601	2937
827.741	2922
827.88	2963
828.02	2868
828.159	2933
828.298	3047
828.437	3127
828.577	3058
828.716	3218
828.855	3062
828.994	2906
829.134	2876
829.273	2910
829.412	2853
829.551	2868
829.69	2883
829.829	2963
829.968	3131
830.107	2998
830.246	2998
830.385	2883
830.524	2883
830.663	2834
830.802	2720
830.941	2663
831.08	2610
831.219	2727
831.357	2758
831.496	2998
831.635	2720
831.774	2651
831.913	2644
832.051	2549
832.19	2552
832.329	2663
832.467	2526
832.606	2457
832.744	2571
832.883	2552
833.022	2571
833.16	2625
833.299	2708
833.437	2693
833.576	2689
833.714	2708
833.852	2705
833.991	2758
834.129	2807
834.267	2830
834.406	2777
834.544	2842
834.682	2902
834.821	2864
834.959	3024
835.097	2899
835.235	3047
835.373	2937
835.511	3005
835.65	2982
835.788	2956
835.926	2826
836.064	2815
836.202	2830
836.34	3119
836.478	3161
836.615	3020
836.753	3123
836.891	3199
837.029	3131
837.167	3081
837.305	3028
837.443	3028
837.58	2952
837.718	3100
837.856	3089
837.993	3013
838.131	3123
838.269	3093
838.406	3100
838.544	3081
838.681	2906
838.819	2956
838.956	2857
839.094	2826
839.231	2902
839.369	3013
839.506	3340
839.643	3192
839.781	3009
839.918	2960
840.055	3013
840.193	3020
840.33	3066
840.467	3081
840.604	3138
840.742	3386
840.879	3032
841.016	3081
841.153	3089
841.29	3325
841.427	3310
841.564	3256
841.701	3264
841.838	3214
841.975	3211
842.112	3173
842.249	3039
842.385	3024
842.522	3256
842.659	3066
842.796	3089
842.933	3093
843.069	3020
843.206	3017
843.343	3173
843.479	3116
843.616	3131
843.752	2891
843.889	2845
844.025	3085
844.162	2906
844.298	3077
844.435	2937
844.571	2895
844.708	3051
844.844	3211
844.98	3241
845.117	3192
845.253	3077
845.389	3009
845.525	3093
845.661	3108
845.798	2986
845.934	3138
846.07	3039
846.206	3207
846.342	3317
846.478	3253
846.614	3093
846.75	2971
846.886	2986
847.022	3253
847.158	3169
847.294	3176
847.429	3214
847.565	3180
847.701	3447
847.837	3036
847.972	3047
848.108	3116
848.244	3161
848.379	2971
848.515	2922
848.65	2933
848.786	2967
848.921	2971
849.057	3077
849.192	3127
849.328	3062
849.463	3100
849.598	3028
849.734	3039
849.869	2937
850.004	2902
850.14	2967
850.275	2906
850.41	2857
850.545	2872
850.68	2899
850.815	2960
850.95	2975
851.085	3150
851.22	3081
851.355	3055
851.49	2967
851.625	3001
851.76	3036
851.895	2922
852.03	2887
852.165	3062
852.299	3135
852.434	3154
852.569	3108
852.703	3176
852.838	3233
852.973	3359
853.107	3298
853.242	3108
853.376	3093
853.511	2956
853.645	3020
853.78	3233
853.914	3127
854.048	3100
854.183	3085
854.317	3135
854.451	3268
854.585	3089
854.72	3074
854.854	3192
854.988	3062
855.122	3055
855.256	2956
855.39	3123
855.524	3199
855.658	3184
855.792	3154
855.926	3161
856.06	3180
856.194	3253
856.327	3135
856.461	3100
856.595	3093
856.729	3093
856.862	3222
856.996	3135
857.13	3203
857.263	3180
857.397	3283
857.53	3097
857.664	3161
857.797	3256
857.931	3237
858.064	3131
858.197	3222
858.331	3104
858.464	3093
858.597	2971
858.731	3108
858.864	3138
858.997	3093
859.13	3173
859.263	3176
859.396	3222
859.529	3077
859.662	3070
859.795	3032
859.928	3116
860.061	3279
860.194	3275
860.327	3131
860.46	3081
860.592	3188
860.725	3260
860.858	3233
860.99	3051
861.123	3032
861.256	3032
861.388	3127
861.521	3827
861.653	2986
861.786	2986
861.918	3028
862.05	3043
862.183	3085
862.315	3146
862.447	3211
862.58	3058
862.712	2922
862.844	2880
862.976	2990
863.108	2971
863.24	3424
863.372	2883
863.504	2929
863.636	2956
863.768	2998
863.9	2960
864.032	2914
864.164	2952
864.296	3024
864.428	3093
864.559	3112
864.691	3089
864.823	3036
864.954	3077
865.086	3017
865.217	2967
865.349	2929
865.48	3036
865.612	3009
865.743	3161
865.875	2982
866.006	2941
866.137	2960
866.269	2910
866.4	2914
866.531	2899
866.662	2891
866.793	2883
866.924	2876
867.055	2971
867.186	2952
867.317	2857
867.448	2834
867.579	2834
867.71	2849
867.841	2804
867.972	2906
868.103	2895
868.233	2880
868.364	2887
868.495	2899
868.625	3089
868.756	3173
868.886	2963
869.017	3009
869.147	3157
869.278	3150
869.408	3062
869.539	2994
869.669	3112
869.799	3032
869.929	3112
870.06	3100
870.19	3332
870.32	3291
870.45	3321
870.58	3355
870.71	3458
870.84	3462
870.97	3344
871.1	3233
871.23	3500
871.36	3469
871.489	3374
871.619	3317
871.749	3374
871.879	3469
872.008	3511
872.138	3332
872.267	3298
872.397	3142
872.526	3081
872.656	2998
872.785	3062
872.915	3207
873.044	3313
873.173	3207
873.303	3237
873.432	3233
873.561	3245
873.69	3131
873.819	3180
873.948	3161
874.077	3058
874.206	3058
874.335	3077
874.464	3188
874.593	3329
874.722	3256
874.851	3359
874.979	3340
875.108	3310
875.237	3180
875.365	3165
875.494	3165
875.623	3268
875.751	3081
875.88	3123
876.008	3207
876.136	3226
876.265	3374
876.393	3477
876.521	3439
876.65	3370
876.778	3351
876.906	3249
877.034	3188
877.162	3237
877.29	3150
877.418	3249
877.546	3222
877.674	3237
877.802	3253
877.93	3192
878.058	3157
878.185	3074
878.313	3211
878.441	3237
878.568	3017
878.696	3154
878.824	3249
878.951	3275
879.079	3420
879.206	3603
879.333	3435
879.461	3321
879.588	3313
879.715	3477
879.842	3557
879.97	3332
880.097	3165
880.224	3123
880.351	3161
880.478	3188
880.605	3165
880.732	3192
880.859	3485
880.986	3279
881.112	3329
881.239	3211
881.366	3093
881.493	3051
881.619	3013
881.746	3051
881.872	3093
881.999	3089
882.125	3108
882.252	3222
882.378	3249
882.505	3458
882.631	3302
882.757	3169
882.883	3249
883.01	3188
883.136	3142
883.262	3074
883.388	3127
883.514	3336
883.64	3355
883.766	3313
883.892	3218
884.018	3230
884.143	3397
884.269	3534
884.395	3165
884.52	3138
884.646	3222
884.772	3108
884.897	3135
885.023	3184
885.148	3313
885.274	3447
885.399	3348
885.524	3283
885.65	3256
885.775	3317
885.9	3291
886.025	3416
886.15	3355
886.275	3275
886.4	3245
886.525	3313
886.65	3272
886.775	3310
886.9	3507
887.025	3648
887.149	3393
887.274	3214
887.399	3180
887.523	3161
887.648	3169
887.773	3173
887.897	3321
888.021	3393
888.146	3264
888.27	3367
888.395	3515
888.519	3428
888.643	3450
888.767	3424
888.891	3279
889.015	3233
889.139	3291
889.263	3222
889.387	3393
889.511	3492
889.635	3447
889.759	3283
889.883	3264
890.006	3374
890.13	3504
890.254	3294
890.377	3355
890.501	3203
890.624	3173
890.748	3287
890.871	3138
890.995	3093
891.118	3062
891.241	3203
891.364	3222
891.488	3321
891.611	3161
891.734	3226
891.857	3283
891.98	3237
892.103	3340
892.226	3249
892.349	3195
892.471	3077
892.594	3241
892.717	3291
892.839	3291
892.962	3256
893.085	3321
893.207	3283
893.33	3135
893.452	3199
893.575	3355
893.697	3195
893.819	3443
893.941	3469
894.064	3431
894.186	3264
894.308	3294
894.43	3454
894.552	3538
894.674	3462
894.796	3260
894.918	3279
895.04	3306
895.161	3473
895.283	3386
895.405	3283
895.526	3355
895.648	3370
895.769	3393
895.891	3447
896.012	3443
896.134	3488
896.255	3355
896.376	3393
896.498	3329
896.619	3428
896.74	3370
896.861	3389
896.982	3675
897.103	3812
897.224	3606
897.345	3481
897.466	3450
897.587	3450
897.708	3580
897.828	3561
897.949	3439
898.07	3321
898.19	3386
898.311	3587
898.431	3412
898.552	3519
898.672	3591
898.792	3587
898.913	3507
899.033	3389
899.153	3272
899.273	3180
899.393	3260
899.513	3317
899.633	3317
899.753	3344
899.873	3291
899.993	3382
900.113	3294
900.232	3393
900.352	3374
900.472	3249
900.591	3214
900.711	3272
900.83	3230
900.95	3443
901.069	3473
901.189	3344
901.308	3180
901.427	3100
901.546	3173
901.665	3268
901.784	3291
901.904	3256
902.023	3127
902.141	3058
902.26	2998
902.379	3154
902.498	3112
902.617	3028
902.735	3188
902.854	3230
902.973	3165
903.091	3051
903.21	3058
903.328	3146
903.446	3104
903.565	3108
903.683	3176
903.801	3142
903.919	3211
904.038	3275
904.156	3169
904.274	3272
904.392	3260
904.51	3260
904.627	3329
904.745	3443
904.863	3492
904.981	3233
905.098	3188
905.216	3203
905.334	3279
905.451	3275
905.569	3313
905.686	3409
905.803	3397
905.921	3279
906.038	3412
906.155	3306
906.272	3256
906.389	3310
906.506	3211
906.623	3260
906.74	3268
906.857	3161
906.974	3249
907.091	3435
907.208	3542
907.324	3492
907.441	3416
907.557	3211
907.674	3230
907.79	3211
907.907	3279
908.023	3351
908.139	3416
908.256	3344
908.372	3405
908.488	3329
908.604	3264
908.72	3211
908.836	3283
908.952	3268
909.068	3302
909.184	3485
909.3	3378
909.415	3454
909.531	3488
909.647	3214
909.762	3306
909.878	3233
909.993	3340
910.108	3325
910.224	3340
910.339	3393
910.454	3287
910.57	3260
910.685	3226
910.8	3538
910.915	3511
911.03	3424
911.145	3233
911.259	3310
911.374	3298
911.489	3230
911.604	3249
911.718	3100
911.833	3127
911.947	3001
912.062	2975
912.176	3173
912.291	3195
912.405	3233
912.519	3435
912.633	3500
912.748	3336
912.862	3260
912.976	3207
913.09	3062
913.204	3161
913.318	3256
913.431	3374
913.545	3355
913.659	3412
913.772	3332
913.886	3253
914	3226
914.113	3367
914.226	3435
914.34	3401
914.453	3222
914.566	3397
914.68	3321
914.793	3336
914.906	3195
915.019	3131
915.132	3093
915.245	3173
915.358	3241
915.47	3249
915.583	3272
915.696	3332
915.809	3458
915.921	3450
916.034	3306
916.146	3287
916.259	3245
916.371	3409
916.483	3439
916.595	3294
916.708	3370
916.82	3363
916.932	3386
917.044	3378
917.156	3382
917.268	3283
917.38	3344
917.491	3344
917.603	3374
917.715	3488
917.826	3538
917.938	3401
918.049	3325
918.161	3511
918.272	3591
918.384	3584
918.495	3542
918.606	3370
918.717	3294
918.828	3401
918.939	3447
919.05	3336
919.161	3393
919.272	3249
919.383	3317
919.494	3545
919.604	3686
919.715	3515
919.826	3439
919.936	3530
920.047	3622
920.157	3561
920.267	3789
920.378	3618
920.488	3557
920.598	3819
920.708	3991
920.818	3865
920.928	3842
921.038	4090
921.148	4071
921.258	3705
921.368	3679
921.477	3663
921.587	3549
921.697	3488
921.806	3644
921.916	3538
922.025	3439
922.134	3428
922.244	3363
922.353	3485
922.462	3279
922.571	3264
922.68	3165
922.789	3131
922.898	3199
923.007	3195
923.116	3272
923.224	3211
923.333	3180
923.442	3104
923.55	3146
923.659	3150
923.767	3272
923.876	3131
923.984	3283
924.092	3112
924.201	3256
924.309	3226
924.417	3291
924.525	3233
924.633	3298
924.741	4200
924.849	3085
924.956	3275
925.064	3119
925.172	3085
925.279	3119
925.387	3222
925.494	3249
925.602	3370
925.709	3359
925.816	3237
925.924	3317
926.031	3428
926.138	3370
926.245	3389
926.352	3283
926.459	3405
926.566	3477
926.673	3348
926.779	3249
926.886	3241
926.993	3199
927.099	3157
927.206	3154
927.312	3135
927.419	3260
927.525	3241
927.631	3329
927.737	3161
927.843	3154
927.95	3043
928.056	3180
928.162	3214
928.267	3275
928.373	3778
928.479	3340
928.585	3089
928.69	3287
928.796	3279
928.901	3203
929.007	3081
929.112	3241
929.218	3138
929.323	3165
929.428	3161
929.533	3329
929.638	3157
929.743	3192
929.848	3249
929.953	3233
930.058	3127
930.163	3032
930.267	3081
930.372	3214
930.477	3077
930.581	3355
930.685	3188
930.79	3077
930.894	3127
930.998	3119
931.103	3313
931.207	2971
931.311	2956
931.415	2956
931.519	2788
931.623	2826
