Data from test_V78500241_1658.txt Node
Date: Fri Mar 25 16:26:41 CST 2022
User: usil
Spectrometer: V785-0024
Trigger mode: 0
Integration Time (sec): 4.000000E-1
Scans to average: 1
Nonlinearity correction enabled: false
Boxcar width: 0
Storing dark spectrum: false
XAxis mode: Wavelengths
Number of Pixels in Spectrum: 1024
>>>>>Begin Spectral Data<<<<<
801.071	2914
801.214	2906
801.356	2845
801.499	2880
801.641	2849
801.783	2880
801.926	3036
802.068	2956
802.211	2982
802.353	3024
802.496	2941
802.638	3005
802.78	3028
802.923	3077
803.065	2971
803.208	2887
803.35	2842
803.492	2895
803.635	2933
803.777	2746
803.919	2823
804.061	3192
804.204	2918
804.346	2883
804.488	2815
804.63	2975
804.773	2857
804.915	2891
805.057	3043
805.199	2864
805.341	2956
805.483	2990
805.626	3001
805.768	2952
805.91	3074
806.052	3085
806.194	3013
806.336	3233
806.478	3024
806.62	2952
806.762	2944
806.904	3070
807.046	3119
807.188	2975
807.33	2880
807.472	3005
807.614	2914
807.756	2990
807.898	2933
808.04	2887
808.182	2941
808.324	2937
808.465	2887
808.607	2872
808.749	2807
808.891	2823
809.033	2967
809.174	2982
809.316	2887
809.458	2838
809.6	2773
809.741	2769
809.883	2750
810.025	2857
810.166	2853
810.308	2845
810.45	2857
810.591	2804
810.733	2769
810.875	2849
811.016	2785
811.158	2766
811.299	2807
811.441	2899
811.582	2857
811.724	2830
811.865	2823
812.007	2902
812.148	2868
812.29	2853
812.431	2883
812.573	2971
812.714	2944
812.855	3013
812.997	3036
813.138	3089
813.279	2979
813.421	2982
813.562	2952
813.703	2861
813.845	2880
813.986	2796
814.127	2731
814.268	2792
814.41	2861
814.551	2815
814.692	2857
814.833	2788
814.974	2895
815.115	2918
815.256	2830
815.397	2823
815.539	2857
815.68	2777
815.821	2800
815.962	2948
816.103	2906
816.244	2853
816.385	2864
816.526	2944
816.666	2925
816.807	2739
816.948	2902
817.089	2864
817.23	2872
817.371	2750
817.512	2758
817.653	2880
817.793	2804
817.934	2872
818.075	2918
818.216	3001
818.356	2986
818.497	2891
818.638	2781
818.778	2830
818.919	2800
819.06	2781
819.2	2857
819.341	2785
819.481	2796
819.622	2914
819.762	3112
819.903	3066
820.043	2891
820.184	2918
820.324	2883
820.465	3032
820.605	3036
820.746	3013
820.886	2941
821.026	3100
821.167	3131
821.307	3233
821.447	3264
821.588	3211
821.728	3195
821.868	3138
822.008	3074
822.149	3192
822.289	3253
822.429	3081
822.569	3100
822.709	3184
822.849	3051
822.99	3047
823.13	3165
823.27	3218
823.41	3089
823.55	3138
823.69	3131
823.83	3195
823.97	3093
824.11	2994
824.25	2975
824.389	3077
824.529	3108
824.669	3055
824.809	3188
824.949	3249
825.089	3184
825.228	3169
825.368	3028
825.508	2975
825.648	3005
825.787	2990
825.927	3013
826.067	2971
826.206	2937
826.346	3005
826.485	3047
826.625	3070
826.765	3253
826.904	3203
827.044	2971
827.183	2918
827.323	2857
827.462	2956
827.601	2922
827.741	2960
827.88	2963
828.02	2845
828.159	2956
828.298	3036
828.437	3051
828.577	3028
828.716	3218
828.855	3070
828.994	2929
829.134	2895
829.273	2883
829.412	2838
829.551	2853
829.69	2895
829.829	2994
829.968	3116
830.107	3013
830.246	3024
830.385	2918
830.524	2849
830.663	2796
830.802	2712
830.941	2651
831.08	2651
831.219	2750
831.357	2746
831.496	2960
831.635	2727
831.774	2655
831.913	2629
832.051	2556
832.19	2556
832.329	2682
832.467	2526
832.606	2507
832.744	2533
832.883	2590
833.022	2594
833.16	2610
833.299	2682
833.437	2689
833.576	2678
833.714	2724
833.852	2678
833.991	2746
834.129	2811
834.267	2823
834.406	2766
834.544	2861
834.682	2864
834.821	2819
834.959	3055
835.097	2883
835.235	3058
835.373	2971
835.511	3009
835.65	2956
835.788	2948
835.926	2830
836.064	2777
836.202	2842
836.34	3097
836.478	3142
836.615	3043
836.753	3131
836.891	3195
837.029	3104
837.167	3131
837.305	3062
837.443	3017
837.58	2948
837.718	3131
837.856	3055
837.993	3028
838.131	3112
838.269	3104
838.406	3108
838.544	3085
838.681	2960
838.819	2922
838.956	2800
839.094	2834
839.231	2895
839.369	2967
839.506	3382
839.643	3188
839.781	2994
839.918	2952
840.055	3028
840.193	3036
840.33	3032
840.467	3062
840.604	3146
840.742	3412
840.879	3009
841.016	3024
841.153	3135
841.29	3310
841.427	3260
841.564	3268
841.701	3272
841.838	3184
841.975	3195
842.112	3195
842.249	3062
842.385	3005
842.522	3230
842.659	3058
842.796	3028
842.933	3123
843.069	3047
843.206	3001
843.343	3218
843.479	3070
843.616	3131
843.752	2853
843.889	2823
844.025	3062
844.162	2842
844.298	3055
844.435	2906
844.571	2857
844.708	3024
844.844	3135
844.98	3230
845.117	3157
845.253	3039
845.389	3001
845.525	3135
845.661	3085
845.798	2963
845.934	3138
846.07	3047
846.206	3207
846.342	3279
846.478	3199
846.614	3085
846.75	3013
846.886	2998
847.022	3214
847.158	3108
847.294	3211
847.429	3192
847.565	3154
847.701	3473
847.837	2990
847.972	2982
848.108	3146
848.244	3154
848.379	2963
848.515	2929
848.65	2941
848.786	2971
848.921	3055
849.057	3100
849.192	3150
849.328	3047
849.463	3066
849.598	3085
849.734	3020
849.869	2975
850.004	2864
850.14	2990
850.275	2899
850.41	2804
850.545	2895
850.68	2960
850.815	2929
850.95	2948
851.085	3203
851.22	3123
851.355	3039
851.49	3020
851.625	2990
851.76	3028
851.895	2918
852.03	2956
852.165	3051
852.299	3104
852.434	3195
852.569	3142
852.703	3218
852.838	3287
852.973	3378
853.107	3363
853.242	3195
853.376	3108
853.511	3028
853.645	3024
853.78	3268
853.914	3142
854.048	3165
854.183	3089
854.317	3154
854.451	3310
854.585	3131
854.72	3116
854.854	3230
854.988	3097
855.122	3119
855.256	2986
855.39	3142
855.524	3275
855.658	3203
855.792	3203
855.926	3222
856.06	3256
856.194	3294
856.327	3195
856.461	3123
856.595	3127
856.729	3135
856.862	3268
856.996	3222
857.13	3237
857.263	3268
857.397	3329
857.53	3131
857.664	3222
857.797	3287
857.931	3287
858.064	3176
858.197	3287
858.331	3138
858.464	3116
858.597	3051
858.731	3146
858.864	3116
858.997	3123
859.13	3176
859.263	3226
859.396	3188
859.529	3127
859.662	3146
859.795	3074
859.928	3192
860.061	3298
860.194	3283
860.327	3157
860.46	3112
860.592	3249
860.725	3264
860.858	3260
860.99	3131
861.123	3051
861.256	3055
861.388	3184
861.521	3888
861.653	3036
861.786	3055
861.918	3081
862.05	3108
862.183	3116
862.315	3184
862.447	3260
862.58	3119
862.712	2998
862.844	2918
862.976	3039
863.108	3020
863.24	3477
863.372	2895
863.504	2944
863.636	2941
863.768	3047
863.9	3017
864.032	2918
864.164	2979
864.296	3074
864.428	3112
864.559	3077
864.691	3150
864.823	3104
864.954	3051
865.086	3066
865.217	2994
865.349	2971
865.48	3005
865.612	3093
865.743	3192
865.875	2975
866.006	2948
866.137	2979
866.269	2998
866.4	2948
866.531	2918
866.662	2918
866.793	2902
866.924	2906
867.055	2963
867.186	2956
867.317	2922
867.448	2876
867.579	2880
867.71	2864
867.841	2845
867.972	2941
868.103	2944
868.233	2887
868.364	2895
868.495	2918
868.625	3081
868.756	3195
868.886	2982
869.017	3043
869.147	3203
869.278	3165
869.408	3108
869.539	3043
869.669	3127
869.799	3055
869.929	3157
870.06	3119
870.19	3363
870.32	3256
870.45	3283
870.58	3378
870.71	3466
870.84	3488
870.97	3302
871.1	3275
871.23	3534
871.36	3485
871.489	3382
871.619	3424
871.749	3477
871.879	3462
872.008	3530
872.138	3393
872.267	3279
872.397	3161
872.526	3127
872.656	3047
872.785	3123
872.915	3268
873.044	3313
873.173	3226
873.303	3241
873.432	3256
873.561	3283
873.69	3207
873.819	3180
873.948	3203
874.077	3116
874.206	3043
874.335	3112
874.464	3268
874.593	3378
874.722	3275
874.851	3424
874.979	3386
875.108	3332
875.237	3233
875.365	3184
875.494	3169
875.623	3275
875.751	3104
875.88	3146
876.008	3195
876.136	3249
876.265	3374
876.393	3511
876.521	3420
876.65	3405
876.778	3351
876.906	3230
877.034	3203
877.162	3226
877.29	3226
877.418	3245
877.546	3237
877.674	3279
877.802	3256
877.93	3294
878.058	3203
878.185	3161
878.313	3230
878.441	3211
878.568	3116
878.696	3195
878.824	3264
878.951	3306
879.079	3431
879.206	3641
879.333	3439
879.461	3325
879.588	3355
879.715	3549
879.842	3622
879.97	3412
880.097	3188
880.224	3176
880.351	3222
880.478	3272
880.605	3211
880.732	3222
880.859	3500
880.986	3298
881.112	3329
881.239	3222
881.366	3104
881.493	3043
881.619	3047
881.746	3097
881.872	3123
881.999	3100
882.125	3142
882.252	3298
882.378	3325
882.505	3488
882.631	3302
882.757	3203
882.883	3241
883.01	3272
883.136	3169
883.262	3150
883.388	3150
883.514	3291
883.64	3409
883.766	3336
883.892	3218
884.018	3291
884.143	3469
884.269	3561
884.395	3237
884.52	3199
884.646	3195
884.772	3146
884.897	3108
885.023	3203
885.148	3348
885.274	3435
885.399	3374
885.524	3260
885.65	3298
885.775	3332
885.9	3283
886.025	3428
886.15	3382
886.275	3329
886.4	3256
886.525	3313
886.65	3329
886.775	3321
886.9	3511
887.025	3675
887.149	3443
887.274	3268
887.399	3195
887.523	3188
887.648	3199
887.773	3188
887.897	3359
888.021	3370
888.146	3310
888.27	3466
888.395	3561
888.519	3481
888.643	3435
888.767	3507
888.891	3363
889.015	3256
889.139	3313
889.263	3283
889.387	3424
889.511	3504
889.635	3401
889.759	3302
889.883	3302
890.006	3389
890.13	3485
890.254	3317
890.377	3386
890.501	3195
890.624	3256
890.748	3325
890.871	3218
890.995	3154
891.118	3081
891.241	3230
891.364	3222
891.488	3336
891.611	3195
891.734	3218
891.857	3310
891.98	3313
892.103	3317
892.226	3332
892.349	3211
892.471	3108
892.594	3245
892.717	3317
892.839	3321
892.962	3321
893.085	3355
893.207	3287
893.33	3173
893.452	3245
893.575	3355
893.697	3275
893.819	3469
893.941	3534
894.064	3523
894.186	3302
894.308	3272
894.43	3458
894.552	3511
894.674	3458
894.796	3317
894.918	3367
895.04	3310
895.161	3454
895.283	3355
895.405	3336
895.526	3382
895.648	3488
895.769	3450
895.891	3447
896.012	3504
896.134	3481
896.255	3397
896.376	3405
896.498	3397
896.619	3424
896.74	3363
896.861	3393
896.982	3663
897.103	3888
897.224	3614
897.345	3469
897.466	3401
897.587	3523
897.708	3633
897.828	3557
897.949	3485
898.07	3329
898.19	3412
898.311	3587
898.431	3454
898.552	3538
898.672	3584
898.792	3584
898.913	3580
899.033	3435
899.153	3291
899.273	3237
899.393	3310
899.513	3336
899.633	3348
899.753	3370
899.873	3344
899.993	3397
900.113	3344
900.232	3382
900.352	3344
900.472	3310
900.591	3214
900.711	3325
900.83	3279
900.95	3416
901.069	3492
901.189	3344
901.308	3233
901.427	3146
901.546	3226
901.665	3310
901.784	3351
901.904	3199
902.023	3154
902.141	3051
902.26	3020
902.379	3138
902.498	3104
902.617	3066
902.735	3207
902.854	3226
902.973	3195
903.091	3039
903.21	3074
903.328	3135
903.446	3123
903.565	3097
903.683	3233
903.801	3123
903.919	3344
904.038	3260
904.156	3203
904.274	3275
904.392	3245
904.51	3291
904.627	3317
904.745	3466
904.863	3504
904.981	3264
905.098	3195
905.216	3241
905.334	3302
905.451	3351
905.569	3321
905.686	3431
905.803	3466
905.921	3298
906.038	3454
906.155	3374
906.272	3313
906.389	3359
906.506	3253
906.623	3275
906.74	3283
906.857	3203
906.974	3294
907.091	3428
907.208	3557
907.324	3492
907.441	3382
907.557	3268
907.674	3245
907.79	3211
907.907	3291
908.023	3382
908.139	3393
908.256	3367
908.372	3378
908.488	3389
908.604	3245
908.72	3241
908.836	3283
908.952	3283
909.068	3340
909.184	3473
909.3	3412
909.415	3534
909.531	3477
909.647	3325
909.762	3283
909.878	3245
909.993	3382
910.108	3329
910.224	3348
910.339	3409
910.454	3336
910.57	3313
910.685	3241
910.8	3618
910.915	3572
911.03	3466
911.145	3275
911.259	3287
911.374	3329
911.489	3279
911.604	3207
911.718	3104
911.833	3169
911.947	3070
912.062	2982
912.176	3184
912.291	3199
912.405	3218
912.519	3401
912.633	3450
912.748	3340
912.862	3272
912.976	3173
913.09	3070
913.204	3154
913.318	3260
913.431	3302
913.545	3340
913.659	3397
913.772	3367
913.886	3214
914	3165
914.113	3370
914.226	3447
914.34	3351
914.453	3241
914.566	3409
914.68	3275
914.793	3306
914.906	3142
915.019	3138
915.132	3081
915.245	3146
915.358	3207
915.47	3245
915.583	3275
915.696	3348
915.809	3386
915.921	3443
916.034	3272
916.146	3237
916.259	3222
916.371	3374
916.483	3344
916.595	3291
916.708	3321
916.82	3344
916.932	3340
917.044	3367
917.156	3370
917.268	3256
917.38	3302
917.491	3287
917.603	3397
917.715	3469
917.826	3492
917.938	3409
918.049	3268
918.161	3412
918.272	3614
918.384	3622
918.495	3523
918.606	3409
918.717	3348
918.828	3428
918.939	3443
919.05	3374
919.161	3428
919.272	3176
919.383	3329
919.494	3572
919.604	3709
919.715	3504
919.826	3405
919.936	3515
920.047	3614
920.157	3572
920.267	3816
920.378	3606
920.488	3587
920.598	3789
920.708	3945
920.818	3827
920.928	3892
921.038	4029
921.148	4044
921.258	3732
921.368	3690
921.477	3606
921.587	3568
921.697	3500
921.806	3701
921.916	3542
922.025	3424
922.134	3401
922.244	3378
922.353	3469
922.462	3332
922.571	3245
922.68	3131
922.789	3154
922.898	3161
923.007	3119
923.116	3249
923.224	3192
923.333	3287
923.442	3169
923.55	3093
923.659	3161
923.767	3272
923.876	3180
923.984	3279
924.092	3161
924.201	3256
924.309	3249
924.417	3279
924.525	3249
924.633	3256
924.741	4234
924.849	3100
924.956	3279
925.064	3161
925.172	3089
925.279	3112
925.387	3241
925.494	3237
925.602	3405
925.709	3359
925.816	3207
925.924	3310
926.031	3439
926.138	3355
926.245	3351
926.352	3332
926.459	3439
926.566	3485
926.673	3378
926.779	3294
926.886	3260
926.993	3203
927.099	3150
927.206	3161
927.312	3161
927.419	3264
927.525	3268
927.631	3317
927.737	3188
927.843	3146
927.95	3055
928.056	3188
928.162	3241
928.267	3321
928.373	3804
928.479	3355
928.585	3112
928.69	3233
928.796	3298
928.901	3211
929.007	3108
929.112	3260
929.218	3176
929.323	3195
929.428	3211
929.533	3306
929.638	3173
929.743	3237
929.848	3275
929.953	3245
930.058	3211
930.163	3062
930.267	3062
930.372	3253
930.477	3085
930.581	3310
930.685	3211
930.79	3108
930.894	3127
930.998	3123
931.103	3336
931.207	2994
931.311	3001
931.415	2941
931.519	2826
931.623	2834
