Data from test_V78500241_1559.txt Node
Date: Fri Mar 25 16:26:00 CST 2022
User: usil
Spectrometer: V785-0024
Trigger mode: 0
Integration Time (sec): 4.000000E-1
Scans to average: 1
Nonlinearity correction enabled: false
Boxcar width: 0
Storing dark spectrum: false
XAxis mode: Wavelengths
Number of Pixels in Spectrum: 1024
>>>>>Begin Spectral Data<<<<<
801.071	2891
801.214	2994
801.356	2922
801.499	2914
801.641	2887
801.783	2914
801.926	3100
802.068	3005
802.211	3013
802.353	3024
802.496	3001
802.638	3047
802.78	3085
802.923	3119
803.065	3036
803.208	2918
803.35	2922
803.492	2956
803.635	2960
803.777	2800
803.919	2925
804.061	3173
804.204	2971
804.346	2944
804.488	2902
804.63	3032
804.773	2902
804.915	2967
805.057	3085
805.199	2963
805.341	2960
805.483	3070
805.626	3013
805.768	3028
805.91	3097
806.052	3093
806.194	3070
806.336	3264
806.478	3077
806.62	2952
806.762	2986
806.904	3081
807.046	3207
807.188	3009
807.33	2990
807.472	3001
807.614	2937
807.756	2979
807.898	2963
808.04	2914
808.182	2990
808.324	2971
808.465	2849
808.607	2925
808.749	2845
808.891	2861
809.033	2998
809.174	2967
809.316	2922
809.458	2925
809.6	2769
809.741	2777
809.883	2788
810.025	2887
810.166	2902
810.308	2830
810.45	2834
810.591	2758
810.733	2796
810.875	2842
811.016	2838
811.158	2769
811.299	2861
811.441	2956
811.582	2918
811.724	2849
811.865	2857
812.007	2910
812.148	2880
812.29	2861
812.431	2914
812.573	2967
812.714	2971
812.855	3055
812.997	3104
813.138	3146
813.279	2994
813.421	2986
813.562	2971
813.703	2906
813.845	2861
813.986	2762
814.127	2758
814.268	2842
814.41	2842
814.551	2826
814.692	2902
814.833	2815
814.974	2944
815.115	2982
815.256	2857
815.397	2842
815.539	2887
815.68	2811
815.821	2804
815.962	2971
816.103	2975
816.244	2899
816.385	2868
816.526	2963
816.666	2910
816.807	2766
816.948	2906
817.089	2952
817.23	2887
817.371	2796
817.512	2800
817.653	2857
817.793	2815
817.934	2864
818.075	3005
818.216	3013
818.356	3055
818.497	2902
818.638	2785
818.778	2815
818.919	2838
819.06	2845
819.2	2895
819.341	2826
819.481	2819
819.622	2933
819.762	3135
819.903	3020
820.043	2918
820.184	2918
820.324	2902
820.465	3017
820.605	3013
820.746	3028
820.886	2925
821.026	3112
821.167	3192
821.307	3279
821.447	3272
821.588	3249
821.728	3249
821.868	3222
822.008	3085
822.149	3211
822.289	3256
822.429	3135
822.569	3062
822.709	3207
822.849	3036
822.99	3093
823.13	3188
823.27	3237
823.41	3131
823.55	3127
823.69	3161
823.83	3230
823.97	3112
824.11	3047
824.25	3013
824.389	3077
824.529	3116
824.669	3097
824.809	3207
824.949	3275
825.089	3214
825.228	3138
825.368	3005
825.508	2979
825.648	2963
825.787	3032
825.927	3013
826.067	2975
826.206	2994
826.346	3062
826.485	3066
826.625	3108
826.765	3275
826.904	3207
827.044	2990
827.183	2918
827.323	2902
827.462	2925
827.601	2941
827.741	2910
827.88	2967
828.02	2815
828.159	2998
828.298	3039
828.437	3097
828.577	3055
828.716	3275
828.855	3108
828.994	2906
829.134	2925
829.273	2925
829.412	2902
829.551	2861
829.69	2937
829.829	2998
829.968	3192
830.107	3013
830.246	3009
830.385	2895
830.524	2872
830.663	2834
830.802	2746
830.941	2663
831.08	2655
831.219	2773
831.357	2792
831.496	2944
831.635	2720
831.774	2663
831.913	2651
832.051	2549
832.19	2613
832.329	2697
832.467	2522
832.606	2480
832.744	2590
832.883	2579
833.022	2571
833.16	2682
833.299	2716
833.437	2712
833.576	2693
833.714	2750
833.852	2731
833.991	2781
834.129	2849
834.267	2811
834.406	2777
834.544	2887
834.682	2891
834.821	2876
834.959	3055
835.097	2929
835.235	3058
835.373	2979
835.511	3028
835.65	2941
835.788	2941
835.926	2807
836.064	2804
836.202	2883
836.34	3089
836.478	3150
836.615	3058
836.753	3116
836.891	3169
837.029	3169
837.167	3074
837.305	3108
837.443	3001
837.58	3020
837.718	3146
837.856	3066
837.993	3066
838.131	3138
838.269	3123
838.406	3100
838.544	3112
838.681	2960
838.819	2899
838.956	2830
839.094	2845
839.231	2887
839.369	3013
839.506	3351
839.643	3237
839.781	2998
839.918	2994
840.055	3047
840.193	3093
840.33	3074
840.467	3116
840.604	3138
840.742	3428
840.879	3051
841.016	3062
841.153	3119
841.29	3374
841.427	3283
841.564	3260
841.701	3325
841.838	3230
841.975	3176
842.112	3161
842.249	3100
842.385	3058
842.522	3245
842.659	3100
842.796	3062
842.933	3123
843.069	3070
843.206	3047
843.343	3173
843.479	3093
843.616	3161
843.752	2925
843.889	2876
844.025	3066
844.162	2910
844.298	3055
844.435	2941
844.571	2929
844.708	3039
844.844	3176
844.98	3222
845.117	3173
845.253	3036
845.389	3024
845.525	3089
845.661	3093
845.798	3020
845.934	3100
846.07	3100
846.206	3199
846.342	3325
846.478	3214
846.614	3089
846.75	3085
846.886	3005
847.022	3268
847.158	3146
847.294	3218
847.429	3222
847.565	3233
847.701	3473
847.837	3039
847.972	2979
848.108	3188
848.244	3184
848.379	3009
848.515	2914
848.65	2944
848.786	2990
848.921	3020
849.057	3097
849.192	3169
849.328	3077
849.463	3062
849.598	3066
849.734	3039
849.869	3001
850.004	2933
850.14	2971
850.275	2906
850.41	2807
850.545	2895
850.68	3001
850.815	2941
850.95	2952
851.085	3203
851.22	3093
851.355	3032
851.49	2994
851.625	2956
851.76	3013
851.895	2948
852.03	2895
852.165	3047
852.299	3112
852.434	3161
852.569	3161
852.703	3188
852.838	3230
852.973	3340
853.107	3321
853.242	3161
853.376	3081
853.511	3028
853.645	3039
853.78	3230
853.914	3127
854.048	3108
854.183	3051
854.317	3135
854.451	3321
854.585	3131
854.72	3142
854.854	3218
854.988	3070
855.122	3104
855.256	2960
855.39	3119
855.524	3279
855.658	3180
855.792	3131
855.926	3184
856.06	3199
856.194	3253
856.327	3138
856.461	3081
856.595	3108
856.729	3100
856.862	3192
856.996	3188
857.13	3207
857.263	3226
857.397	3260
857.53	3146
857.664	3173
857.797	3237
857.931	3260
858.064	3169
858.197	3226
858.331	3173
858.464	3104
858.597	3020
858.731	3097
858.864	3131
858.997	3097
859.13	3184
859.263	3173
859.396	3203
859.529	3089
859.662	3070
859.795	3055
859.928	3169
860.061	3268
860.194	3256
860.327	3150
860.46	3055
860.592	3249
860.725	3298
860.858	3233
860.99	3097
861.123	3089
861.256	3055
861.388	3123
861.521	3911
861.653	3047
861.786	2979
861.918	2971
862.05	3074
862.183	3093
862.315	3157
862.447	3199
862.58	3085
862.712	2948
862.844	2880
862.976	3039
863.108	3009
863.24	3283
863.372	2880
863.504	2990
863.636	2952
863.768	3028
863.9	2986
864.032	2933
864.164	2982
864.296	3032
864.428	3119
864.559	3116
864.691	3085
864.823	3055
864.954	3028
865.086	3036
865.217	2979
865.349	2990
865.48	3017
865.612	2994
865.743	3165
865.875	3017
866.006	2925
866.137	3005
866.269	2891
866.4	2944
866.531	2925
866.662	2880
866.793	2910
866.924	2910
867.055	2944
867.186	2925
867.317	2861
867.448	2815
867.579	2842
867.71	2899
867.841	2838
867.972	2895
868.103	2891
868.233	2883
868.364	2883
868.495	2914
868.625	3070
868.756	3161
868.886	2956
869.017	3001
869.147	3192
869.278	3165
869.408	3100
869.539	3039
869.669	3093
869.799	3043
869.929	3131
870.06	3127
870.19	3363
870.32	3268
870.45	3367
870.58	3317
870.71	3450
870.84	3428
870.97	3294
871.1	3264
871.23	3469
871.36	3431
871.489	3355
871.619	3386
871.749	3428
871.879	3416
872.008	3492
872.138	3329
872.267	3294
872.397	3131
872.526	3097
872.656	3036
872.785	3081
872.915	3237
873.044	3298
873.173	3211
873.303	3279
873.432	3195
873.561	3237
873.69	3180
873.819	3138
873.948	3173
874.077	3077
874.206	3047
874.335	3100
874.464	3184
874.593	3329
874.722	3264
874.851	3416
874.979	3340
875.108	3306
875.237	3192
875.365	3188
875.494	3146
875.623	3287
875.751	3036
875.88	3135
876.008	3173
876.136	3214
876.265	3363
876.393	3488
876.521	3454
876.65	3393
876.778	3325
876.906	3279
877.034	3214
877.162	3199
877.29	3180
877.418	3287
877.546	3249
877.674	3268
877.802	3249
877.93	3226
878.058	3135
878.185	3104
878.313	3230
878.441	3211
878.568	3055
878.696	3123
878.824	3249
878.951	3279
879.079	3454
879.206	3644
879.333	3420
879.461	3340
879.588	3321
879.715	3488
879.842	3595
879.97	3363
880.097	3157
880.224	3138
880.351	3192
880.478	3233
880.605	3214
880.732	3180
880.859	3450
880.986	3329
881.112	3340
881.239	3188
881.366	3077
881.493	3032
881.619	3020
881.746	3100
881.872	3104
881.999	3116
882.125	3131
882.252	3222
882.378	3344
882.505	3405
882.631	3294
882.757	3112
882.883	3207
883.01	3203
883.136	3154
883.262	3077
883.388	3142
883.514	3310
883.64	3367
883.766	3294
883.892	3188
884.018	3226
884.143	3405
884.269	3568
884.395	3188
884.52	3165
884.646	3188
884.772	3127
884.897	3100
885.023	3222
885.148	3329
885.274	3401
885.399	3382
885.524	3264
885.65	3249
885.775	3325
885.9	3298
886.025	3431
886.15	3325
886.275	3264
886.4	3241
886.525	3332
886.65	3249
886.775	3283
886.9	3500
887.025	3587
887.149	3397
887.274	3272
887.399	3188
887.523	3214
887.648	3184
887.773	3207
887.897	3386
888.021	3355
888.146	3325
888.27	3424
888.395	3507
888.519	3405
888.643	3378
888.767	3435
888.891	3306
889.015	3249
889.139	3310
889.263	3260
889.387	3431
889.511	3507
889.635	3443
889.759	3325
889.883	3287
890.006	3389
890.13	3488
890.254	3264
890.377	3367
890.501	3192
890.624	3138
890.748	3302
890.871	3188
890.995	3135
891.118	3039
891.241	3184
891.364	3207
891.488	3306
891.611	3195
891.734	3207
891.857	3241
891.98	3233
892.103	3363
892.226	3275
892.349	3207
892.471	3127
892.594	3249
892.717	3241
892.839	3264
892.962	3291
893.085	3382
893.207	3264
893.33	3150
893.452	3214
893.575	3344
893.697	3211
893.819	3473
893.941	3519
894.064	3443
894.186	3249
894.308	3268
894.43	3435
894.552	3526
894.674	3466
894.796	3283
894.918	3321
895.04	3302
895.161	3428
895.283	3374
895.405	3321
895.526	3374
895.648	3431
895.769	3439
895.891	3458
896.012	3496
896.134	3485
896.255	3416
896.376	3367
896.498	3370
896.619	3443
896.74	3306
896.861	3405
896.982	3671
897.103	3869
897.224	3606
897.345	3504
897.466	3462
897.587	3481
897.708	3591
897.828	3572
897.949	3416
898.07	3313
898.19	3389
898.311	3572
898.431	3473
898.552	3530
898.672	3568
898.792	3603
898.913	3473
899.033	3397
899.153	3275
899.273	3233
899.393	3283
899.513	3321
899.633	3287
899.753	3340
899.873	3355
899.993	3367
900.113	3344
900.232	3382
900.352	3344
900.472	3332
900.591	3226
900.711	3283
900.83	3207
900.95	3367
901.069	3500
901.189	3367
901.308	3169
901.427	3108
901.546	3176
901.665	3264
901.784	3317
901.904	3211
902.023	3146
902.141	3005
902.26	2994
902.379	3123
902.498	3058
902.617	3085
902.735	3207
902.854	3256
902.973	3184
903.091	3058
903.21	3077
903.328	3142
903.446	3138
903.565	3089
903.683	3176
903.801	3150
903.919	3226
904.038	3272
904.156	3173
904.274	3298
904.392	3260
904.51	3218
904.627	3370
904.745	3420
904.863	3496
904.981	3233
905.098	3138
905.216	3233
905.334	3317
905.451	3340
905.569	3325
905.686	3363
905.803	3466
905.921	3230
906.038	3412
906.155	3363
906.272	3302
906.389	3321
906.506	3222
906.623	3256
906.74	3279
906.857	3195
906.974	3268
907.091	3466
907.208	3584
907.324	3443
907.441	3374
907.557	3241
907.674	3245
907.79	3218
907.907	3283
908.023	3397
908.139	3363
908.256	3317
908.372	3336
908.488	3317
908.604	3222
908.72	3253
908.836	3249
908.952	3298
909.068	3336
909.184	3458
909.3	3367
909.415	3492
909.531	3469
909.647	3302
909.762	3268
909.878	3279
909.993	3313
910.108	3355
910.224	3310
910.339	3378
910.454	3329
910.57	3306
910.685	3245
910.8	3595
910.915	3542
911.03	3409
911.145	3298
911.259	3256
911.374	3302
911.489	3241
911.604	3230
911.718	3097
911.833	3154
911.947	3036
912.062	2960
912.176	3127
912.291	3207
912.405	3249
912.519	3405
912.633	3466
912.748	3329
912.862	3291
912.976	3161
913.09	3070
913.204	3116
913.318	3226
913.431	3332
913.545	3332
913.659	3374
913.772	3336
913.886	3222
914	3214
914.113	3378
914.226	3397
914.34	3359
914.453	3211
914.566	3386
914.68	3275
914.793	3306
914.906	3154
915.019	3127
915.132	3051
915.245	3165
915.358	3214
915.47	3192
915.583	3226
915.696	3279
915.809	3378
915.921	3428
916.034	3233
916.146	3245
916.259	3268
916.371	3363
916.483	3367
916.595	3291
916.708	3355
916.82	3363
916.932	3348
917.044	3302
917.156	3321
917.268	3275
917.38	3348
917.491	3291
917.603	3370
917.715	3454
917.826	3473
917.938	3367
918.049	3268
918.161	3428
918.272	3557
918.384	3545
918.495	3473
918.606	3321
918.717	3272
918.828	3367
918.939	3412
919.05	3313
919.161	3348
919.272	3173
919.383	3298
919.494	3507
919.604	3675
919.715	3485
919.826	3393
919.936	3454
920.047	3564
920.157	3534
920.267	3800
920.378	3603
920.488	3591
920.598	3774
920.708	3953
920.818	3850
920.928	3835
921.038	4006
921.148	4010
921.258	3705
921.368	3652
921.477	3538
921.587	3545
921.697	3458
921.806	3606
921.916	3511
922.025	3329
922.134	3374
922.244	3298
922.353	3416
922.462	3287
922.571	3199
922.68	3119
922.789	3074
922.898	3112
923.007	3123
923.116	3203
923.224	3161
923.333	3161
923.442	3116
923.55	3039
923.659	3135
923.767	3214
923.876	3108
923.984	3207
924.092	3119
924.201	3207
924.309	3230
924.417	3237
924.525	3176
924.633	3245
924.741	4162
924.849	3036
924.956	3272
925.064	3085
925.172	2998
925.279	3089
925.387	3195
925.494	3157
925.602	3344
925.709	3325
925.816	3169
925.924	3264
926.031	3359
926.138	3306
926.245	3367
926.352	3260
926.459	3397
926.566	3424
926.673	3302
926.779	3222
926.886	3233
926.993	3142
927.099	3108
927.206	3100
927.312	3127
927.419	3233
927.525	3211
927.631	3306
927.737	3188
927.843	3119
927.95	3028
928.056	3150
928.162	3188
928.267	3203
928.373	3732
928.479	3344
928.585	3047
928.69	3207
928.796	3283
928.901	3169
929.007	3062
929.112	3195
929.218	3180
929.323	3150
929.428	3176
929.533	3313
929.638	3135
929.743	3157
929.848	3275
929.953	3199
930.058	3150
930.163	3013
930.267	3024
930.372	3214
930.477	3043
930.581	3287
930.685	3176
930.79	3097
930.894	3097
930.998	3123
931.103	3256
931.207	2956
931.311	2933
931.415	2922
931.519	2788
931.623	2838
