Data from test_V78500241_592.txt Node
Date: Fri Mar 25 16:19:18 CST 2022
User: usil
Spectrometer: V785-0024
Trigger mode: 0
Integration Time (sec): 4.000000E-1
Scans to average: 1
Nonlinearity correction enabled: false
Boxcar width: 0
Storing dark spectrum: false
XAxis mode: Wavelengths
Number of Pixels in Spectrum: 1024
>>>>>Begin Spectral Data<<<<<
801.071	2956
801.214	2986
801.356	2872
801.499	2929
801.641	2922
801.783	2952
801.926	3081
802.068	3047
802.211	3062
802.353	3051
802.496	3009
802.638	3047
802.78	3066
802.923	3150
803.065	3039
803.208	2933
803.35	2952
803.492	2979
803.635	2986
803.777	2766
803.919	2914
804.061	3283
804.204	3009
804.346	2971
804.488	2887
804.63	3009
804.773	2906
804.915	2929
805.057	3135
805.199	2960
805.341	2990
805.483	3077
805.626	3039
805.768	2979
805.91	3142
806.052	3165
806.194	3097
806.336	3241
806.478	3097
806.62	2967
806.762	2998
806.904	3097
807.046	3192
807.188	3005
807.33	2941
807.472	3024
807.614	2933
807.756	3013
807.898	2986
808.04	2937
808.182	3009
808.324	2986
808.465	2929
808.607	2922
808.749	2864
808.891	2826
809.033	2990
809.174	2971
809.316	2906
809.458	2963
809.6	2785
809.741	2750
809.883	2830
810.025	2868
810.166	2872
810.308	2849
810.45	2880
810.591	2788
810.733	2781
810.875	2895
811.016	2773
811.158	2807
811.299	2830
811.441	2933
811.582	2910
811.724	2845
811.865	2864
812.007	2925
812.148	2887
812.29	2891
812.431	2899
812.573	2960
812.714	2986
812.855	3039
812.997	3077
813.138	3188
813.279	3058
813.421	3013
813.562	3001
813.703	2899
813.845	2910
813.986	2800
814.127	2746
814.268	2864
814.41	2880
814.551	2842
814.692	2876
814.833	2868
814.974	2937
815.115	3017
815.256	2872
815.397	2838
815.539	2914
815.68	2834
815.821	2826
815.962	2960
816.103	2925
816.244	2910
816.385	2864
816.526	2982
816.666	2910
816.807	2769
816.948	2899
817.089	2956
817.23	2895
817.371	2834
817.512	2807
817.653	2868
817.793	2864
817.934	2925
818.075	2975
818.216	3001
818.356	3058
818.497	2887
818.638	2800
818.778	2842
818.919	2796
819.06	2777
819.2	2891
819.341	2845
819.481	2857
819.622	2956
819.762	3154
819.903	3066
820.043	2929
820.184	2937
820.324	2902
820.465	3047
820.605	3024
820.746	3100
820.886	2967
821.026	3108
821.167	3218
821.307	3264
821.447	3317
821.588	3256
821.728	3214
821.868	3169
822.008	3093
822.149	3203
822.289	3272
822.429	3085
822.569	3081
822.709	3176
822.849	3093
822.99	3100
823.13	3192
823.27	3214
823.41	3097
823.55	3195
823.69	3161
823.83	3211
823.97	3116
824.11	3074
824.25	3017
824.389	3138
824.529	3116
824.669	3081
824.809	3218
824.949	3264
825.089	3249
825.228	3157
825.368	3001
825.508	2998
825.648	3005
825.787	3055
825.927	3036
826.067	2998
826.206	2948
826.346	3085
826.485	3085
826.625	3085
826.765	3279
826.904	3192
827.044	3017
827.183	2941
827.323	2918
827.462	2998
827.601	2952
827.741	2948
827.88	2982
828.02	2891
828.159	2994
828.298	3043
828.437	3131
828.577	3062
828.716	3264
828.855	3112
828.994	2933
829.134	2899
829.273	2960
829.412	2910
829.551	2868
829.69	2929
829.829	2990
829.968	3119
830.107	3009
830.246	3066
830.385	2929
830.524	2880
830.663	2845
830.802	2777
830.941	2678
831.08	2674
831.219	2781
831.357	2804
831.496	2975
831.635	2739
831.774	2701
831.913	2716
832.051	2552
832.19	2583
832.329	2678
832.467	2571
832.606	2549
832.744	2602
832.883	2625
833.022	2617
833.16	2708
833.299	2731
833.437	2697
833.576	2708
833.714	2727
833.852	2773
833.991	2777
834.129	2876
834.267	2880
834.406	2796
834.544	2883
834.682	2906
834.821	2902
834.959	3066
835.097	2933
835.235	3085
835.373	3024
835.511	3028
835.65	2952
835.788	2979
835.926	2819
836.064	2845
836.202	2872
836.34	3119
836.478	3169
836.615	3077
836.753	3188
836.891	3275
837.029	3203
837.167	3146
837.305	3089
837.443	3020
837.58	2998
837.718	3116
837.856	3116
837.993	3005
838.131	3180
838.269	3127
838.406	3077
838.544	3085
838.681	2944
838.819	2925
838.956	2842
839.094	2857
839.231	2963
839.369	3020
839.506	3393
839.643	3245
839.781	3020
839.918	2925
840.055	3013
840.193	3051
840.33	3077
840.467	3085
840.604	3173
840.742	3420
840.879	3074
841.016	3039
841.153	3127
841.29	3359
841.427	3340
841.564	3279
841.701	3355
841.838	3249
841.975	3211
842.112	3253
842.249	3112
842.385	3112
842.522	3226
842.659	3138
842.796	3089
842.933	3146
843.069	3028
843.206	3036
843.343	3233
843.479	3116
843.616	3150
843.752	2902
843.889	2887
844.025	3100
844.162	2891
844.298	3070
844.435	2967
844.571	2918
844.708	3081
844.844	3214
844.98	3272
845.117	3222
845.253	3047
845.389	3032
845.525	3108
845.661	3097
845.798	3017
845.934	3131
846.07	3043
846.206	3222
846.342	3336
846.478	3230
846.614	3123
846.75	3097
846.886	3001
847.022	3237
847.158	3138
847.294	3199
847.429	3230
847.565	3211
847.701	3523
847.837	3055
847.972	3028
848.108	3180
848.244	3146
848.379	3024
848.515	2967
848.65	2952
848.786	2986
848.921	3013
849.057	3089
849.192	3146
849.328	3062
849.463	3161
849.598	3058
849.734	3039
849.869	2979
850.004	2967
850.14	2994
850.275	2922
850.41	2834
850.545	2883
850.68	2963
850.815	2975
850.95	2952
851.085	3188
851.22	3131
851.355	3051
851.49	2998
851.625	3051
851.76	3047
851.895	2941
852.03	2918
852.165	3039
852.299	3089
852.434	3188
852.569	3100
852.703	3165
852.838	3275
852.973	3359
853.107	3340
853.242	3165
853.376	3108
853.511	2967
853.645	3070
853.78	3253
853.914	3138
854.048	3154
854.183	3138
854.317	3176
854.451	3313
854.585	3123
854.72	3077
854.854	3214
854.988	3081
855.122	3077
855.256	2994
855.39	3127
855.524	3268
855.658	3203
855.792	3146
855.926	3195
856.06	3222
856.194	3237
856.327	3154
856.461	3089
856.595	3131
856.729	3100
856.862	3226
856.996	3173
857.13	3222
857.263	3230
857.397	3256
857.53	3119
857.664	3230
857.797	3245
857.931	3268
858.064	3180
858.197	3211
858.331	3135
858.464	3093
858.597	2994
858.731	3097
858.864	3180
858.997	3108
859.13	3138
859.263	3211
859.396	3184
859.529	3077
859.662	3077
859.795	3039
859.928	3138
860.061	3313
860.194	3275
860.327	3123
860.46	3135
860.592	3275
860.725	3272
860.858	3272
860.99	3093
861.123	3058
861.256	3039
861.388	3180
861.521	3667
861.653	3062
861.786	2998
861.918	2975
862.05	3066
862.183	3131
862.315	3135
862.447	3203
862.58	3093
862.712	2925
862.844	2895
862.976	3020
863.108	3039
863.24	3443
863.372	2868
863.504	2975
863.636	2971
863.768	3039
863.9	3009
864.032	2906
864.164	2941
864.296	2979
864.428	3127
864.559	3100
864.691	3077
864.823	3070
864.954	3036
865.086	3043
865.217	3005
865.349	2952
865.48	2975
865.612	3009
865.743	3119
865.875	2971
866.006	2971
866.137	2952
866.269	2982
866.4	2906
866.531	2944
866.662	2891
866.793	2910
866.924	2910
867.055	3028
867.186	2944
867.317	2914
867.448	2845
867.579	2872
867.71	2845
867.841	2834
867.972	2906
868.103	2922
868.233	2868
868.364	2899
868.495	2925
868.625	3066
868.756	3188
868.886	3017
869.017	3039
869.147	3154
869.278	3157
869.408	3043
869.539	3017
869.669	3089
869.799	2994
869.929	3138
870.06	3097
870.19	3348
870.32	3306
870.45	3294
870.58	3351
870.71	3443
870.84	3462
870.97	3275
871.1	3249
871.23	3492
871.36	3485
871.489	3386
871.619	3355
871.749	3401
871.879	3473
872.008	3466
872.138	3359
872.267	3302
872.397	3180
872.526	3138
872.656	3017
872.785	3077
872.915	3226
873.044	3317
873.173	3230
873.303	3264
873.432	3241
873.561	3272
873.69	3192
873.819	3188
873.948	3218
874.077	3112
874.206	3039
874.335	3066
874.464	3207
874.593	3351
874.722	3249
874.851	3370
874.979	3370
875.108	3310
875.237	3199
875.365	3192
875.494	3154
875.623	3237
875.751	3058
875.88	3116
876.008	3173
876.136	3256
876.265	3367
876.393	3534
876.521	3416
876.65	3351
876.778	3355
876.906	3237
877.034	3199
877.162	3222
877.29	3165
877.418	3253
877.546	3279
877.674	3245
877.802	3283
877.93	3233
878.058	3119
878.185	3108
878.313	3203
878.441	3192
878.568	3058
878.696	3154
878.824	3260
878.951	3298
879.079	3439
879.206	3663
879.333	3450
879.461	3332
879.588	3355
879.715	3507
879.842	3610
879.97	3405
880.097	3131
880.224	3127
880.351	3192
880.478	3272
880.605	3214
880.732	3211
880.859	3450
880.986	3306
881.112	3348
881.239	3192
881.366	3097
881.493	3013
881.619	3070
881.746	3112
881.872	3074
881.999	3108
882.125	3135
882.252	3237
882.378	3287
882.505	3443
882.631	3294
882.757	3157
882.883	3207
883.01	3207
883.136	3161
883.262	3093
883.388	3123
883.514	3329
883.64	3355
883.766	3287
883.892	3173
884.018	3291
884.143	3405
884.269	3553
884.395	3207
884.52	3154
884.646	3199
884.772	3135
884.897	3119
885.023	3199
885.148	3325
885.274	3397
885.399	3374
885.524	3291
885.65	3233
885.775	3294
885.9	3287
886.025	3428
886.15	3389
886.275	3329
886.4	3256
886.525	3298
886.65	3264
886.775	3298
886.9	3496
887.025	3595
887.149	3439
887.274	3222
887.399	3184
887.523	3211
887.648	3207
887.773	3165
887.897	3359
888.021	3393
888.146	3279
888.27	3405
888.395	3511
888.519	3466
888.643	3443
888.767	3450
888.891	3306
889.015	3226
889.139	3275
889.263	3268
889.387	3412
889.511	3519
889.635	3428
889.759	3291
889.883	3256
890.006	3386
890.13	3469
890.254	3249
890.377	3340
890.501	3188
890.624	3184
890.748	3298
890.871	3157
890.995	3081
891.118	3032
891.241	3230
891.364	3207
891.488	3340
891.611	3188
891.734	3218
891.857	3310
891.98	3268
892.103	3348
892.226	3279
892.349	3188
892.471	3135
892.594	3249
892.717	3279
892.839	3260
892.962	3310
893.085	3332
893.207	3283
893.33	3135
893.452	3211
893.575	3355
893.697	3249
893.819	3462
893.941	3492
894.064	3443
894.186	3245
894.308	3291
894.43	3458
894.552	3515
894.674	3420
894.796	3268
894.918	3302
895.04	3264
895.161	3412
895.283	3340
895.405	3283
895.526	3382
895.648	3431
895.769	3401
895.891	3439
896.012	3454
896.134	3447
896.255	3401
896.376	3382
896.498	3344
896.619	3447
896.74	3409
896.861	3401
896.982	3679
897.103	3869
897.224	3603
897.345	3492
897.466	3389
897.587	3458
897.708	3629
897.828	3557
897.949	3405
898.07	3298
898.19	3397
898.311	3587
898.431	3439
898.552	3492
898.672	3580
898.792	3534
898.913	3526
899.033	3397
899.153	3291
899.273	3184
899.393	3264
899.513	3310
899.633	3298
899.753	3359
899.873	3298
899.993	3370
900.113	3279
900.232	3397
900.352	3363
900.472	3283
900.591	3169
900.711	3287
900.83	3241
900.95	3401
901.069	3519
901.189	3363
901.308	3192
901.427	3127
901.546	3241
901.665	3279
901.784	3355
901.904	3230
902.023	3108
902.141	3005
902.26	2956
902.379	3146
902.498	3074
902.617	3039
902.735	3184
902.854	3253
902.973	3203
903.091	3039
903.21	3047
903.328	3154
903.446	3108
903.565	3089
903.683	3195
903.801	3138
903.919	3226
904.038	3272
904.156	3138
904.274	3298
904.392	3264
904.51	3298
904.627	3344
904.745	3393
904.863	3477
904.981	3268
905.098	3192
905.216	3245
905.334	3279
905.451	3329
905.569	3294
905.686	3439
905.803	3431
905.921	3268
906.038	3447
906.155	3351
906.272	3275
906.389	3310
906.506	3230
906.623	3222
906.74	3272
906.857	3195
906.974	3207
907.091	3454
907.208	3549
907.324	3454
907.441	3386
907.557	3253
907.674	3214
907.79	3192
907.907	3275
908.023	3344
908.139	3351
908.256	3363
908.372	3344
908.488	3340
908.604	3298
908.72	3253
908.836	3256
908.952	3275
909.068	3226
909.184	3515
909.3	3367
909.415	3500
909.531	3481
909.647	3279
909.762	3249
909.878	3222
909.993	3363
910.108	3367
910.224	3374
910.339	3401
910.454	3329
910.57	3275
910.685	3256
910.8	3587
910.915	3526
911.03	3424
911.145	3260
911.259	3275
911.374	3306
911.489	3245
911.604	3222
911.718	3127
911.833	3154
911.947	3032
912.062	2975
912.176	3154
912.291	3226
912.405	3203
912.519	3412
912.633	3454
912.748	3359
912.862	3260
912.976	3127
913.09	3066
913.204	3100
913.318	3157
913.431	3351
913.545	3332
913.659	3420
913.772	3310
913.886	3207
914	3199
914.113	3344
914.226	3367
914.34	3374
914.453	3176
914.566	3412
914.68	3253
914.793	3298
914.906	3146
915.019	3081
915.132	3055
915.245	3157
915.358	3169
915.47	3176
915.583	3291
915.696	3291
915.809	3409
915.921	3420
916.034	3245
916.146	3241
916.259	3230
916.371	3363
916.483	3367
916.595	3272
916.708	3272
916.82	3344
916.932	3359
917.044	3389
917.156	3298
917.268	3253
917.38	3317
917.491	3291
917.603	3405
917.715	3458
917.826	3450
917.938	3359
918.049	3256
918.161	3424
918.272	3599
918.384	3561
918.495	3507
918.606	3367
918.717	3268
918.828	3344
918.939	3401
919.05	3294
919.161	3405
919.272	3165
919.383	3237
919.494	3473
919.604	3690
919.715	3542
919.826	3412
919.936	3500
920.047	3580
920.157	3511
920.267	3770
920.378	3584
920.488	3576
920.598	3827
920.708	3983
920.818	3819
920.928	3831
921.038	4006
921.148	3956
921.258	3720
921.368	3629
921.477	3595
921.587	3519
921.697	3481
921.806	3610
921.916	3458
922.025	3355
922.134	3317
922.244	3294
922.353	3401
922.462	3214
922.571	3199
922.68	3100
922.789	3074
922.898	3146
923.007	3119
923.116	3169
923.224	3165
923.333	3161
923.442	3085
923.55	3074
923.659	3127
923.767	3214
923.876	3077
923.984	3249
924.092	3097
924.201	3203
924.309	3241
924.417	3237
924.525	3154
924.633	3245
924.741	4044
924.849	3039
924.956	3241
925.064	3085
925.172	3066
925.279	3123
925.387	3192
925.494	3176
925.602	3359
925.709	3302
925.816	3184
925.924	3279
926.031	3382
926.138	3306
926.245	3348
926.352	3214
926.459	3386
926.566	3473
926.673	3306
926.779	3211
926.886	3245
926.993	3146
927.099	3104
927.206	3085
927.312	3100
927.419	3233
927.525	3165
927.631	3230
927.737	3157
927.843	3127
927.95	3032
928.056	3131
928.162	3146
928.267	3245
928.373	3797
928.479	3340
928.585	3081
928.69	3237
928.796	3272
928.901	3157
929.007	3058
929.112	3237
929.218	3195
929.323	3176
929.428	3135
929.533	3329
929.638	3089
929.743	3184
929.848	3245
929.953	3214
930.058	3131
930.163	2998
930.267	3047
930.372	3207
930.477	3058
930.581	3279
930.685	3146
930.79	3066
930.894	3119
930.998	3116
931.103	3230
931.207	2986
931.311	2937
931.415	2925
931.519	2773
931.623	2804
