Data from test_V78500241_358.txt Node
Date: Fri Mar 25 16:17:41 CST 2022
User: usil
Spectrometer: V785-0024
Trigger mode: 0
Integration Time (sec): 4.000000E-1
Scans to average: 1
Nonlinearity correction enabled: false
Boxcar width: 0
Storing dark spectrum: false
XAxis mode: Wavelengths
Number of Pixels in Spectrum: 1024
>>>>>Begin Spectral Data<<<<<
801.071	2922
801.214	2982
801.356	2910
801.499	2914
801.641	2857
801.783	2941
801.926	3062
802.068	2982
802.211	3039
802.353	3070
802.496	2975
802.638	3028
802.78	3055
802.923	3089
803.065	3024
803.208	2918
803.35	2876
803.492	2925
803.635	2933
803.777	2804
803.919	2853
804.061	3207
804.204	2967
804.346	2929
804.488	2883
804.63	3013
804.773	2895
804.915	2975
805.057	3047
805.199	2975
805.341	3009
805.483	3077
805.626	3020
805.768	2982
805.91	3138
806.052	3100
806.194	3047
806.336	3275
806.478	3017
806.62	2975
806.762	2960
806.904	3077
807.046	3157
807.188	2998
807.33	2933
807.472	2994
807.614	2899
807.756	2998
807.898	2918
808.04	2922
808.182	2990
808.324	2971
808.465	2891
808.607	2914
808.749	2785
808.891	2838
809.033	3020
809.174	2971
809.316	2899
809.458	2914
809.6	2781
809.741	2777
809.883	2788
810.025	2868
810.166	2899
810.308	2849
810.45	2891
810.591	2762
810.733	2762
810.875	2864
811.016	2781
811.158	2762
811.299	2849
811.441	2941
811.582	2952
811.724	2819
811.865	2842
812.007	2876
812.148	2876
812.29	2864
812.431	2910
812.573	2952
812.714	2994
812.855	3058
812.997	3051
813.138	3116
813.279	3024
813.421	2986
813.562	2952
813.703	2891
813.845	2902
813.986	2811
814.127	2720
814.268	2845
814.41	2872
814.551	2853
814.692	2880
814.833	2849
814.974	2918
815.115	2960
815.256	2853
815.397	2872
815.539	2857
815.68	2792
815.821	2819
815.962	2948
816.103	2963
816.244	2887
816.385	2902
816.526	2990
816.666	2990
816.807	2754
816.948	2880
817.089	2895
817.23	2845
817.371	2754
817.512	2796
817.653	2861
817.793	2811
817.934	2891
818.075	2982
818.216	3005
818.356	3013
818.497	2887
818.638	2819
818.778	2834
818.919	2788
819.06	2830
819.2	2883
819.341	2845
819.481	2773
819.622	2929
819.762	3108
819.903	3062
820.043	2941
820.184	2914
820.324	2872
820.465	3036
820.605	3013
820.746	3013
820.886	2948
821.026	3127
821.167	3123
821.307	3272
821.447	3313
821.588	3233
821.728	3233
821.868	3203
822.008	3089
822.149	3188
822.289	3241
822.429	3116
822.569	3074
822.709	3195
822.849	3058
822.99	3123
823.13	3165
823.27	3211
823.41	3119
823.55	3154
823.69	3150
823.83	3203
823.97	3119
824.11	3005
824.25	2986
824.389	3051
824.529	3131
824.669	3123
824.809	3184
824.949	3264
825.089	3195
825.228	3192
825.368	3001
825.508	2979
825.648	2956
825.787	3043
825.927	3013
826.067	2982
826.206	2967
826.346	3036
826.485	3108
826.625	3112
826.765	3298
826.904	3192
827.044	3001
827.183	2948
827.323	2864
827.462	3036
827.601	2891
827.741	2986
827.88	2937
828.02	2872
828.159	2960
828.298	3039
828.437	3108
828.577	3058
828.716	3264
828.855	3093
828.994	2944
829.134	2895
829.273	2925
829.412	2872
829.551	2880
829.69	2906
829.829	3020
829.968	3150
830.107	3032
830.246	3051
830.385	2910
830.524	2883
830.663	2853
830.802	2781
830.941	2651
831.08	2655
831.219	2766
831.357	2727
831.496	2979
831.635	2712
831.774	2670
831.913	2636
832.051	2549
832.19	2579
832.329	2693
832.467	2545
832.606	2492
832.744	2545
832.883	2625
833.022	2606
833.16	2632
833.299	2659
833.437	2724
833.576	2724
833.714	2708
833.852	2720
833.991	2800
834.129	2830
834.267	2845
834.406	2819
834.544	2838
834.682	2910
834.821	2880
834.959	3077
835.097	2895
835.235	3055
835.373	3017
835.511	3039
835.65	2979
835.788	2967
835.926	2849
836.064	2807
836.202	2857
836.34	3104
836.478	3176
836.615	3066
836.753	3154
836.891	3192
837.029	3176
837.167	3119
837.305	3112
837.443	3043
837.58	2990
837.718	3154
837.856	3055
837.993	3047
838.131	3142
838.269	3081
838.406	3104
838.544	3116
838.681	2937
838.819	2944
838.956	2842
839.094	2838
839.231	2922
839.369	3036
839.506	3393
839.643	3207
839.781	2979
839.918	2933
840.055	3089
840.193	3047
840.33	3085
840.467	3112
840.604	3150
840.742	3428
840.879	3074
841.016	3081
841.153	3112
841.29	3306
841.427	3268
841.564	3298
841.701	3294
841.838	3249
841.975	3195
842.112	3211
842.249	3070
842.385	3055
842.522	3279
842.659	3093
842.796	3070
842.933	3097
843.069	3055
843.206	3055
843.343	3184
843.479	3081
843.616	3169
843.752	2922
843.889	2876
844.025	3085
844.162	2899
844.298	3051
844.435	2922
844.571	2933
844.708	3097
844.844	3184
844.98	3180
845.117	3173
845.253	3081
845.389	3036
845.525	3123
845.661	3093
845.798	3005
845.934	3157
846.07	3055
846.206	3218
846.342	3359
846.478	3253
846.614	3085
846.75	3062
846.886	3020
847.022	3245
847.158	3104
847.294	3165
847.429	3245
847.565	3207
847.701	3542
847.837	3024
847.972	2998
848.108	3131
848.244	3142
848.379	2979
848.515	2952
848.65	2971
848.786	2960
848.921	3013
849.057	3108
849.192	3169
849.328	3081
849.463	3100
849.598	3032
849.734	3028
849.869	2979
850.004	2941
850.14	2990
850.275	2902
850.41	2842
850.545	2887
850.68	2952
850.815	2933
850.95	2994
851.085	3184
851.22	3097
851.355	3039
851.49	3001
851.625	2963
851.76	3032
851.895	2925
852.03	2933
852.165	3032
852.299	3085
852.434	3207
852.569	3135
852.703	3176
852.838	3237
852.973	3351
853.107	3351
853.242	3154
853.376	3085
853.511	2929
853.645	3024
853.78	3249
853.914	3116
854.048	3089
854.183	3081
854.317	3165
854.451	3329
854.585	3142
854.72	3100
854.854	3214
854.988	3066
855.122	3093
855.256	2960
855.39	3085
855.524	3230
855.658	3169
855.792	3165
855.926	3154
856.06	3237
856.194	3249
856.327	3161
856.461	3077
856.595	3085
856.729	3142
856.862	3211
856.996	3173
857.13	3222
857.263	3260
857.397	3287
857.53	3104
857.664	3188
857.797	3253
857.931	3237
858.064	3112
858.197	3180
858.331	3138
858.464	3100
858.597	2998
858.731	3112
858.864	3116
858.997	3100
859.13	3192
859.263	3180
859.396	3203
859.529	3108
859.662	3066
859.795	3020
859.928	3123
860.061	3253
860.194	3294
860.327	3154
860.46	3077
860.592	3241
860.725	3256
860.858	3249
860.99	3100
861.123	3058
861.256	3036
861.388	3131
861.521	3694
861.653	3028
861.786	2937
861.918	3017
862.05	3058
862.183	3116
862.315	3173
862.447	3195
862.58	3127
862.712	2990
862.844	2872
862.976	2990
863.108	3009
863.24	3450
863.372	2899
863.504	2941
863.636	2944
863.768	3043
863.9	3001
864.032	2925
864.164	2960
864.296	3020
864.428	3108
864.559	3104
864.691	3043
864.823	3055
864.954	3032
865.086	3009
865.217	2990
865.349	2933
865.48	2986
865.612	3020
865.743	3108
865.875	2975
866.006	2933
866.137	2967
866.269	2918
866.4	2960
866.531	2910
866.662	2853
866.793	2899
866.924	2880
867.055	2975
867.186	2876
867.317	2861
867.448	2853
867.579	2834
867.71	2906
867.841	2811
867.972	2910
868.103	2910
868.233	2864
868.364	2902
868.495	2910
868.625	3100
868.756	3138
868.886	2956
869.017	2998
869.147	3203
869.278	3157
869.408	3028
869.539	3001
869.669	3119
869.799	3066
869.929	3100
870.06	3097
870.19	3321
870.32	3294
870.45	3298
870.58	3348
870.71	3469
870.84	3450
870.97	3306
871.1	3233
871.23	3481
871.36	3447
871.489	3389
871.619	3416
871.749	3428
871.879	3412
872.008	3488
872.138	3348
872.267	3264
872.397	3161
872.526	3093
872.656	2990
872.785	3077
872.915	3268
873.044	3306
873.173	3214
873.303	3283
873.432	3245
873.561	3268
873.69	3169
873.819	3154
873.948	3237
874.077	3104
874.206	3051
874.335	3081
874.464	3233
874.593	3367
874.722	3230
874.851	3389
874.979	3348
875.108	3332
875.237	3184
875.365	3199
875.494	3180
875.623	3237
875.751	3066
875.88	3119
876.008	3195
876.136	3226
876.265	3389
876.393	3511
876.521	3412
876.65	3397
876.778	3317
876.906	3260
877.034	3173
877.162	3207
877.29	3184
877.418	3268
877.546	3218
877.674	3279
877.802	3218
877.93	3275
878.058	3161
878.185	3100
878.313	3203
878.441	3203
878.568	3058
878.696	3169
878.824	3256
878.951	3294
879.079	3428
879.206	3625
879.333	3469
879.461	3310
879.588	3363
879.715	3504
879.842	3591
879.97	3378
880.097	3157
880.224	3165
880.351	3180
880.478	3214
880.605	3184
880.732	3146
880.859	3454
880.986	3302
881.112	3310
881.239	3249
881.366	3089
881.493	3009
881.619	3013
881.746	3089
881.872	3055
881.999	3100
882.125	3131
882.252	3230
882.378	3249
882.505	3435
882.631	3260
882.757	3138
882.883	3199
883.01	3233
883.136	3169
883.262	3097
883.388	3108
883.514	3329
883.64	3386
883.766	3291
883.892	3173
884.018	3195
884.143	3363
884.269	3542
884.395	3226
884.52	3146
884.646	3150
884.772	3116
884.897	3131
885.023	3211
885.148	3298
885.274	3409
885.399	3355
885.524	3283
885.65	3237
885.775	3298
885.9	3249
886.025	3416
886.15	3348
886.275	3256
886.4	3226
886.525	3336
886.65	3313
886.775	3287
886.9	3561
887.025	3652
887.149	3420
887.274	3253
887.399	3184
887.523	3199
887.648	3188
887.773	3207
887.897	3424
888.021	3374
888.146	3283
888.27	3443
888.395	3526
888.519	3458
888.643	3447
888.767	3458
888.891	3329
889.015	3218
889.139	3340
889.263	3237
889.387	3409
889.511	3500
889.635	3447
889.759	3310
889.883	3302
890.006	3351
890.13	3473
890.254	3260
890.377	3363
890.501	3218
890.624	3169
890.748	3329
890.871	3184
890.995	3112
891.118	3070
891.241	3218
891.364	3230
891.488	3329
891.611	3173
891.734	3256
891.857	3310
891.98	3264
892.103	3359
892.226	3272
892.349	3218
892.471	3123
892.594	3222
892.717	3306
892.839	3237
892.962	3336
893.085	3367
893.207	3294
893.33	3146
893.452	3207
893.575	3325
893.697	3256
893.819	3424
893.941	3515
894.064	3450
894.186	3268
894.308	3279
894.43	3466
894.552	3542
894.674	3462
894.796	3283
894.918	3306
895.04	3268
895.161	3435
895.283	3344
895.405	3310
895.526	3378
895.648	3420
895.769	3458
895.891	3447
896.012	3462
896.134	3496
896.255	3412
896.376	3405
896.498	3359
896.619	3389
896.74	3382
896.861	3382
896.982	3682
897.103	3808
897.224	3618
897.345	3504
897.466	3416
897.587	3485
897.708	3622
897.828	3580
897.949	3443
898.07	3340
898.19	3435
898.311	3595
898.431	3450
898.552	3515
898.672	3606
898.792	3584
898.913	3523
899.033	3397
899.153	3294
899.273	3218
899.393	3283
899.513	3279
899.633	3275
899.753	3344
899.873	3317
899.993	3359
900.113	3355
900.232	3359
900.352	3355
900.472	3283
900.591	3176
900.711	3272
900.83	3237
900.95	3412
901.069	3511
901.189	3359
901.308	3184
901.427	3135
901.546	3237
901.665	3260
901.784	3321
901.904	3245
902.023	3157
902.141	3020
902.26	2960
902.379	3173
902.498	3081
902.617	3066
902.735	3203
902.854	3237
902.973	3180
903.091	3020
903.21	3093
903.328	3135
903.446	3154
903.565	3116
903.683	3211
903.801	3154
903.919	3192
904.038	3275
904.156	3207
904.274	3279
904.392	3249
904.51	3264
904.627	3325
904.745	3458
904.863	3500
904.981	3275
905.098	3150
905.216	3249
905.334	3302
905.451	3310
905.569	3321
905.686	3428
905.803	3435
905.921	3264
906.038	3454
906.155	3367
906.272	3310
906.389	3332
906.506	3233
906.623	3287
906.74	3279
906.857	3245
906.974	3275
907.091	3443
907.208	3580
907.324	3530
907.441	3370
907.557	3218
907.674	3264
907.79	3222
907.907	3272
908.023	3355
908.139	3374
908.256	3325
908.372	3363
908.488	3344
908.604	3222
908.72	3241
908.836	3275
908.952	3275
909.068	3344
909.184	3481
909.3	3382
909.415	3504
909.531	3439
909.647	3306
909.762	3245
909.878	3268
909.993	3363
910.108	3321
910.224	3382
910.339	3405
910.454	3298
910.57	3325
910.685	3237
910.8	3603
910.915	3542
911.03	3431
911.145	3249
911.259	3245
911.374	3340
911.489	3222
911.604	3211
911.718	3135
911.833	3176
911.947	3032
912.062	2990
912.176	3203
912.291	3207
912.405	3195
912.519	3409
912.633	3431
912.748	3313
912.862	3245
912.976	3157
913.09	3032
913.204	3161
913.318	3207
913.431	3332
913.545	3317
913.659	3405
913.772	3302
913.886	3256
914	3241
914.113	3355
914.226	3401
914.34	3393
914.453	3199
914.566	3420
914.68	3294
914.793	3340
914.906	3119
915.019	3112
915.132	3100
915.245	3176
915.358	3241
915.47	3184
915.583	3279
915.696	3306
915.809	3363
915.921	3416
916.034	3256
916.146	3260
916.259	3230
916.371	3355
916.483	3355
916.595	3283
916.708	3332
916.82	3359
916.932	3329
917.044	3340
917.156	3367
917.268	3230
917.38	3272
917.491	3294
917.603	3386
917.715	3477
917.826	3458
917.938	3393
918.049	3279
918.161	3409
918.272	3545
918.384	3584
918.495	3469
918.606	3359
918.717	3272
918.828	3370
918.939	3428
919.05	3306
919.161	3374
919.272	3173
919.383	3249
919.494	3488
919.604	3679
919.715	3488
919.826	3412
919.936	3462
920.047	3595
920.157	3542
920.267	3755
920.378	3625
920.488	3568
920.598	3789
920.708	3964
920.818	3831
920.928	3823
921.038	4051
921.148	4002
921.258	3698
921.368	3629
921.477	3564
921.587	3557
921.697	3462
921.806	3629
921.916	3534
922.025	3306
922.134	3378
922.244	3302
922.353	3428
922.462	3245
922.571	3268
922.68	3123
922.789	3051
922.898	3188
923.007	3100
923.116	3218
923.224	3154
923.333	3176
923.442	3081
923.55	3093
923.659	3195
923.767	3184
923.876	3093
923.984	3218
924.092	3100
924.201	3214
924.309	3230
924.417	3291
924.525	3214
924.633	3241
924.741	4200
924.849	3055
924.956	3275
925.064	3104
925.172	3028
925.279	3085
925.387	3203
925.494	3184
925.602	3367
925.709	3355
925.816	3230
925.924	3214
926.031	3359
926.138	3344
926.245	3374
926.352	3211
926.459	3409
926.566	3507
926.673	3306
926.779	3214
926.886	3241
926.993	3142
927.099	3123
927.206	3119
927.312	3108
927.419	3226
927.525	3222
927.631	3287
927.737	3154
927.843	3081
927.95	3017
928.056	3146
928.162	3195
928.267	3253
928.373	3869
928.479	3306
928.585	3032
928.69	3233
928.796	3245
928.901	3154
929.007	3020
929.112	3214
929.218	3142
929.323	3180
929.428	3184
929.533	3325
929.638	3119
929.743	3165
929.848	3256
929.953	3203
930.058	3161
930.163	3009
930.267	3077
930.372	3203
930.477	3047
930.581	3298
930.685	3188
930.79	3039
930.894	3104
930.998	3100
931.103	3279
931.207	2910
931.311	2963
931.415	2910
931.519	2777
931.623	2842
