Data from test_V78500241_1918.txt Node
Date: Fri Mar 25 16:28:29 CST 2022
User: usil
Spectrometer: V785-0024
Trigger mode: 0
Integration Time (sec): 4.000000E-1
Scans to average: 1
Nonlinearity correction enabled: false
Boxcar width: 0
Storing dark spectrum: false
XAxis mode: Wavelengths
Number of Pixels in Spectrum: 1024
>>>>>Begin Spectral Data<<<<<
801.071	2960
801.214	2929
801.356	2902
801.499	2925
801.641	2880
801.783	2948
801.926	3081
802.068	2963
802.211	3005
802.353	3039
802.496	2952
802.638	3039
802.78	3032
802.923	3070
803.065	3028
803.208	2883
803.35	2944
803.492	2941
803.635	2925
803.777	2766
803.919	2895
804.061	3211
804.204	2971
804.346	2910
804.488	2826
804.63	3043
804.773	2872
804.915	2899
805.057	3097
805.199	2929
805.341	2922
805.483	3020
805.626	2971
805.768	2948
805.91	3077
806.052	3135
806.194	3032
806.336	3253
806.478	3066
806.62	2944
806.762	2960
806.904	3036
807.046	3188
807.188	2998
807.33	2933
807.472	2979
807.614	2880
807.756	2975
807.898	2933
808.04	2902
808.182	2963
808.324	2956
808.465	2872
808.607	2876
808.749	2826
808.891	2819
809.033	2975
809.174	2963
809.316	2895
809.458	2872
809.6	2773
809.741	2769
809.883	2746
810.025	2842
810.166	2845
810.308	2826
810.45	2861
810.591	2788
810.733	2750
810.875	2842
811.016	2788
811.158	2743
811.299	2796
811.441	2963
811.582	2887
811.724	2853
811.865	2857
812.007	2891
812.148	2880
812.29	2845
812.431	2891
812.573	2933
812.714	2956
812.855	3043
812.997	3013
813.138	3116
813.279	2960
813.421	3001
813.562	2948
813.703	2872
813.845	2883
813.986	2762
814.127	2716
814.268	2811
814.41	2830
814.551	2819
814.692	2868
814.833	2792
814.974	2895
815.115	2960
815.256	2807
815.397	2823
815.539	2872
815.68	2766
815.821	2758
815.962	2948
816.103	2941
816.244	2880
816.385	2849
816.526	2994
816.666	2914
816.807	2754
816.948	2895
817.089	2880
817.23	2823
817.371	2754
817.512	2804
817.653	2842
817.793	2823
817.934	2887
818.075	2929
818.216	2967
818.356	3017
818.497	2902
818.638	2796
818.778	2823
818.919	2769
819.06	2777
819.2	2872
819.341	2849
819.481	2819
819.622	2948
819.762	3036
819.903	3039
820.043	2933
820.184	2880
820.324	2899
820.465	2998
820.605	2998
820.746	3024
820.886	2941
821.026	3116
821.167	3180
821.307	3237
821.447	3279
821.588	3253
821.728	3184
821.868	3199
822.008	3085
822.149	3180
822.289	3241
822.429	3108
822.569	3089
822.709	3195
822.849	3066
822.99	3081
823.13	3226
823.27	3230
823.41	3119
823.55	3157
823.69	3195
823.83	3233
823.97	3116
824.11	3036
824.25	3032
824.389	3108
824.529	3180
824.669	3100
824.809	3211
824.949	3279
825.089	3237
825.228	3161
825.368	3062
825.508	2994
825.648	2994
825.787	3043
825.927	3085
826.067	3001
826.206	3017
826.346	3085
826.485	3093
826.625	3154
826.765	3306
826.904	3264
827.044	3043
827.183	2975
827.323	2929
827.462	3020
827.601	2937
827.741	2986
827.88	2998
828.02	2925
828.159	3017
828.298	3085
828.437	3176
828.577	3058
828.716	3332
828.855	3127
828.994	2967
829.134	2933
829.273	2967
829.412	2952
829.551	2918
829.69	2929
829.829	3028
829.968	3173
830.107	3043
830.246	3028
830.385	3013
830.524	2937
830.663	2807
830.802	2773
830.941	2678
831.08	2689
831.219	2823
831.357	2773
831.496	2967
831.635	2792
831.774	2708
831.913	2697
832.051	2575
832.19	2610
832.329	2716
832.467	2610
832.606	2507
832.744	2629
832.883	2632
833.022	2663
833.16	2712
833.299	2708
833.437	2727
833.576	2750
833.714	2785
833.852	2762
833.991	2788
834.129	2868
834.267	2857
834.406	2838
834.544	2922
834.682	2906
834.821	2902
834.959	3093
835.097	2941
835.235	3093
835.373	3005
835.511	3070
835.65	2998
835.788	3001
835.926	2872
836.064	2834
836.202	2876
836.34	3093
836.478	3169
836.615	3093
836.753	3195
836.891	3226
837.029	3195
837.167	3176
837.305	3077
837.443	3074
837.58	3001
837.718	3131
837.856	3093
837.993	3028
838.131	3142
838.269	3123
838.406	3138
838.544	3146
838.681	2952
838.819	2963
838.956	2864
839.094	2899
839.231	2906
839.369	3020
839.506	3412
839.643	3249
839.781	3032
839.918	3020
840.055	3081
840.193	3100
840.33	3104
840.467	3127
840.604	3222
840.742	3428
840.879	3085
841.016	3066
841.153	3135
841.29	3363
841.427	3329
841.564	3294
841.701	3367
841.838	3230
841.975	3203
842.112	3272
842.249	3146
842.385	3097
842.522	3294
842.659	3123
842.796	3058
842.933	3123
843.069	3055
843.206	3097
843.343	3211
843.479	3138
843.616	3207
843.752	2956
843.889	2910
844.025	3138
844.162	2910
844.298	3097
844.435	2933
844.571	2906
844.708	3093
844.844	3203
844.98	3294
845.117	3237
845.253	3097
845.389	3005
845.525	3097
845.661	3108
845.798	3039
845.934	3154
846.07	3070
846.206	3222
846.342	3340
846.478	3256
846.614	3150
846.75	3108
846.886	3093
847.022	3249
847.158	3146
847.294	3211
847.429	3310
847.565	3233
847.701	3485
847.837	3074
847.972	3039
848.108	3150
848.244	3150
848.379	3036
848.515	2956
848.65	2982
848.786	3043
848.921	3028
849.057	3142
849.192	3188
849.328	3070
849.463	3135
849.598	3081
849.734	3051
849.869	3013
850.004	2944
850.14	2986
850.275	2952
850.41	2845
850.545	2899
850.68	2998
850.815	2963
850.95	3005
851.085	3207
851.22	3123
851.355	3032
851.49	3017
851.625	3047
851.76	3036
851.895	3013
852.03	2956
852.165	3070
852.299	3154
852.434	3237
852.569	3169
852.703	3203
852.838	3279
852.973	3397
853.107	3367
853.242	3180
853.376	3119
853.511	2990
853.645	3066
853.78	3237
853.914	3169
854.048	3146
854.183	3127
854.317	3195
854.451	3298
854.585	3142
854.72	3081
854.854	3199
854.988	3051
855.122	3116
855.256	3013
855.39	3127
855.524	3249
855.658	3230
855.792	3142
855.926	3203
856.06	3237
856.194	3256
856.327	3192
856.461	3119
856.595	3108
856.729	3081
856.862	3249
856.996	3192
857.13	3222
857.263	3249
857.397	3313
857.53	3138
857.664	3245
857.797	3272
857.931	3264
858.064	3184
858.197	3264
858.331	3157
858.464	3123
858.597	3009
858.731	3131
858.864	3154
858.997	3116
859.13	3161
859.263	3214
859.396	3184
859.529	3100
859.662	3104
859.795	3104
859.928	3173
860.061	3325
860.194	3332
860.327	3180
860.46	3074
860.592	3260
860.725	3294
860.858	3233
860.99	3104
861.123	3055
861.256	3066
861.388	3165
861.521	3842
861.653	3043
861.786	2982
861.918	2990
862.05	3047
862.183	3104
862.315	3176
862.447	3203
862.58	3100
862.712	2971
862.844	2914
862.976	3013
863.108	3032
863.24	3367
863.372	2906
863.504	2967
863.636	2952
863.768	3062
863.9	3009
864.032	2956
864.164	2956
864.296	3036
864.428	3112
864.559	3131
864.691	3089
864.823	3116
864.954	3089
865.086	3062
865.217	3032
865.349	3020
865.48	3001
865.612	3032
865.743	3169
865.875	3036
866.006	2990
866.137	3028
866.269	2998
866.4	2944
866.531	2929
866.662	2899
866.793	2918
866.924	2975
867.055	2998
867.186	2948
867.317	2895
867.448	2876
867.579	2876
867.71	2845
867.841	2876
867.972	2902
868.103	2929
868.233	2929
868.364	2887
868.495	2963
868.625	3100
868.756	3116
868.886	2944
869.017	3013
869.147	3176
869.278	3157
869.408	3077
869.539	3039
869.669	3135
869.799	3051
869.929	3142
870.06	3127
870.19	3340
870.32	3355
870.45	3294
870.58	3424
870.71	3458
870.84	3458
870.97	3272
871.1	3272
871.23	3492
871.36	3469
871.489	3336
871.619	3424
871.749	3393
871.879	3450
872.008	3454
872.138	3386
872.267	3291
872.397	3165
872.526	3097
872.656	3043
872.785	3119
872.915	3249
873.044	3332
873.173	3253
873.303	3260
873.432	3245
873.561	3241
873.69	3176
873.819	3119
873.948	3195
874.077	3097
874.206	3085
874.335	3097
874.464	3237
874.593	3378
874.722	3256
874.851	3397
874.979	3367
875.108	3329
875.237	3207
875.365	3169
875.494	3165
875.623	3302
875.751	3089
875.88	3123
876.008	3218
876.136	3237
876.265	3386
876.393	3523
876.521	3458
876.65	3416
876.778	3389
876.906	3260
877.034	3199
877.162	3253
877.29	3207
877.418	3253
877.546	3256
877.674	3256
877.802	3260
877.93	3222
878.058	3169
878.185	3100
878.313	3211
878.441	3230
878.568	3081
878.696	3169
878.824	3272
878.951	3336
879.079	3477
879.206	3629
879.333	3447
879.461	3359
879.588	3348
879.715	3504
879.842	3622
879.97	3386
880.097	3207
880.224	3116
880.351	3230
880.478	3211
880.605	3207
880.732	3150
880.859	3511
880.986	3329
881.112	3340
881.239	3218
881.366	3123
881.493	3039
881.619	3047
881.746	3097
881.872	3165
881.999	3119
882.125	3169
882.252	3268
882.378	3344
882.505	3431
882.631	3321
882.757	3161
882.883	3233
883.01	3233
883.136	3150
883.262	3097
883.388	3127
883.514	3310
883.64	3409
883.766	3355
883.892	3192
884.018	3272
884.143	3424
884.269	3530
884.395	3233
884.52	3180
884.646	3188
884.772	3169
884.897	3119
885.023	3192
885.148	3344
885.274	3431
885.399	3405
885.524	3313
885.65	3249
885.775	3348
885.9	3317
886.025	3462
886.15	3378
886.275	3287
886.4	3237
886.525	3336
886.65	3268
886.775	3287
886.9	3515
887.025	3675
887.149	3412
887.274	3291
887.399	3237
887.523	3192
887.648	3184
887.773	3256
887.897	3348
888.021	3397
888.146	3310
888.27	3439
888.395	3515
888.519	3428
888.643	3431
888.767	3469
888.891	3344
889.015	3253
889.139	3298
889.263	3287
889.387	3420
889.511	3534
889.635	3500
889.759	3313
889.883	3264
890.006	3378
890.13	3473
890.254	3294
890.377	3382
890.501	3188
890.624	3188
890.748	3329
890.871	3188
890.995	3097
891.118	3089
891.241	3188
891.364	3226
891.488	3340
891.611	3203
891.734	3199
891.857	3317
891.98	3283
892.103	3329
892.226	3310
892.349	3203
892.471	3127
892.594	3230
892.717	3321
892.839	3279
892.962	3344
893.085	3382
893.207	3291
893.33	3176
893.452	3218
893.575	3344
893.697	3249
893.819	3466
893.941	3477
894.064	3485
894.186	3264
894.308	3317
894.43	3477
894.552	3500
894.674	3500
894.796	3291
894.918	3313
895.04	3294
895.161	3458
895.283	3389
895.405	3340
895.526	3363
895.648	3462
895.769	3458
895.891	3435
896.012	3469
896.134	3450
896.255	3389
896.376	3363
896.498	3370
896.619	3447
896.74	3386
896.861	3435
896.982	3705
897.103	3880
897.224	3576
897.345	3507
897.466	3439
897.587	3511
897.708	3701
897.828	3561
897.949	3469
898.07	3340
898.19	3409
898.311	3561
898.431	3458
898.552	3553
898.672	3610
898.792	3576
898.913	3553
899.033	3409
899.153	3253
899.273	3237
899.393	3306
899.513	3298
899.633	3291
899.753	3332
899.873	3344
899.993	3374
900.113	3359
900.232	3405
900.352	3340
900.472	3340
900.591	3203
900.711	3325
900.83	3249
900.95	3389
901.069	3481
901.189	3367
901.308	3192
901.427	3176
901.546	3214
901.665	3294
901.784	3336
901.904	3237
902.023	3142
902.141	3020
902.26	2994
902.379	3123
902.498	3097
902.617	3058
902.735	3180
902.854	3264
902.973	3173
903.091	3062
903.21	3036
903.328	3135
903.446	3131
903.565	3066
903.683	3199
903.801	3173
903.919	3241
904.038	3275
904.156	3150
904.274	3294
904.392	3222
904.51	3302
904.627	3355
904.745	3431
904.863	3507
904.981	3260
905.098	3150
905.216	3214
905.334	3310
905.451	3332
905.569	3336
905.686	3454
905.803	3450
905.921	3268
906.038	3439
906.155	3344
906.272	3283
906.389	3355
906.506	3214
906.623	3279
906.74	3260
906.857	3203
906.974	3249
907.091	3443
907.208	3526
907.324	3488
907.441	3389
907.557	3233
907.674	3260
907.79	3230
907.907	3306
908.023	3336
908.139	3405
908.256	3317
908.372	3382
908.488	3359
908.604	3256
908.72	3203
908.836	3294
908.952	3275
909.068	3359
909.184	3519
909.3	3389
909.415	3481
909.531	3488
909.647	3298
909.762	3294
909.878	3268
909.993	3348
910.108	3329
910.224	3306
910.339	3405
910.454	3374
910.57	3306
910.685	3233
910.8	3587
910.915	3545
911.03	3420
911.145	3264
911.259	3279
911.374	3321
911.489	3260
911.604	3222
911.718	3123
911.833	3142
911.947	3039
912.062	3001
912.176	3157
912.291	3203
912.405	3199
912.519	3443
912.633	3450
912.748	3344
912.862	3287
912.976	3135
913.09	3089
913.204	3123
913.318	3253
913.431	3310
913.545	3321
913.659	3435
913.772	3336
913.886	3249
914	3249
914.113	3412
914.226	3420
914.34	3359
914.453	3226
914.566	3397
914.68	3306
914.793	3336
914.906	3161
915.019	3123
915.132	3055
915.245	3173
915.358	3199
915.47	3237
915.583	3279
915.696	3332
915.809	3431
915.921	3431
916.034	3241
916.146	3226
916.259	3245
916.371	3359
916.483	3359
916.595	3260
916.708	3382
916.82	3351
916.932	3302
917.044	3370
917.156	3348
917.268	3241
917.38	3321
917.491	3306
917.603	3359
917.715	3447
917.826	3447
917.938	3363
918.049	3283
918.161	3424
918.272	3576
918.384	3557
918.495	3454
918.606	3359
918.717	3294
918.828	3382
918.939	3424
919.05	3302
919.161	3397
919.272	3161
919.383	3321
919.494	3496
919.604	3660
919.715	3549
919.826	3447
919.936	3431
920.047	3618
920.157	3534
920.267	3778
920.378	3614
920.488	3587
920.598	3774
920.708	3945
920.818	3808
920.928	3846
921.038	4017
921.148	4090
921.258	3679
921.368	3671
921.477	3561
921.587	3519
921.697	3496
921.806	3622
921.916	3496
922.025	3336
922.134	3370
922.244	3351
922.353	3443
922.462	3283
922.571	3203
922.68	3100
922.789	3108
922.898	3123
923.007	3097
923.116	3173
923.224	3180
923.333	3199
923.442	3108
923.55	3070
923.659	3131
923.767	3226
923.876	3127
923.984	3279
924.092	3093
924.201	3203
924.309	3226
924.417	3279
924.525	3207
924.633	3249
924.741	4150
924.849	3020
924.956	3245
925.064	3089
925.172	3081
925.279	3055
925.387	3195
925.494	3180
925.602	3348
925.709	3344
925.816	3203
925.924	3260
926.031	3370
926.138	3283
926.245	3340
926.352	3245
926.459	3416
926.566	3477
926.673	3332
926.779	3268
926.886	3260
926.993	3154
927.099	3100
927.206	3108
927.312	3123
927.419	3203
927.525	3203
927.631	3283
927.737	3127
927.843	3135
927.95	3013
928.056	3157
928.162	3176
928.267	3253
928.373	3861
928.479	3294
928.585	3097
928.69	3241
928.796	3230
928.901	3184
929.007	3028
929.112	3222
929.218	3150
929.323	3157
929.428	3138
929.533	3294
929.638	3104
929.743	3195
929.848	3287
929.953	3241
930.058	3146
930.163	2990
930.267	3081
930.372	3180
930.477	2998
930.581	3310
930.685	3157
930.79	3028
930.894	3123
930.998	3043
931.103	3272
931.207	2960
931.311	2956
931.415	2914
931.519	2769
931.623	2796
