Data from test_V78500241_1144.txt Node
Date: Fri Mar 25 16:23:07 CST 2022
User: usil
Spectrometer: V785-0024
Trigger mode: 0
Integration Time (sec): 4.000000E-1
Scans to average: 1
Nonlinearity correction enabled: false
Boxcar width: 0
Storing dark spectrum: false
XAxis mode: Wavelengths
Number of Pixels in Spectrum: 1024
>>>>>Begin Spectral Data<<<<<
801.071	2864
801.214	2929
801.356	2842
801.499	2895
801.641	2861
801.783	2922
801.926	3005
802.068	2986
802.211	2967
802.353	3013
802.496	2967
802.638	3009
802.78	3051
802.923	3066
803.065	2956
803.208	2861
803.35	2902
803.492	2906
803.635	2929
803.777	2724
803.919	2864
804.061	3169
804.204	2960
804.346	2902
804.488	2857
804.63	2998
804.773	2857
804.915	2922
805.057	3066
805.199	2922
805.341	2956
805.483	3036
805.626	3001
805.768	2994
805.91	3077
806.052	3112
806.194	3024
806.336	3207
806.478	3051
806.62	2956
806.762	2963
806.904	3074
807.046	3142
807.188	3005
807.33	2937
807.472	2982
807.614	2899
807.756	2967
807.898	2922
808.04	2895
808.182	2929
808.324	2910
808.465	2880
808.607	2849
808.749	2773
808.891	2819
809.033	2960
809.174	2925
809.316	2872
809.458	2899
809.6	2773
809.741	2769
809.883	2739
810.025	2868
810.166	2872
810.308	2857
810.45	2826
810.591	2777
810.733	2746
810.875	2861
811.016	2731
811.158	2743
811.299	2826
811.441	2948
811.582	2891
811.724	2819
811.865	2834
812.007	2902
812.148	2857
812.29	2842
812.431	2876
812.573	2918
812.714	2956
812.855	3024
812.997	3062
813.138	3093
813.279	3032
813.421	2967
813.562	2910
813.703	2895
813.845	2876
813.986	2762
814.127	2735
814.268	2823
814.41	2849
814.551	2834
814.692	2853
814.833	2804
814.974	2864
815.115	2944
815.256	2849
815.397	2800
815.539	2838
815.68	2792
815.821	2777
815.962	2929
816.103	2899
816.244	2864
816.385	2849
816.526	2948
816.666	2929
816.807	2754
816.948	2883
817.089	2872
817.23	2868
817.371	2792
817.512	2792
817.653	2811
817.793	2815
817.934	2853
818.075	2937
818.216	2994
818.356	3062
818.497	2876
818.638	2800
818.778	2823
818.919	2766
819.06	2746
819.2	2895
819.341	2781
819.481	2792
819.622	2937
819.762	3085
819.903	3028
820.043	2891
820.184	2883
820.324	2880
820.465	3024
820.605	2982
820.746	3005
820.886	2902
821.026	3085
821.167	3165
821.307	3233
821.447	3264
821.588	3218
821.728	3211
821.868	3184
822.008	3093
822.149	3176
822.289	3233
822.429	3047
822.569	3100
822.709	3176
822.849	2998
822.99	3039
823.13	3138
823.27	3203
823.41	3135
823.55	3192
823.69	3138
823.83	3195
823.97	3070
824.11	3028
824.25	2986
824.389	3074
824.529	3085
824.669	3047
824.809	3188
824.949	3249
825.089	3230
825.228	3112
825.368	2982
825.508	2948
825.648	2941
825.787	3017
825.927	3028
826.067	2960
826.206	2929
826.346	3051
826.485	3036
826.625	3058
826.765	3214
826.904	3222
827.044	2963
827.183	2914
827.323	2883
827.462	2994
827.601	2925
827.741	2880
827.88	2937
828.02	2834
828.159	3009
828.298	3013
828.437	3104
828.577	3051
828.716	3253
828.855	3051
828.994	2929
829.134	2849
829.273	2906
829.412	2823
829.551	2834
829.69	2925
829.829	2960
829.968	3119
830.107	3028
830.246	2994
830.385	2910
830.524	2883
830.663	2800
830.802	2724
830.941	2644
831.08	2648
831.219	2739
831.357	2754
831.496	2952
831.635	2716
831.774	2640
831.913	2629
832.051	2552
832.19	2579
832.329	2686
832.467	2541
832.606	2480
832.744	2579
832.883	2594
833.022	2579
833.16	2644
833.299	2682
833.437	2686
833.576	2708
833.714	2735
833.852	2727
833.991	2716
834.129	2834
834.267	2834
834.406	2773
834.544	2857
834.682	2853
834.821	2849
834.959	3085
835.097	2891
835.235	3036
835.373	3017
835.511	2994
835.65	2971
835.788	2944
835.926	2834
836.064	2788
836.202	2804
836.34	3074
836.478	3123
836.615	3024
836.753	3089
836.891	3218
837.029	3157
837.167	3108
837.305	3058
837.443	2986
837.58	2967
837.718	3135
837.856	3036
837.993	2982
838.131	3100
838.269	3097
838.406	3100
838.544	3043
838.681	2956
838.819	2868
838.956	2838
839.094	2834
839.231	2914
839.369	3017
839.506	3336
839.643	3154
839.781	3024
839.918	2944
840.055	3043
840.193	3051
840.33	3032
840.467	3085
840.604	3146
840.742	3378
840.879	3070
841.016	3055
841.153	3119
841.29	3382
841.427	3325
841.564	3230
841.701	3264
841.838	3188
841.975	3176
842.112	3214
842.249	3077
842.385	3028
842.522	3260
842.659	3070
842.796	3085
842.933	3116
843.069	3005
843.206	3017
843.343	3184
843.479	3097
843.616	3077
843.752	2906
843.889	2838
844.025	3100
844.162	2834
844.298	3104
844.435	2941
844.571	2876
844.708	3058
844.844	3173
844.98	3218
845.117	3195
845.253	3066
845.389	2948
845.525	3138
845.661	3108
845.798	3028
845.934	3077
846.07	3028
846.206	3188
846.342	3321
846.478	3218
846.614	3089
846.75	3058
846.886	2986
847.022	3218
847.158	3165
847.294	3169
847.429	3268
847.565	3207
847.701	3450
847.837	3013
847.972	2998
848.108	3135
848.244	3085
848.379	2979
848.515	2922
848.65	2914
848.786	2922
848.921	3005
849.057	3089
849.192	3142
849.328	3051
849.463	3108
849.598	3039
849.734	3043
849.869	2975
850.004	2941
850.14	2952
850.275	2876
850.41	2811
850.545	2880
850.68	2937
850.815	2967
850.95	2979
851.085	3150
851.22	3097
851.355	3024
851.49	2925
851.625	2971
851.76	3043
851.895	2952
852.03	2925
852.165	3009
852.299	3119
852.434	3173
852.569	3123
852.703	3169
852.838	3222
852.973	3355
853.107	3340
853.242	3173
853.376	3085
853.511	2960
853.645	3036
853.78	3214
853.914	3150
854.048	3116
854.183	3070
854.317	3131
854.451	3245
854.585	3108
854.72	3051
854.854	3184
854.988	3039
855.122	3062
855.256	2956
855.39	3100
855.524	3176
855.658	3165
855.792	3176
855.926	3157
856.06	3211
856.194	3233
856.327	3157
856.461	3058
856.595	3081
856.729	3093
856.862	3188
856.996	3157
857.13	3203
857.263	3218
857.397	3275
857.53	3085
857.664	3199
857.797	3241
857.931	3272
858.064	3161
858.197	3195
858.331	3119
858.464	3104
858.597	2986
858.731	3131
858.864	3127
858.997	3108
859.13	3165
859.263	3146
859.396	3199
859.529	3108
859.662	3062
859.795	3051
859.928	3138
860.061	3249
860.194	3241
860.327	3127
860.46	3085
860.592	3222
860.725	3268
860.858	3291
860.99	3081
861.123	3028
861.256	3039
861.388	3127
861.521	3740
861.653	3020
861.786	2990
861.918	3001
862.05	3062
862.183	3077
862.315	3150
862.447	3199
862.58	3116
862.712	2963
862.844	2861
862.976	3020
863.108	2979
863.24	3283
863.372	2883
863.504	2971
863.636	2967
863.768	3055
863.9	2956
864.032	2910
864.164	2944
864.296	3013
864.428	3093
864.559	3093
864.691	3062
864.823	3024
864.954	3005
865.086	3058
865.217	2986
865.349	2933
865.48	3024
865.612	3032
865.743	3180
865.875	2990
866.006	2918
866.137	2971
866.269	2922
866.4	2902
866.531	2906
866.662	2830
866.793	2857
866.924	2887
867.055	2948
867.186	2925
867.317	2876
867.448	2861
867.579	2834
867.71	2872
867.841	2800
867.972	2895
868.103	2933
868.233	2864
868.364	2876
868.495	2872
868.625	3043
868.756	3154
868.886	2937
869.017	3005
869.147	3161
869.278	3176
869.408	3051
869.539	3039
869.669	3093
869.799	3055
869.929	3123
870.06	3104
870.19	3329
870.32	3268
870.45	3294
870.58	3367
870.71	3447
870.84	3435
870.97	3260
871.1	3260
871.23	3481
871.36	3420
871.489	3367
871.619	3367
871.749	3405
871.879	3424
872.008	3477
872.138	3351
872.267	3291
872.397	3138
872.526	3081
872.656	2998
872.785	3104
872.915	3222
873.044	3355
873.173	3192
873.303	3275
873.432	3203
873.561	3222
873.69	3138
873.819	3085
873.948	3180
874.077	3089
874.206	3043
874.335	3108
874.464	3203
874.593	3317
874.722	3272
874.851	3367
874.979	3344
875.108	3272
875.237	3203
875.365	3154
875.494	3176
875.623	3218
875.751	3062
875.88	3123
876.008	3203
876.136	3230
876.265	3344
876.393	3488
876.521	3389
876.65	3389
876.778	3332
876.906	3275
877.034	3188
877.162	3230
877.29	3188
877.418	3237
877.546	3275
877.674	3241
877.802	3226
877.93	3199
878.058	3146
878.185	3119
878.313	3226
878.441	3211
878.568	3051
878.696	3123
878.824	3203
878.951	3287
879.079	3439
879.206	3599
879.333	3450
879.461	3302
879.588	3359
879.715	3473
879.842	3561
879.97	3393
880.097	3157
880.224	3135
880.351	3192
880.478	3245
880.605	3203
880.732	3184
880.859	3523
880.986	3279
881.112	3298
881.239	3184
881.366	3093
881.493	3013
881.619	2998
881.746	3043
881.872	3062
881.999	3070
882.125	3173
882.252	3233
882.378	3272
882.505	3397
882.631	3302
882.757	3150
882.883	3211
883.01	3207
883.136	3150
883.262	3085
883.388	3116
883.514	3313
883.64	3378
883.766	3332
883.892	3173
884.018	3230
884.143	3424
884.269	3492
884.395	3199
884.52	3150
884.646	3199
884.772	3138
884.897	3104
885.023	3184
885.148	3351
885.274	3389
885.399	3370
885.524	3275
885.65	3283
885.775	3317
885.9	3294
886.025	3405
886.15	3374
886.275	3275
886.4	3226
886.525	3302
886.65	3310
886.775	3268
886.9	3488
887.025	3633
887.149	3405
887.274	3249
887.399	3192
887.523	3195
887.648	3192
887.773	3203
887.897	3393
888.021	3401
888.146	3313
888.27	3431
888.395	3526
888.519	3386
888.643	3435
888.767	3443
888.891	3306
889.015	3283
889.139	3260
889.263	3245
889.387	3351
889.511	3526
889.635	3412
889.759	3279
889.883	3313
890.006	3348
890.13	3511
890.254	3306
890.377	3317
890.501	3180
890.624	3157
890.748	3275
890.871	3131
890.995	3074
891.118	3043
891.241	3192
891.364	3184
891.488	3344
891.611	3173
891.734	3218
891.857	3283
891.98	3214
892.103	3340
892.226	3294
892.349	3241
892.471	3081
892.594	3226
892.717	3283
892.839	3260
892.962	3253
893.085	3355
893.207	3310
893.33	3127
893.452	3211
893.575	3355
893.697	3218
893.819	3481
893.941	3454
894.064	3439
894.186	3264
894.308	3256
894.43	3462
894.552	3485
894.674	3473
894.796	3294
894.918	3325
895.04	3272
895.161	3431
895.283	3405
895.405	3249
895.526	3386
895.648	3416
895.769	3443
895.891	3466
896.012	3439
896.134	3435
896.255	3348
896.376	3378
896.498	3351
896.619	3431
896.74	3321
896.861	3428
896.982	3671
897.103	3854
897.224	3614
897.345	3511
897.466	3420
897.587	3458
897.708	3648
897.828	3580
897.949	3454
898.07	3325
898.19	3382
898.311	3523
898.431	3416
898.552	3519
898.672	3549
898.792	3595
898.913	3507
899.033	3401
899.153	3253
899.273	3218
899.393	3256
899.513	3313
899.633	3302
899.753	3336
899.873	3291
899.993	3382
900.113	3329
900.232	3374
900.352	3351
900.472	3348
900.591	3214
900.711	3268
900.83	3203
900.95	3359
901.069	3477
901.189	3363
901.308	3154
901.427	3127
901.546	3157
901.665	3313
901.784	3351
901.904	3218
902.023	3150
902.141	3009
902.26	3017
902.379	3127
902.498	3081
902.617	3081
902.735	3214
902.854	3222
902.973	3237
903.091	3032
903.21	3093
903.328	3146
903.446	3089
903.565	3123
903.683	3173
903.801	3131
903.919	3230
904.038	3287
904.156	3184
904.274	3268
904.392	3264
904.51	3279
904.627	3348
904.745	3435
904.863	3504
904.981	3233
905.098	3154
905.216	3241
905.334	3298
905.451	3272
905.569	3302
905.686	3443
905.803	3454
905.921	3287
906.038	3435
906.155	3344
906.272	3264
906.389	3313
906.506	3211
906.623	3275
906.74	3302
906.857	3211
906.974	3275
907.091	3382
907.208	3545
907.324	3431
907.441	3382
907.557	3249
907.674	3237
907.79	3214
907.907	3306
908.023	3351
908.139	3344
908.256	3329
908.372	3344
908.488	3344
908.604	3264
908.72	3253
908.836	3279
908.952	3272
909.068	3351
909.184	3466
909.3	3397
909.415	3515
909.531	3450
909.647	3264
909.762	3268
909.878	3260
909.993	3348
910.108	3363
910.224	3302
910.339	3412
910.454	3359
910.57	3272
910.685	3218
910.8	3557
910.915	3523
911.03	3431
911.145	3241
911.259	3272
911.374	3291
911.489	3222
911.604	3260
911.718	3138
911.833	3157
911.947	3013
912.062	2994
912.176	3154
912.291	3176
912.405	3207
912.519	3416
912.633	3447
912.748	3329
912.862	3287
912.976	3176
913.09	3058
913.204	3142
913.318	3245
913.431	3313
913.545	3355
913.659	3374
913.772	3363
913.886	3195
914	3192
914.113	3336
914.226	3370
914.34	3397
914.453	3192
914.566	3351
914.68	3253
914.793	3287
914.906	3146
915.019	3093
915.132	3081
915.245	3203
915.358	3222
915.47	3192
915.583	3249
915.696	3306
915.809	3382
915.921	3462
916.034	3237
916.146	3249
916.259	3245
916.371	3374
916.483	3348
916.595	3253
916.708	3359
916.82	3378
916.932	3332
917.044	3351
917.156	3332
917.268	3230
917.38	3260
917.491	3298
917.603	3310
917.715	3412
917.826	3439
917.938	3401
918.049	3283
918.161	3393
918.272	3576
918.384	3564
918.495	3538
918.606	3351
918.717	3253
918.828	3397
918.939	3382
919.05	3310
919.161	3363
919.272	3233
919.383	3260
919.494	3515
919.604	3694
919.715	3469
919.826	3439
919.936	3435
920.047	3618
920.157	3580
920.267	3812
920.378	3622
920.488	3564
920.598	3751
920.708	3953
920.818	3835
920.928	3778
921.038	4055
921.148	3983
921.258	3717
921.368	3656
921.477	3618
921.587	3572
921.697	3454
921.806	3633
921.916	3515
922.025	3382
922.134	3332
922.244	3329
922.353	3420
922.462	3260
922.571	3207
922.68	3135
922.789	3085
922.898	3150
923.007	3127
923.116	3203
923.224	3199
923.333	3203
923.442	3070
923.55	3100
923.659	3142
923.767	3199
923.876	3142
923.984	3211
924.092	3104
924.201	3226
924.309	3199
924.417	3237
924.525	3184
924.633	3214
924.741	4032
924.849	3055
924.956	3256
925.064	3097
925.172	3024
925.279	3108
925.387	3207
925.494	3207
925.602	3336
925.709	3355
925.816	3230
925.924	3287
926.031	3389
926.138	3336
926.245	3351
926.352	3218
926.459	3412
926.566	3462
926.673	3317
926.779	3253
926.886	3237
926.993	3123
927.099	3157
927.206	3119
927.312	3085
927.419	3253
927.525	3192
927.631	3272
927.737	3138
927.843	3104
927.95	3066
928.056	3119
928.162	3138
928.267	3188
928.373	3869
928.479	3310
928.585	3055
928.69	3230
928.796	3268
928.901	3157
929.007	3032
929.112	3188
929.218	3207
929.323	3131
929.428	3142
929.533	3325
929.638	3100
929.743	3188
929.848	3306
929.953	3195
930.058	3146
930.163	3005
930.267	3051
930.372	3173
930.477	3039
930.581	3310
930.685	3180
930.79	3047
930.894	3112
930.998	3074
931.103	3272
931.207	2967
931.311	2937
931.415	2918
931.519	2796
931.623	2800
