Data from test_V78500241_1972.txt Node
Date: Fri Mar 25 16:28:51 CST 2022
User: usil
Spectrometer: V785-0024
Trigger mode: 0
Integration Time (sec): 4.000000E-1
Scans to average: 1
Nonlinearity correction enabled: false
Boxcar width: 0
Storing dark spectrum: false
XAxis mode: Wavelengths
Number of Pixels in Spectrum: 1024
>>>>>Begin Spectral Data<<<<<
801.071	2864
801.214	2902
801.356	2895
801.499	2918
801.641	2864
801.783	2891
801.926	3077
802.068	2948
802.211	3017
802.353	3020
802.496	2956
802.638	3009
802.78	3058
802.923	3074
803.065	2986
803.208	2883
803.35	2922
803.492	2914
803.635	2891
803.777	2769
803.919	2857
804.061	3207
804.204	2960
804.346	2937
804.488	2853
804.63	2971
804.773	2883
804.915	2914
805.057	3093
805.199	2960
805.341	2979
805.483	3043
805.626	2990
805.768	2967
805.91	3055
806.052	3089
806.194	3036
806.336	3241
806.478	3001
806.62	2941
806.762	2956
806.904	3055
807.046	3173
807.188	3013
807.33	2922
807.472	3017
807.614	2891
807.756	2986
807.898	2899
808.04	2883
808.182	2963
808.324	2956
808.465	2880
808.607	2883
808.749	2826
808.891	2857
809.033	2967
809.174	2982
809.316	2857
809.458	2864
809.6	2796
809.741	2773
809.883	2758
810.025	2826
810.166	2872
810.308	2849
810.45	2868
810.591	2781
810.733	2781
810.875	2830
811.016	2777
811.158	2773
811.299	2823
811.441	2948
811.582	2887
811.724	2834
811.865	2853
812.007	2899
812.148	2849
812.29	2857
812.431	2861
812.573	2948
812.714	2963
812.855	3039
812.997	3043
813.138	3093
813.279	3005
813.421	2979
813.562	2929
813.703	2895
813.845	2891
813.986	2777
814.127	2701
814.268	2838
814.41	2849
814.551	2815
814.692	2887
814.833	2800
814.974	2925
815.115	2990
815.256	2785
815.397	2811
815.539	2785
815.68	2762
815.821	2800
815.962	2906
816.103	2982
816.244	2880
816.385	2853
816.526	2922
816.666	2925
816.807	2773
816.948	2864
817.089	2895
817.23	2899
817.371	2788
817.512	2815
817.653	2861
817.793	2823
817.934	2910
818.075	2982
818.216	2998
818.356	3032
818.497	2906
818.638	2804
818.778	2845
818.919	2777
819.06	2773
819.2	2880
819.341	2826
819.481	2804
819.622	2933
819.762	3089
819.903	3028
820.043	2880
820.184	2933
820.324	2891
820.465	3009
820.605	3009
820.746	3020
820.886	2922
821.026	3097
821.167	3127
821.307	3245
821.447	3287
821.588	3230
821.728	3211
821.868	3199
822.008	3089
822.149	3237
822.289	3253
822.429	3077
822.569	3070
822.709	3161
822.849	3051
822.99	3043
823.13	3173
823.27	3184
823.41	3085
823.55	3138
823.69	3154
823.83	3192
823.97	3070
824.11	2963
824.25	2990
824.389	3070
824.529	3085
824.669	3077
824.809	3195
824.949	3245
825.089	3256
825.228	3157
825.368	3009
825.508	2941
825.648	2956
825.787	3039
825.927	3017
826.067	2925
826.206	2998
826.346	3020
826.485	3020
826.625	3104
826.765	3260
826.904	3165
827.044	2960
827.183	2979
827.323	2834
827.462	2982
827.601	2910
827.741	2941
827.88	2925
828.02	2830
828.159	3001
828.298	3028
828.437	3127
828.577	3005
828.716	3249
828.855	3039
828.994	2922
829.134	2868
829.273	2895
829.412	2868
829.551	2838
829.69	2861
829.829	2975
829.968	3123
830.107	3005
830.246	3036
830.385	2922
830.524	2838
830.663	2781
830.802	2727
830.941	2644
831.08	2663
831.219	2746
831.357	2739
831.496	2933
831.635	2712
831.774	2648
831.913	2670
832.051	2541
832.19	2556
832.329	2655
832.467	2526
832.606	2476
832.744	2552
832.883	2552
833.022	2571
833.16	2674
833.299	2678
833.437	2674
833.576	2686
833.714	2678
833.852	2743
833.991	2754
834.129	2857
834.267	2800
834.406	2788
834.544	2868
834.682	2880
834.821	2864
834.959	3036
835.097	2891
835.235	3028
835.373	2979
835.511	3001
835.65	2925
835.788	2933
835.926	2845
836.064	2807
836.202	2868
836.34	3081
836.478	3138
836.615	3024
836.753	3127
836.891	3176
837.029	3138
837.167	3146
837.305	3066
837.443	3005
837.58	2960
837.718	3108
837.856	3085
837.993	3020
838.131	3135
838.269	3055
838.406	3093
838.544	3062
838.681	2918
838.819	2899
838.956	2823
839.094	2826
839.231	2910
839.369	2994
839.506	3389
839.643	3211
839.781	2994
839.918	2948
840.055	3043
840.193	3051
840.33	3123
840.467	3104
840.604	3093
840.742	3367
840.879	3077
841.016	3032
841.153	3089
841.29	3302
841.427	3291
841.564	3249
841.701	3313
841.838	3233
841.975	3165
842.112	3199
842.249	3074
842.385	3017
842.522	3241
842.659	3123
842.796	3036
842.933	3154
843.069	3005
843.206	3055
843.343	3161
843.479	3119
843.616	3112
843.752	2864
843.889	2853
844.025	3077
844.162	2861
844.298	3051
844.435	2948
844.571	2887
844.708	3028
844.844	3146
844.98	3233
845.117	3184
845.253	3032
845.389	2975
845.525	3081
845.661	3116
845.798	2975
845.934	3123
846.07	3058
846.206	3203
846.342	3317
846.478	3203
846.614	3081
846.75	3070
846.886	3009
847.022	3218
847.158	3116
847.294	3226
847.429	3279
847.565	3184
847.701	3530
847.837	3028
847.972	2994
848.108	3154
848.244	3138
848.379	2967
848.515	2925
848.65	2925
848.786	2956
848.921	2971
849.057	3089
849.192	3131
849.328	3085
849.463	3097
849.598	3055
849.734	3062
849.869	2994
850.004	2929
850.14	2952
850.275	2910
850.41	2887
850.545	2872
850.68	2883
850.815	2960
850.95	2937
851.085	3161
851.22	3104
851.355	3028
851.49	2998
851.625	3017
851.76	3039
851.895	2941
852.03	2944
852.165	3024
852.299	3104
852.434	3207
852.569	3131
852.703	3180
852.838	3233
852.973	3329
853.107	3317
853.242	3165
853.376	3062
853.511	2933
853.645	3036
853.78	3230
853.914	3112
854.048	3138
854.183	3051
854.317	3138
854.451	3317
854.585	3116
854.72	3089
854.854	3218
854.988	3055
855.122	3104
855.256	2982
855.39	3104
855.524	3233
855.658	3180
855.792	3157
855.926	3195
856.06	3233
856.194	3256
856.327	3165
856.461	3077
856.595	3093
856.729	3085
856.862	3169
856.996	3142
857.13	3180
857.263	3218
857.397	3272
857.53	3089
857.664	3161
857.797	3222
857.931	3230
858.064	3176
858.197	3260
858.331	3146
858.464	3074
858.597	3028
858.731	3108
858.864	3081
858.997	3085
859.13	3150
859.263	3203
859.396	3195
859.529	3074
859.662	3066
859.795	3020
859.928	3146
860.061	3260
860.194	3291
860.327	3093
860.46	3097
860.592	3256
860.725	3249
860.858	3253
860.99	3119
861.123	3013
861.256	3051
861.388	3127
861.521	3857
861.653	2975
861.786	2982
861.918	2963
862.05	3066
862.183	3089
862.315	3150
862.447	3199
862.58	3085
862.712	2933
862.844	2872
862.976	2990
863.108	2998
863.24	3458
863.372	2868
863.504	2960
863.636	2952
863.768	3009
863.9	2963
864.032	2918
864.164	2933
864.296	3001
864.428	3100
864.559	3074
864.691	3074
864.823	3070
864.954	2971
865.086	3047
865.217	2979
865.349	2960
865.48	2986
865.612	3020
865.743	3146
865.875	2937
866.006	2941
866.137	2982
866.269	2948
866.4	2956
866.531	2929
866.662	2883
866.793	2872
866.924	2883
867.055	2944
867.186	2933
867.317	2861
867.448	2853
867.579	2823
867.71	2868
867.841	2796
867.972	2906
868.103	2895
868.233	2830
868.364	2880
868.495	2902
868.625	3058
868.756	3173
868.886	2948
869.017	2998
869.147	3154
869.278	3150
869.408	3036
869.539	2998
869.669	3074
869.799	3036
869.929	3123
870.06	3138
870.19	3329
870.32	3253
870.45	3306
870.58	3329
870.71	3466
870.84	3405
870.97	3275
871.1	3230
871.23	3485
871.36	3488
871.489	3336
871.619	3348
871.749	3401
871.879	3428
872.008	3485
872.138	3321
872.267	3279
872.397	3142
872.526	3097
872.656	3001
872.785	3085
872.915	3241
873.044	3279
873.173	3203
873.303	3199
873.432	3233
873.561	3256
873.69	3146
873.819	3135
873.948	3226
874.077	3081
874.206	3043
874.335	3066
874.464	3180
874.593	3313
874.722	3245
874.851	3355
874.979	3374
875.108	3340
875.237	3165
875.365	3138
875.494	3161
875.623	3218
875.751	3058
875.88	3112
876.008	3188
876.136	3184
876.265	3374
876.393	3511
876.521	3412
876.65	3393
876.778	3340
876.906	3237
877.034	3184
877.162	3199
877.29	3176
877.418	3245
877.546	3195
877.674	3253
877.802	3199
877.93	3195
878.058	3131
878.185	3093
878.313	3226
878.441	3176
878.568	3028
878.696	3154
878.824	3249
878.951	3321
879.079	3389
879.206	3606
879.333	3428
879.461	3321
879.588	3359
879.715	3477
879.842	3599
879.97	3393
880.097	3165
880.224	3104
880.351	3195
880.478	3260
880.605	3169
880.732	3173
880.859	3488
880.986	3325
881.112	3294
881.239	3173
881.366	3108
881.493	3039
881.619	3001
881.746	3062
881.872	3104
881.999	3043
882.125	3146
882.252	3226
882.378	3317
882.505	3428
882.631	3253
882.757	3188
882.883	3218
883.01	3203
883.136	3131
883.262	3058
883.388	3108
883.514	3310
883.64	3370
883.766	3283
883.892	3184
884.018	3249
884.143	3386
884.269	3523
884.395	3222
884.52	3154
884.646	3241
884.772	3077
884.897	3081
885.023	3203
885.148	3321
885.274	3397
885.399	3321
885.524	3260
885.65	3264
885.775	3302
885.9	3264
886.025	3424
886.15	3329
886.275	3264
886.4	3237
886.525	3287
886.65	3268
886.775	3233
886.9	3500
887.025	3622
887.149	3424
887.274	3203
887.399	3154
887.523	3218
887.648	3199
887.773	3184
887.897	3340
888.021	3389
888.146	3321
888.27	3424
888.395	3500
888.519	3454
888.643	3397
888.767	3454
888.891	3329
889.015	3249
889.139	3279
889.263	3237
889.387	3374
889.511	3511
889.635	3447
889.759	3268
889.883	3283
890.006	3374
890.13	3485
890.254	3230
890.377	3344
890.501	3192
890.624	3207
890.748	3260
890.871	3218
890.995	3112
891.118	3081
891.241	3184
891.364	3218
891.488	3298
891.611	3142
891.734	3249
891.857	3310
891.98	3218
892.103	3332
892.226	3230
892.349	3192
892.471	3123
892.594	3230
892.717	3279
892.839	3291
892.962	3253
893.085	3378
893.207	3325
893.33	3138
893.452	3176
893.575	3332
893.697	3275
893.819	3447
893.941	3519
894.064	3450
894.186	3287
894.308	3256
894.43	3469
894.552	3542
894.674	3488
894.796	3321
894.918	3302
895.04	3268
895.161	3405
895.283	3393
895.405	3321
895.526	3340
895.648	3458
895.769	3397
895.891	3397
896.012	3477
896.134	3424
896.255	3450
896.376	3374
896.498	3351
896.619	3401
896.74	3382
896.861	3386
896.982	3675
897.103	3842
897.224	3603
897.345	3485
897.466	3401
897.587	3504
897.708	3599
897.828	3549
897.949	3447
898.07	3310
898.19	3416
898.311	3549
898.431	3450
898.552	3496
898.672	3580
898.792	3538
898.913	3523
899.033	3397
899.153	3260
899.273	3230
899.393	3275
899.513	3344
899.633	3310
899.753	3260
899.873	3325
899.993	3374
900.113	3317
900.232	3397
900.352	3332
900.472	3241
900.591	3214
900.711	3268
900.83	3230
900.95	3397
901.069	3504
901.189	3344
901.308	3142
901.427	3127
901.546	3169
901.665	3313
901.784	3268
901.904	3195
902.023	3157
902.141	3017
902.26	2982
902.379	3131
902.498	3058
902.617	3085
902.735	3199
902.854	3230
902.973	3188
903.091	3020
903.21	3058
903.328	3108
903.446	3108
903.565	3066
903.683	3188
903.801	3104
903.919	3256
904.038	3256
904.156	3199
904.274	3279
904.392	3211
904.51	3268
904.627	3367
904.745	3450
904.863	3488
904.981	3241
905.098	3180
905.216	3253
905.334	3241
905.451	3294
905.569	3291
905.686	3443
905.803	3450
905.921	3241
906.038	3389
906.155	3374
906.272	3245
906.389	3310
906.506	3218
906.623	3253
906.74	3268
906.857	3195
906.974	3272
907.091	3443
907.208	3523
907.324	3424
907.441	3367
907.557	3192
907.674	3222
907.79	3222
907.907	3272
908.023	3382
908.139	3363
908.256	3332
908.372	3405
908.488	3382
908.604	3268
908.72	3180
908.836	3245
908.952	3245
909.068	3325
909.184	3469
909.3	3367
909.415	3507
909.531	3435
909.647	3268
909.762	3310
909.878	3272
909.993	3363
910.108	3340
910.224	3332
910.339	3378
910.454	3310
910.57	3283
910.685	3203
910.8	3591
910.915	3564
911.03	3416
911.145	3283
911.259	3302
911.374	3298
911.489	3230
911.604	3245
911.718	3119
911.833	3157
911.947	3074
912.062	2967
912.176	3165
912.291	3169
912.405	3241
912.519	3424
912.633	3458
912.748	3329
912.862	3272
912.976	3131
913.09	3081
913.204	3173
913.318	3249
913.431	3306
913.545	3332
913.659	3405
913.772	3325
913.886	3195
914	3180
914.113	3344
914.226	3458
914.34	3348
914.453	3195
914.566	3397
914.68	3283
914.793	3359
914.906	3169
915.019	3104
915.132	3032
915.245	3138
915.358	3207
915.47	3230
915.583	3256
915.696	3313
915.809	3397
915.921	3454
916.034	3245
916.146	3272
916.259	3211
916.371	3374
916.483	3378
916.595	3264
916.708	3325
916.82	3321
916.932	3336
917.044	3340
917.156	3351
917.268	3294
917.38	3310
917.491	3325
917.603	3336
917.715	3420
917.826	3462
917.938	3344
918.049	3272
918.161	3412
918.272	3545
918.384	3595
918.495	3488
918.606	3317
918.717	3272
918.828	3374
918.939	3458
919.05	3302
919.161	3344
919.272	3157
919.383	3272
919.494	3530
919.604	3690
919.715	3507
919.826	3435
919.936	3473
920.047	3534
920.157	3526
920.267	3755
920.378	3584
920.488	3568
920.598	3789
920.708	3960
920.818	3812
920.928	3831
921.038	4036
921.148	4002
921.258	3728
921.368	3606
921.477	3584
921.587	3542
921.697	3477
921.806	3625
921.916	3534
922.025	3340
922.134	3348
922.244	3332
922.353	3431
922.462	3294
922.571	3275
922.68	3112
922.789	3032
922.898	3119
923.007	3081
923.116	3195
923.224	3165
923.333	3173
923.442	3093
923.55	3077
923.659	3157
923.767	3165
923.876	3150
923.984	3226
924.092	3138
924.201	3176
924.309	3245
924.417	3233
924.525	3184
924.633	3222
924.741	4177
924.849	3058
924.956	3264
925.064	3104
925.172	3020
925.279	3112
925.387	3226
925.494	3192
925.602	3363
925.709	3298
925.816	3199
925.924	3275
926.031	3393
926.138	3317
926.245	3344
926.352	3268
926.459	3409
926.566	3481
926.673	3294
926.779	3233
926.886	3233
926.993	3150
927.099	3100
927.206	3077
927.312	3116
927.419	3199
927.525	3195
927.631	3249
927.737	3119
927.843	3127
927.95	3024
928.056	3146
928.162	3176
928.267	3245
928.373	3873
928.479	3294
928.585	3074
928.69	3222
928.796	3245
928.901	3176
929.007	3013
929.112	3195
929.218	3173
929.323	3123
929.428	3138
929.533	3298
929.638	3093
929.743	3100
929.848	3260
929.953	3207
930.058	3176
930.163	3017
930.267	3077
930.372	3192
930.477	3039
930.581	3313
930.685	3192
930.79	3051
930.894	3108
930.998	3081
931.103	3233
931.207	2960
931.311	2948
931.415	2910
931.519	2754
931.623	2819
