Data from test_V78500241_1035.txt Node
Date: Fri Mar 25 16:22:22 CST 2022
User: usil
Spectrometer: V785-0024
Trigger mode: 0
Integration Time (sec): 4.000000E-1
Scans to average: 1
Nonlinearity correction enabled: false
Boxcar width: 0
Storing dark spectrum: false
XAxis mode: Wavelengths
Number of Pixels in Spectrum: 1024
>>>>>Begin Spectral Data<<<<<
801.071	2906
801.214	2956
801.356	2826
801.499	2899
801.641	2883
801.783	2971
801.926	3043
802.068	3005
802.211	2967
802.353	3024
802.496	2963
802.638	3005
802.78	3032
802.923	3081
803.065	2975
803.208	2914
803.35	2941
803.492	2929
803.635	2925
803.777	2788
803.919	2880
804.061	3199
804.204	2922
804.346	2937
804.488	2849
804.63	2979
804.773	2887
804.915	2967
805.057	3051
805.199	2895
805.341	2994
805.483	3058
805.626	3005
805.768	2971
805.91	3066
806.052	3081
806.194	3043
806.336	3249
806.478	3039
806.62	2948
806.762	3013
806.904	3058
807.046	3157
807.188	2941
807.33	2948
807.472	2998
807.614	2895
807.756	3020
807.898	2941
808.04	2933
808.182	2963
808.324	2963
808.465	2883
808.607	2895
808.749	2785
808.891	2880
809.033	2963
809.174	2998
809.316	2918
809.458	2918
809.6	2746
809.741	2796
809.883	2781
810.025	2861
810.166	2838
810.308	2849
810.45	2880
810.591	2766
810.733	2746
810.875	2849
811.016	2800
811.158	2750
811.299	2819
811.441	2922
811.582	2887
811.724	2819
811.865	2864
812.007	2910
812.148	2922
812.29	2868
812.431	2891
812.573	2975
812.714	2963
812.855	3047
812.997	3066
813.138	3119
813.279	3009
813.421	3020
813.562	2937
813.703	2876
813.845	2914
813.986	2762
814.127	2705
814.268	2838
814.41	2834
814.551	2838
814.692	2883
814.833	2842
814.974	2956
815.115	2994
815.256	2849
815.397	2823
815.539	2883
815.68	2743
815.821	2834
815.962	2937
816.103	2971
816.244	2902
816.385	2891
816.526	2948
816.666	2922
816.807	2766
816.948	2845
817.089	2929
817.23	2864
817.371	2788
817.512	2792
817.653	2838
817.793	2834
817.934	2910
818.075	2971
818.216	3017
818.356	3028
818.497	2868
818.638	2788
818.778	2811
818.919	2819
819.06	2773
819.2	2868
819.341	2792
819.481	2815
819.622	2937
819.762	3077
819.903	3055
820.043	2902
820.184	2902
820.324	2872
820.465	3043
820.605	3032
820.746	3024
820.886	2933
821.026	3093
821.167	3165
821.307	3272
821.447	3264
821.588	3230
821.728	3230
821.868	3214
822.008	3085
822.149	3192
822.289	3260
822.429	3100
822.569	3104
822.709	3180
822.849	2990
822.99	3077
823.13	3195
823.27	3226
823.41	3085
823.55	3161
823.69	3176
823.83	3188
823.97	3089
824.11	3009
824.25	2944
824.389	3093
824.529	3089
824.669	3081
824.809	3207
824.949	3253
825.089	3249
825.228	3199
825.368	3020
825.508	2979
825.648	2994
825.787	2998
825.927	3024
826.067	2944
826.206	2971
826.346	3036
826.485	3100
826.625	3093
826.765	3310
826.904	3176
827.044	2986
827.183	2933
827.323	2861
827.462	2975
827.601	2922
827.741	2944
827.88	2933
828.02	2845
828.159	2960
828.298	3058
828.437	3097
828.577	3039
828.716	3268
828.855	3085
828.994	2902
829.134	2910
829.273	2922
829.412	2902
829.551	2857
829.69	2895
829.829	2990
829.968	3104
830.107	2998
830.246	3028
830.385	2922
830.524	2853
830.663	2826
830.802	2727
830.941	2674
831.08	2606
831.219	2750
831.357	2769
831.496	2979
831.635	2716
831.774	2651
831.913	2674
832.051	2545
832.19	2583
832.329	2663
832.467	2530
832.606	2480
832.744	2610
832.883	2530
833.022	2568
833.16	2674
833.299	2705
833.437	2712
833.576	2705
833.714	2720
833.852	2743
833.991	2762
834.129	2838
834.267	2842
834.406	2785
834.544	2830
834.682	2876
834.821	2876
834.959	3089
835.097	2910
835.235	3116
835.373	3013
835.511	3055
835.65	2925
835.788	2963
835.926	2864
836.064	2800
836.202	2849
836.34	3055
836.478	3127
836.615	3043
836.753	3123
836.891	3203
837.029	3150
837.167	3150
837.305	3051
837.443	3013
837.58	2929
837.718	3154
837.856	3119
837.993	3051
838.131	3123
838.269	3119
838.406	3077
838.544	3085
838.681	2941
838.819	2895
838.956	2834
839.094	2838
839.231	2887
839.369	2998
839.506	3378
839.643	3199
839.781	2994
839.918	2986
840.055	3036
840.193	3028
840.33	3081
840.467	3112
840.604	3119
840.742	3393
840.879	3055
841.016	3032
841.153	3093
841.29	3310
841.427	3329
841.564	3302
841.701	3294
841.838	3222
841.975	3173
842.112	3180
842.249	3066
842.385	3013
842.522	3249
842.659	3051
842.796	3051
842.933	3077
843.069	3081
843.206	3028
843.343	3184
843.479	3089
843.616	3173
843.752	2910
843.889	2899
844.025	3085
844.162	2887
844.298	3104
844.435	2990
844.571	2952
844.708	3062
844.844	3188
844.98	3237
845.117	3184
845.253	3062
845.389	2990
845.525	3108
845.661	3097
845.798	3047
845.934	3176
846.07	3013
846.206	3195
846.342	3313
846.478	3268
846.614	3077
846.75	3039
846.886	3017
847.022	3249
847.158	3123
847.294	3222
847.429	3211
847.565	3207
847.701	3454
847.837	2994
847.972	3039
848.108	3165
848.244	3131
848.379	2986
848.515	2948
848.65	2922
848.786	2971
848.921	2990
849.057	3066
849.192	3131
849.328	3062
849.463	3127
849.598	3089
849.734	3047
849.869	2933
850.004	2910
850.14	2967
850.275	2914
850.41	2845
850.545	2906
850.68	2910
850.815	2948
850.95	2944
851.085	3211
851.22	3123
851.355	3058
851.49	2963
851.625	2963
851.76	2998
851.895	2948
852.03	2899
852.165	3032
852.299	3104
852.434	3184
852.569	3165
852.703	3169
852.838	3283
852.973	3332
853.107	3306
853.242	3150
853.376	3093
853.511	2971
853.645	3032
853.78	3199
853.914	3123
854.048	3077
854.183	3077
854.317	3104
854.451	3310
854.585	3146
854.72	3074
854.854	3199
854.988	3043
855.122	3081
855.256	2937
855.39	3116
855.524	3226
855.658	3154
855.792	3184
855.926	3214
856.06	3241
856.194	3264
856.327	3146
856.461	3043
856.595	3081
856.729	3074
856.862	3253
856.996	3173
857.13	3195
857.263	3226
857.397	3291
857.53	3116
857.664	3211
857.797	3249
857.931	3237
858.064	3165
858.197	3161
858.331	3146
858.464	3051
858.597	2971
858.731	3097
858.864	3127
858.997	3074
859.13	3165
859.263	3188
859.396	3203
859.529	3108
859.662	3062
859.795	3051
859.928	3127
860.061	3291
860.194	3249
860.327	3138
860.46	3100
860.592	3233
860.725	3241
860.858	3230
860.99	3097
861.123	3039
861.256	3043
861.388	3161
861.521	3778
861.653	2971
861.786	2967
861.918	2986
862.05	3020
862.183	3093
862.315	3142
862.447	3169
862.58	3097
862.712	2925
862.844	2868
862.976	2998
863.108	3039
863.24	3409
863.372	2902
863.504	2967
863.636	2986
863.768	3020
863.9	3020
864.032	2914
864.164	2952
864.296	3036
864.428	3104
864.559	3081
864.691	3119
864.823	3058
864.954	3047
865.086	3039
865.217	2975
865.349	2944
865.48	2986
865.612	3013
865.743	3184
865.875	2967
866.006	2952
866.137	2956
866.269	2925
866.4	2918
866.531	2906
866.662	2864
866.793	2895
866.924	2883
867.055	2937
867.186	2864
867.317	2883
867.448	2830
867.579	2838
867.71	2838
867.841	2845
867.972	2902
868.103	2902
868.233	2864
868.364	2880
868.495	2861
868.625	3089
868.756	3135
868.886	2941
869.017	2975
869.147	3180
869.278	3188
869.408	3123
869.539	3020
869.669	3081
869.799	3028
869.929	3100
870.06	3127
870.19	3298
870.32	3302
870.45	3302
870.58	3348
870.71	3454
870.84	3447
870.97	3283
871.1	3241
871.23	3488
871.36	3443
871.489	3389
871.619	3405
871.749	3409
871.879	3416
872.008	3496
872.138	3306
872.267	3226
872.397	3135
872.526	3089
872.656	2990
872.785	3100
872.915	3222
873.044	3317
873.173	3218
873.303	3237
873.432	3245
873.561	3230
873.69	3135
873.819	3138
873.948	3173
874.077	3093
874.206	3055
874.335	3070
874.464	3199
874.593	3351
874.722	3222
874.851	3363
874.979	3348
875.108	3332
875.237	3245
875.365	3169
875.494	3150
875.623	3245
875.751	3070
875.88	3157
876.008	3203
876.136	3226
876.265	3348
876.393	3511
876.521	3412
876.65	3401
876.778	3378
876.906	3233
877.034	3241
877.162	3226
877.29	3195
877.418	3260
877.546	3230
877.674	3283
877.802	3184
877.93	3214
878.058	3127
878.185	3093
878.313	3214
878.441	3176
878.568	3055
878.696	3142
878.824	3226
878.951	3291
879.079	3424
879.206	3618
879.333	3428
879.461	3317
879.588	3351
879.715	3504
879.842	3553
879.97	3412
880.097	3154
880.224	3123
880.351	3195
880.478	3211
880.605	3176
880.732	3135
880.859	3511
880.986	3294
881.112	3329
881.239	3226
881.366	3093
881.493	3039
881.619	2994
881.746	3047
881.872	3074
881.999	3081
882.125	3157
882.252	3241
882.378	3268
882.505	3435
882.631	3237
882.757	3154
882.883	3203
883.01	3222
883.136	3127
883.262	3081
883.388	3116
883.514	3302
883.64	3378
883.766	3283
883.892	3192
884.018	3245
884.143	3389
884.269	3507
884.395	3195
884.52	3192
884.646	3188
884.772	3123
884.897	3093
885.023	3195
885.148	3367
885.274	3412
885.399	3359
885.524	3272
885.65	3275
885.775	3310
885.9	3272
886.025	3420
886.15	3359
886.275	3306
886.4	3241
886.525	3287
886.65	3241
886.775	3268
886.9	3515
887.025	3610
887.149	3412
887.274	3253
887.399	3199
887.523	3195
887.648	3214
887.773	3195
887.897	3344
888.021	3428
888.146	3287
888.27	3412
888.395	3553
888.519	3412
888.643	3450
888.767	3443
888.891	3306
889.015	3222
889.139	3317
889.263	3279
889.387	3405
889.511	3485
889.635	3443
889.759	3268
889.883	3306
890.006	3351
890.13	3511
890.254	3306
890.377	3332
890.501	3188
890.624	3176
890.748	3294
890.871	3199
890.995	3116
891.118	3100
891.241	3199
891.364	3218
891.488	3302
891.611	3180
891.734	3245
891.857	3298
891.98	3226
892.103	3348
892.226	3256
892.349	3237
892.471	3116
892.594	3241
892.717	3287
892.839	3294
892.962	3279
893.085	3348
893.207	3313
893.33	3180
893.452	3211
893.575	3329
893.697	3249
893.819	3424
893.941	3515
894.064	3435
894.186	3268
894.308	3237
894.43	3443
894.552	3511
894.674	3485
894.796	3268
894.918	3310
895.04	3230
895.161	3409
895.283	3389
895.405	3340
895.526	3393
895.648	3393
895.769	3412
895.891	3454
896.012	3466
896.134	3447
896.255	3428
896.376	3367
896.498	3351
896.619	3435
896.74	3382
896.861	3367
896.982	3690
897.103	3835
897.224	3576
897.345	3496
897.466	3405
897.587	3511
897.708	3603
897.828	3561
897.949	3450
898.07	3329
898.19	3420
898.311	3637
898.431	3431
898.552	3538
898.672	3568
898.792	3485
898.913	3526
899.033	3428
899.153	3321
899.273	3214
899.393	3291
899.513	3279
899.633	3287
899.753	3329
899.873	3306
899.993	3382
900.113	3321
900.232	3367
900.352	3306
900.472	3298
900.591	3176
900.711	3287
900.83	3226
900.95	3378
901.069	3466
901.189	3329
901.308	3165
901.427	3203
901.546	3176
901.665	3283
901.784	3336
901.904	3203
902.023	3138
902.141	2979
902.26	3001
902.379	3142
902.498	3081
902.617	3024
902.735	3260
902.854	3214
902.973	3180
903.091	3028
903.21	3036
903.328	3150
903.446	3127
903.565	3077
903.683	3211
903.801	3119
903.919	3245
904.038	3279
904.156	3188
904.274	3256
904.392	3283
904.51	3294
904.627	3332
904.745	3428
904.863	3488
904.981	3222
905.098	3157
905.216	3218
905.334	3256
905.451	3310
905.569	3317
905.686	3409
905.803	3409
905.921	3287
906.038	3386
906.155	3355
906.272	3275
906.389	3317
906.506	3230
906.623	3230
906.74	3268
906.857	3169
906.974	3233
907.091	3424
907.208	3538
907.324	3424
907.441	3363
907.557	3233
907.674	3253
907.79	3233
907.907	3294
908.023	3355
908.139	3359
908.256	3329
908.372	3363
908.488	3359
908.604	3199
908.72	3222
908.836	3298
908.952	3283
909.068	3310
909.184	3458
909.3	3389
909.415	3511
909.531	3447
909.647	3272
909.762	3291
909.878	3241
909.993	3374
910.108	3348
910.224	3287
910.339	3431
910.454	3409
910.57	3302
910.685	3211
910.8	3610
910.915	3458
911.03	3382
911.145	3253
911.259	3313
911.374	3321
911.489	3268
911.604	3230
911.718	3085
911.833	3173
911.947	3039
912.062	2967
912.176	3157
912.291	3207
912.405	3214
912.519	3386
912.633	3462
912.748	3321
912.862	3241
912.976	3199
913.09	3081
913.204	3161
913.318	3214
913.431	3348
913.545	3351
913.659	3397
913.772	3382
913.886	3253
914	3192
914.113	3359
914.226	3405
914.34	3374
914.453	3211
914.566	3409
914.68	3298
914.793	3329
914.906	3161
915.019	3154
915.132	3085
915.245	3180
915.358	3176
915.47	3214
915.583	3279
915.696	3294
915.809	3416
915.921	3382
916.034	3211
916.146	3249
916.259	3188
916.371	3370
916.483	3306
916.595	3298
916.708	3310
916.82	3306
916.932	3367
917.044	3321
917.156	3340
917.268	3256
917.38	3283
917.491	3256
917.603	3355
917.715	3454
917.826	3492
917.938	3386
918.049	3321
918.161	3420
918.272	3557
918.384	3519
918.495	3511
918.606	3359
918.717	3275
918.828	3329
918.939	3443
919.05	3302
919.161	3409
919.272	3214
919.383	3268
919.494	3496
919.604	3652
919.715	3481
919.826	3401
919.936	3450
920.047	3538
920.157	3530
920.267	3717
920.378	3572
920.488	3606
920.598	3770
920.708	3930
920.818	3838
920.928	3842
921.038	4010
921.148	4021
921.258	3690
921.368	3584
921.477	3564
921.587	3523
921.697	3431
921.806	3610
921.916	3523
922.025	3355
922.134	3359
922.244	3332
922.353	3428
922.462	3294
922.571	3211
922.68	3116
922.789	3055
922.898	3123
923.007	3085
923.116	3207
923.224	3180
923.333	3161
923.442	3142
923.55	3062
923.659	3119
923.767	3222
923.876	3112
923.984	3230
924.092	3135
924.201	3199
924.309	3268
924.417	3260
924.525	3173
924.633	3230
924.741	4120
924.849	3058
924.956	3287
925.064	3093
925.172	3043
925.279	3108
925.387	3207
925.494	3214
925.602	3351
925.709	3367
925.816	3169
925.924	3287
926.031	3401
926.138	3386
926.245	3363
926.352	3233
926.459	3447
926.566	3435
926.673	3294
926.779	3226
926.886	3260
926.993	3195
927.099	3112
927.206	3116
927.312	3089
927.419	3233
927.525	3176
927.631	3283
927.737	3138
927.843	3112
927.95	3024
928.056	3146
928.162	3169
928.267	3241
928.373	3888
928.479	3329
928.585	3055
928.69	3233
928.796	3283
928.901	3230
929.007	3005
929.112	3188
929.218	3173
929.323	3154
929.428	3150
929.533	3351
929.638	3100
929.743	3138
929.848	3233
929.953	3195
930.058	3157
930.163	2998
930.267	3074
930.372	3230
930.477	3024
930.581	3294
930.685	3192
930.79	3043
930.894	3062
930.998	3074
931.103	3222
931.207	2922
931.311	2941
931.415	2914
931.519	2750
931.623	2800
