Data from test_V78500241_1270.txt Node
Date: Fri Mar 25 16:24:00 CST 2022
User: usil
Spectrometer: V785-0024
Trigger mode: 0
Integration Time (sec): 4.000000E-1
Scans to average: 1
Nonlinearity correction enabled: false
Boxcar width: 0
Storing dark spectrum: false
XAxis mode: Wavelengths
Number of Pixels in Spectrum: 1024
>>>>>Begin Spectral Data<<<<<
801.071	2956
801.214	2960
801.356	2948
801.499	2929
801.641	2925
801.783	2929
801.926	3028
802.068	2994
802.211	3036
802.353	3032
802.496	3013
802.638	3058
802.78	3081
802.923	3077
803.065	3036
803.208	2933
803.35	2929
803.492	3005
803.635	2941
803.777	2773
803.919	2868
804.061	3264
804.204	2944
804.346	2918
804.488	2849
804.63	3009
804.773	2891
804.915	2975
805.057	3116
805.199	2929
805.341	2994
805.483	3070
805.626	3020
805.768	2967
805.91	3116
806.052	3119
806.194	3074
806.336	3192
806.478	3074
806.62	2952
806.762	2990
806.904	3097
807.046	3173
807.188	2994
807.33	2937
807.472	2982
807.614	2941
807.756	3005
807.898	2960
808.04	2918
808.182	2982
808.324	2948
808.465	2906
808.607	2876
808.749	2788
808.891	2868
809.033	3001
809.174	3001
809.316	2910
809.458	2910
809.6	2800
809.741	2754
809.883	2792
810.025	2857
810.166	2899
810.308	2834
810.45	2899
810.591	2800
810.733	2762
810.875	2857
811.016	2826
811.158	2804
811.299	2823
811.441	2925
811.582	2944
811.724	2868
811.865	2895
812.007	2937
812.148	2914
812.29	2849
812.431	2906
812.573	2944
812.714	2963
812.855	3093
812.997	3055
813.138	3116
813.279	3024
813.421	3020
813.562	2982
813.703	2891
813.845	2887
813.986	2785
814.127	2727
814.268	2838
814.41	2868
814.551	2842
814.692	2887
814.833	2807
814.974	2906
815.115	2956
815.256	2861
815.397	2872
815.539	2906
815.68	2785
815.821	2807
815.962	2891
816.103	2963
816.244	2902
816.385	2872
816.526	2971
816.666	2929
816.807	2785
816.948	2891
817.089	2948
817.23	2868
817.371	2804
817.512	2819
817.653	2880
817.793	2849
817.934	2914
818.075	2960
818.216	3013
818.356	3077
818.497	2895
818.638	2823
818.778	2838
818.919	2834
819.06	2773
819.2	2902
819.341	2834
819.481	2800
819.622	2918
819.762	3138
819.903	3097
820.043	2937
820.184	2922
820.324	2937
820.465	3062
820.605	3024
820.746	3020
820.886	2902
821.026	3116
821.167	3192
821.307	3291
821.447	3283
821.588	3260
821.728	3222
821.868	3207
822.008	3085
822.149	3154
822.289	3241
822.429	3150
822.569	3104
822.709	3142
822.849	3058
822.99	3066
823.13	3173
823.27	3214
823.41	3135
823.55	3127
823.69	3135
823.83	3195
823.97	3150
824.11	2998
824.25	3039
824.389	3097
824.529	3123
824.669	3081
824.809	3195
824.949	3260
825.089	3233
825.228	3188
825.368	3017
825.508	2967
825.648	2998
825.787	3032
825.927	3043
826.067	2994
826.206	2986
826.346	3081
826.485	3104
826.625	3138
826.765	3298
826.904	3226
827.044	3013
827.183	2918
827.323	2864
827.462	2990
827.601	2918
827.741	2929
827.88	2937
828.02	2895
828.159	2952
828.298	3039
828.437	3161
828.577	3043
828.716	3283
828.855	3081
828.994	2910
829.134	2891
829.273	2982
829.412	2883
829.551	2902
829.69	2910
829.829	2975
829.968	3112
830.107	3043
830.246	3058
830.385	2929
830.524	2941
830.663	2823
830.802	2762
830.941	2659
831.08	2686
831.219	2796
831.357	2800
831.496	2956
831.635	2750
831.774	2689
831.913	2670
832.051	2533
832.19	2590
832.329	2663
832.467	2556
832.606	2495
832.744	2583
832.883	2590
833.022	2606
833.16	2689
833.299	2705
833.437	2678
833.576	2708
833.714	2716
833.852	2743
833.991	2785
834.129	2815
834.267	2838
834.406	2819
834.544	2872
834.682	2883
834.821	2872
834.959	3055
835.097	2906
835.235	3123
835.373	3005
835.511	3055
835.65	2979
835.788	2982
835.926	2838
836.064	2823
836.202	2872
836.34	3081
836.478	3173
836.615	3039
836.753	3173
836.891	3241
837.029	3180
837.167	3127
837.305	3070
837.443	3062
837.58	2975
837.718	3161
837.856	3081
837.993	3032
838.131	3100
838.269	3127
838.406	3108
838.544	3119
838.681	2941
838.819	2948
838.956	2853
839.094	2845
839.231	2941
839.369	3055
839.506	3386
839.643	3260
839.781	3009
839.918	2975
840.055	3089
840.193	3077
840.33	3062
840.467	3089
840.604	3142
840.742	3382
840.879	3058
841.016	3089
841.153	3097
841.29	3332
841.427	3332
841.564	3241
841.701	3317
841.838	3173
841.975	3192
842.112	3203
842.249	3100
842.385	3051
842.522	3260
842.659	3089
842.796	3085
842.933	3104
843.069	3070
843.206	3024
843.343	3195
843.479	3089
843.616	3123
843.752	2887
843.889	2910
844.025	3100
844.162	2899
844.298	3097
844.435	2982
844.571	2899
844.708	3070
844.844	3222
844.98	3245
845.117	3192
845.253	3066
845.389	3013
845.525	3097
845.661	3119
845.798	3024
845.934	3150
846.07	3074
846.206	3237
846.342	3336
846.478	3253
846.614	3108
846.75	3066
846.886	3058
847.022	3283
847.158	3173
847.294	3230
847.429	3253
847.565	3188
847.701	3507
847.837	3077
847.972	3020
848.108	3150
848.244	3150
848.379	2986
848.515	2967
848.65	2918
848.786	3028
848.921	2998
849.057	3131
849.192	3161
849.328	3112
849.463	3127
849.598	3055
849.734	3013
849.869	2956
850.004	2944
850.14	2998
850.275	2929
850.41	2826
850.545	2937
850.68	2914
850.815	2952
850.95	2998
851.085	3176
851.22	3100
851.355	3032
851.49	2960
851.625	3028
851.76	3013
851.895	2998
852.03	2899
852.165	3062
852.299	3123
852.434	3184
852.569	3119
852.703	3176
852.838	3237
852.973	3321
853.107	3340
853.242	3150
853.376	3100
853.511	2948
853.645	3055
853.78	3256
853.914	3195
854.048	3116
854.183	3077
854.317	3150
854.451	3306
854.585	3146
854.72	3070
854.854	3226
854.988	3085
855.122	3112
855.256	2975
855.39	3119
855.524	3245
855.658	3199
855.792	3146
855.926	3180
856.06	3241
856.194	3306
856.327	3161
856.461	3097
856.595	3077
856.729	3097
856.862	3222
856.996	3195
857.13	3230
857.263	3222
857.397	3283
857.53	3112
857.664	3241
857.797	3237
857.931	3275
858.064	3150
858.197	3226
858.331	3119
858.464	3081
858.597	3005
858.731	3131
858.864	3116
858.997	3112
859.13	3146
859.263	3176
859.396	3203
859.529	3097
859.662	3081
859.795	3089
859.928	3112
860.061	3298
860.194	3283
860.327	3146
860.46	3119
860.592	3233
860.725	3253
860.858	3249
860.99	3123
861.123	3036
861.256	3062
861.388	3135
861.521	3671
861.653	3020
861.786	2990
861.918	3028
862.05	3055
862.183	3127
862.315	3161
862.447	3165
862.58	3108
862.712	2933
862.844	2910
862.976	3028
863.108	2975
863.24	3313
863.372	2887
863.504	2979
863.636	2975
863.768	3070
863.9	2975
864.032	2906
864.164	2975
864.296	3009
864.428	3047
864.559	3116
864.691	3070
864.823	3116
864.954	3051
865.086	3081
865.217	2979
865.349	2929
865.48	2982
865.612	3005
865.743	3157
865.875	2971
866.006	2918
866.137	2948
866.269	2967
866.4	2929
866.531	2902
866.662	2944
866.793	2861
866.924	2883
867.055	2994
867.186	2941
867.317	2880
867.448	2826
867.579	2861
867.71	2838
867.841	2834
867.972	2887
868.103	2895
868.233	2887
868.364	2895
868.495	2914
868.625	3077
868.756	3150
868.886	2975
869.017	3032
869.147	3165
869.278	3138
869.408	3066
869.539	3009
869.669	3081
869.799	3051
869.929	3173
870.06	3131
870.19	3287
870.32	3275
870.45	3268
870.58	3325
870.71	3466
870.84	3485
870.97	3287
871.1	3230
871.23	3473
871.36	3424
871.489	3359
871.619	3397
871.749	3450
871.879	3431
872.008	3469
872.138	3363
872.267	3310
872.397	3165
872.526	3108
872.656	2982
872.785	3097
872.915	3249
873.044	3321
873.173	3222
873.303	3245
873.432	3260
873.561	3230
873.69	3157
873.819	3112
873.948	3176
874.077	3089
874.206	2990
874.335	3108
874.464	3245
874.593	3370
874.722	3237
874.851	3370
874.979	3313
875.108	3329
875.237	3184
875.365	3199
875.494	3180
875.623	3249
875.751	3055
875.88	3127
876.008	3154
876.136	3233
876.265	3370
876.393	3500
876.521	3447
876.65	3431
876.778	3351
876.906	3222
877.034	3184
877.162	3230
877.29	3157
877.418	3241
877.546	3241
877.674	3226
877.802	3241
877.93	3222
878.058	3150
878.185	3097
878.313	3203
878.441	3211
878.568	3108
878.696	3165
878.824	3230
878.951	3279
879.079	3454
879.206	3572
879.333	3450
879.461	3332
879.588	3329
879.715	3496
879.842	3606
879.97	3374
880.097	3180
880.224	3154
880.351	3203
880.478	3214
880.605	3173
880.732	3180
880.859	3504
880.986	3325
881.112	3367
881.239	3222
881.366	3097
881.493	3047
881.619	3017
881.746	3104
881.872	3081
881.999	3100
882.125	3157
882.252	3264
882.378	3283
882.505	3424
882.631	3283
882.757	3192
882.883	3222
883.01	3241
883.136	3157
883.262	3085
883.388	3123
883.514	3329
883.64	3397
883.766	3321
883.892	3154
884.018	3230
884.143	3412
884.269	3561
884.395	3188
884.52	3161
884.646	3154
884.772	3131
884.897	3138
885.023	3226
885.148	3348
885.274	3420
885.399	3370
885.524	3272
885.65	3287
885.775	3329
885.9	3230
886.025	3424
886.15	3359
886.275	3275
886.4	3230
886.525	3294
886.65	3245
886.775	3253
886.9	3515
887.025	3618
887.149	3397
887.274	3253
887.399	3218
887.523	3165
887.648	3161
887.773	3207
887.897	3363
888.021	3424
888.146	3294
888.27	3409
888.395	3481
888.519	3424
888.643	3439
888.767	3450
888.891	3306
889.015	3222
889.139	3260
889.263	3272
889.387	3378
889.511	3523
889.635	3435
889.759	3291
889.883	3298
890.006	3370
890.13	3485
890.254	3275
890.377	3332
890.501	3230
890.624	3218
890.748	3275
890.871	3188
890.995	3119
891.118	3032
891.241	3169
891.364	3188
891.488	3336
891.611	3169
891.734	3226
891.857	3310
891.98	3237
892.103	3344
892.226	3253
892.349	3253
892.471	3112
892.594	3253
892.717	3283
892.839	3264
892.962	3298
893.085	3367
893.207	3294
893.33	3131
893.452	3222
893.575	3340
893.697	3241
893.819	3450
893.941	3466
894.064	3469
894.186	3268
894.308	3245
894.43	3439
894.552	3523
894.674	3462
894.796	3275
894.918	3298
895.04	3283
895.161	3420
895.283	3367
895.405	3294
895.526	3351
895.648	3389
895.769	3416
895.891	3454
896.012	3523
896.134	3477
896.255	3405
896.376	3401
896.498	3329
896.619	3386
896.74	3374
896.861	3412
896.982	3679
897.103	3846
897.224	3656
897.345	3553
897.466	3439
897.587	3511
897.708	3618
897.828	3511
897.949	3443
898.07	3321
898.19	3420
898.311	3591
898.431	3466
898.552	3511
898.672	3606
898.792	3564
898.913	3519
899.033	3405
899.153	3321
899.273	3188
899.393	3279
899.513	3332
899.633	3283
899.753	3351
899.873	3310
899.993	3374
900.113	3363
900.232	3431
900.352	3329
900.472	3294
900.591	3207
900.711	3306
900.83	3226
900.95	3382
901.069	3469
901.189	3329
901.308	3169
901.427	3165
901.546	3199
901.665	3287
901.784	3310
901.904	3176
902.023	3146
902.141	3047
902.26	3001
902.379	3119
902.498	3020
902.617	3081
902.735	3192
902.854	3214
902.973	3154
903.091	3036
903.21	3127
903.328	3154
903.446	3108
903.565	3085
903.683	3199
903.801	3108
903.919	3226
904.038	3241
904.156	3146
904.274	3264
904.392	3230
904.51	3298
904.627	3302
904.745	3462
904.863	3492
904.981	3237
905.098	3184
905.216	3199
905.334	3283
905.451	3317
905.569	3279
905.686	3412
905.803	3428
905.921	3279
906.038	3431
906.155	3336
906.272	3287
906.389	3325
906.506	3214
906.623	3230
906.74	3241
906.857	3203
906.974	3241
907.091	3450
907.208	3538
907.324	3511
907.441	3367
907.557	3218
907.674	3264
907.79	3157
907.907	3310
908.023	3378
908.139	3386
908.256	3325
908.372	3389
908.488	3348
908.604	3233
908.72	3222
908.836	3279
908.952	3268
909.068	3340
909.184	3473
909.3	3378
909.415	3500
909.531	3466
909.647	3272
909.762	3268
909.878	3279
909.993	3355
910.108	3355
910.224	3325
910.339	3386
910.454	3367
910.57	3313
910.685	3249
910.8	3557
910.915	3496
911.03	3431
911.145	3256
911.259	3291
911.374	3302
911.489	3237
911.604	3233
911.718	3074
911.833	3142
911.947	3001
912.062	3039
912.176	3127
912.291	3157
912.405	3180
912.519	3431
912.633	3511
912.748	3306
912.862	3272
912.976	3169
913.09	3039
913.204	3123
913.318	3169
913.431	3321
913.545	3329
913.659	3389
913.772	3332
913.886	3249
914	3173
914.113	3363
914.226	3389
914.34	3348
914.453	3241
914.566	3431
914.68	3317
914.793	3302
914.906	3135
915.019	3093
915.132	3047
915.245	3165
915.358	3233
915.47	3245
915.583	3245
915.696	3268
915.809	3401
915.921	3424
916.034	3249
916.146	3230
916.259	3237
916.371	3370
916.483	3367
916.595	3245
916.708	3321
916.82	3336
916.932	3351
917.044	3329
917.156	3351
917.268	3222
917.38	3310
917.491	3283
917.603	3359
917.715	3416
917.826	3450
917.938	3359
918.049	3272
918.161	3458
918.272	3553
918.384	3576
918.495	3488
918.606	3340
918.717	3256
918.828	3367
918.939	3397
919.05	3275
919.161	3386
919.272	3195
919.383	3233
919.494	3481
919.604	3663
919.715	3496
919.826	3401
919.936	3458
920.047	3599
920.157	3572
920.267	3740
920.378	3572
920.488	3610
920.598	3789
920.708	3949
920.818	3819
920.928	3800
921.038	3983
921.148	3968
921.258	3701
921.368	3603
921.477	3542
921.587	3511
921.697	3447
921.806	3618
921.916	3511
922.025	3340
922.134	3344
922.244	3306
922.353	3409
922.462	3268
922.571	3214
922.68	3104
922.789	3104
922.898	3127
923.007	3131
923.116	3184
923.224	3165
923.333	3173
923.442	3093
923.55	3138
923.659	3116
923.767	3211
923.876	3074
923.984	3214
924.092	3077
924.201	3176
924.309	3214
924.417	3279
924.525	3180
924.633	3218
924.741	4044
924.849	3020
924.956	3264
925.064	3093
925.172	3001
925.279	3089
925.387	3154
925.494	3180
925.602	3325
925.709	3348
925.816	3169
925.924	3245
926.031	3382
926.138	3344
926.245	3329
926.352	3241
926.459	3431
926.566	3462
926.673	3329
926.779	3256
926.886	3241
926.993	3157
927.099	3123
927.206	3089
927.312	3127
927.419	3207
927.525	3214
927.631	3291
927.737	3112
927.843	3138
927.95	3043
928.056	3097
928.162	3169
928.267	3218
928.373	3831
928.479	3287
928.585	3039
928.69	3226
928.796	3275
928.901	3165
929.007	3017
929.112	3211
929.218	3154
929.323	3123
929.428	3142
929.533	3310
929.638	3093
929.743	3165
929.848	3249
929.953	3214
930.058	3169
930.163	3013
930.267	3058
930.372	3211
930.477	3036
930.581	3283
930.685	3161
930.79	3058
930.894	3119
930.998	3085
931.103	3321
931.207	2937
931.311	2944
931.415	2914
931.519	2769
931.623	2826
