Data from test_V78500241_704.txt Node
Date: Fri Mar 25 16:20:04 CST 2022
User: usil
Spectrometer: V785-0024
Trigger mode: 0
Integration Time (sec): 4.000000E-1
Scans to average: 1
Nonlinearity correction enabled: false
Boxcar width: 0
Storing dark spectrum: false
XAxis mode: Wavelengths
Number of Pixels in Spectrum: 1024
>>>>>Begin Spectral Data<<<<<
801.071	2887
801.214	2948
801.356	2849
801.499	2891
801.641	2838
801.783	2895
801.926	3028
802.068	2963
802.211	3017
802.353	3028
802.496	2963
802.638	3036
802.78	3036
802.923	3089
803.065	3039
803.208	2902
803.35	2891
803.492	2925
803.635	2925
803.777	2804
803.919	2872
804.061	3222
804.204	2944
804.346	2895
804.488	2830
804.63	2982
804.773	2861
804.915	2963
805.057	3070
805.199	2933
805.341	2952
805.483	3032
805.626	3005
805.768	2956
805.91	3062
806.052	3112
806.194	3017
806.336	3245
806.478	3081
806.62	3001
806.762	2982
806.904	3070
807.046	3176
807.188	2986
807.33	2910
807.472	3001
807.614	2906
807.756	2956
807.898	2922
808.04	2868
808.182	2982
808.324	2948
808.465	2861
808.607	2861
808.749	2815
808.891	2845
809.033	2986
809.174	2952
809.316	2880
809.458	2876
809.6	2807
809.741	2754
809.883	2743
810.025	2845
810.166	2868
810.308	2834
810.45	2826
810.591	2766
810.733	2743
810.875	2857
811.016	2773
811.158	2743
811.299	2826
811.441	2937
811.582	2910
811.724	2792
811.865	2834
812.007	2883
812.148	2891
812.29	2861
812.431	2914
812.573	2887
812.714	2960
812.855	3074
812.997	3043
813.138	3104
813.279	3009
813.421	2994
813.562	2944
813.703	2876
813.845	2849
813.986	2792
814.127	2743
814.268	2792
814.41	2853
814.551	2826
814.692	2902
814.833	2785
814.974	2872
815.115	2963
815.256	2788
815.397	2792
815.539	2842
815.68	2788
815.821	2830
815.962	2952
816.103	2960
816.244	2883
816.385	2838
816.526	2971
816.666	2918
816.807	2731
816.948	2880
817.089	2902
817.23	2826
817.371	2807
817.512	2792
817.653	2845
817.793	2777
817.934	2906
818.075	2960
818.216	2963
818.356	3009
818.497	2880
818.638	2773
818.778	2788
818.919	2777
819.06	2758
819.2	2872
819.341	2815
819.481	2788
819.622	2971
819.762	3112
819.903	3028
820.043	2929
820.184	2922
820.324	2937
820.465	2990
820.605	3036
820.746	3020
820.886	2948
821.026	3127
821.167	3161
821.307	3211
821.447	3287
821.588	3199
821.728	3211
821.868	3226
822.008	3055
822.149	3165
822.289	3207
822.429	3070
822.569	3058
822.709	3165
822.849	3013
822.99	3058
823.13	3135
823.27	3165
823.41	3104
823.55	3123
823.69	3138
823.83	3169
823.97	3093
824.11	3009
824.25	2986
824.389	3066
824.529	3119
824.669	3077
824.809	3199
824.949	3245
825.089	3207
825.228	3161
825.368	3005
825.508	2929
825.648	2982
825.787	3051
825.927	2982
826.067	2963
826.206	2979
826.346	3077
826.485	3028
826.625	3131
826.765	3233
826.904	3169
827.044	2956
827.183	2906
827.323	2857
827.462	2960
827.601	2902
827.741	2948
827.88	2975
828.02	2853
828.159	2941
828.298	3024
828.437	3131
828.577	3005
828.716	3214
828.855	3070
828.994	2925
829.134	2864
829.273	2887
829.412	2842
829.551	2849
829.69	2853
829.829	3001
829.968	3104
830.107	3013
830.246	3036
830.385	2922
830.524	2883
830.663	2830
830.802	2735
830.941	2640
831.08	2655
831.219	2743
831.357	2746
831.496	2975
831.635	2701
831.774	2651
831.913	2670
832.051	2541
832.19	2598
832.329	2667
832.467	2552
832.606	2442
832.744	2568
832.883	2560
833.022	2583
833.16	2659
833.299	2678
833.437	2705
833.576	2697
833.714	2754
833.852	2720
833.991	2754
834.129	2834
834.267	2807
834.406	2807
834.544	2845
834.682	2823
834.821	2830
834.959	3043
835.097	2853
835.235	3058
835.373	3013
835.511	2986
835.65	3009
835.788	2956
835.926	2845
836.064	2807
836.202	2845
836.34	3116
836.478	3176
836.615	3062
836.753	3108
836.891	3188
837.029	3146
837.167	3097
837.305	3055
837.443	3039
837.58	2960
837.718	3119
837.856	3055
837.993	3013
838.131	3116
838.269	3108
838.406	3123
838.544	3066
838.681	2941
838.819	2883
838.956	2792
839.094	2868
839.231	2899
839.369	3017
839.506	3359
839.643	3184
839.781	3013
839.918	2975
840.055	3013
840.193	3066
840.33	3032
840.467	3085
840.604	3142
840.742	3401
840.879	3032
841.016	3058
841.153	3077
841.29	3310
841.427	3291
841.564	3192
841.701	3325
841.838	3214
841.975	3176
842.112	3211
842.249	3055
842.385	3005
842.522	3241
842.659	3077
842.796	3051
842.933	3081
843.069	3047
843.206	3020
843.343	3169
843.479	3085
843.616	3150
843.752	2899
843.889	2819
844.025	3112
844.162	2880
844.298	3093
844.435	2941
844.571	2876
844.708	3097
844.844	3211
844.98	3230
845.117	3188
845.253	3020
845.389	2982
845.525	3089
845.661	3100
845.798	3005
845.934	3112
846.07	3058
846.206	3230
846.342	3283
846.478	3199
846.614	3093
846.75	3070
846.886	3009
847.022	3218
847.158	3146
847.294	3161
847.429	3218
847.565	3214
847.701	3496
847.837	2998
847.972	2986
848.108	3154
848.244	3119
848.379	2979
848.515	2963
848.65	2944
848.786	2979
848.921	3020
849.057	3108
849.192	3127
849.328	3093
849.463	3093
849.598	3051
849.734	3005
849.869	3009
850.004	2895
850.14	2967
850.275	2891
850.41	2849
850.545	2872
850.68	2929
850.815	2937
850.95	2982
851.085	3165
851.22	3089
851.355	2994
851.49	2998
851.625	3001
851.76	2998
851.895	2914
852.03	2895
852.165	3039
852.299	3097
852.434	3169
852.569	3142
852.703	3173
852.838	3226
852.973	3355
853.107	3291
853.242	3135
853.376	3070
853.511	2960
853.645	3036
853.78	3245
853.914	3123
854.048	3104
854.183	3058
854.317	3135
854.451	3260
854.585	3112
854.72	3047
854.854	3203
854.988	3032
855.122	3097
855.256	2967
855.39	3116
855.524	3233
855.658	3169
855.792	3108
855.926	3161
856.06	3173
856.194	3268
856.327	3169
856.461	3055
856.595	3062
856.729	3100
856.862	3226
856.996	3169
857.13	3180
857.263	3218
857.397	3298
857.53	3100
857.664	3195
857.797	3256
857.931	3237
858.064	3135
858.197	3203
858.331	3142
858.464	3081
858.597	2979
858.731	3142
858.864	3142
858.997	3085
859.13	3097
859.263	3161
859.396	3180
859.529	3066
859.662	3036
859.795	3032
859.928	3119
860.061	3260
860.194	3283
860.327	3123
860.46	3097
860.592	3188
860.725	3192
860.858	3230
860.99	3104
861.123	3066
861.256	3039
861.388	3138
861.521	3911
861.653	2994
861.786	3001
861.918	2994
862.05	3028
862.183	3058
862.315	3108
862.447	3138
862.58	3051
862.712	2952
862.844	2880
862.976	2986
863.108	3001
863.24	3378
863.372	2902
863.504	2967
863.636	2944
863.768	3024
863.9	3024
864.032	2902
864.164	2922
864.296	3028
864.428	3085
864.559	3112
864.691	3074
864.823	3051
864.954	3017
865.086	3032
865.217	3013
865.349	2967
865.48	2994
865.612	3032
865.743	3173
865.875	2979
866.006	2922
866.137	2948
866.269	2933
866.4	2941
866.531	2880
866.662	2906
866.793	2899
866.924	2914
867.055	2982
867.186	2925
867.317	2849
867.448	2845
867.579	2834
867.71	2819
867.841	2815
867.972	2895
868.103	2902
868.233	2929
868.364	2880
868.495	2891
868.625	3066
868.756	3142
868.886	2960
869.017	2994
869.147	3176
869.278	3154
869.408	3005
869.539	3039
869.669	3116
869.799	3028
869.929	3093
870.06	3108
870.19	3344
870.32	3264
870.45	3313
870.58	3351
870.71	3450
870.84	3447
870.97	3226
871.1	3214
871.23	3477
871.36	3405
871.489	3367
871.619	3336
871.749	3431
871.879	3458
872.008	3458
872.138	3344
872.267	3294
872.397	3127
872.526	3100
872.656	3043
872.785	3097
872.915	3226
873.044	3329
873.173	3195
873.303	3226
873.432	3203
873.561	3249
873.69	3138
873.819	3142
873.948	3180
874.077	3074
874.206	3043
874.335	3043
874.464	3237
874.593	3348
874.722	3237
874.851	3397
874.979	3329
875.108	3306
875.237	3192
875.365	3173
875.494	3207
875.623	3256
875.751	3085
875.88	3089
876.008	3195
876.136	3230
876.265	3340
876.393	3496
876.521	3439
876.65	3405
876.778	3321
876.906	3214
877.034	3233
877.162	3207
877.29	3169
877.418	3275
877.546	3233
877.674	3218
877.802	3245
877.93	3237
878.058	3142
878.185	3100
878.313	3173
878.441	3226
878.568	3074
878.696	3184
878.824	3264
878.951	3287
879.079	3443
879.206	3606
879.333	3435
879.461	3329
879.588	3348
879.715	3462
879.842	3591
879.97	3393
880.097	3146
880.224	3127
880.351	3169
880.478	3184
880.605	3173
880.732	3199
880.859	3542
880.986	3294
881.112	3298
881.239	3207
881.366	3116
881.493	3020
881.619	3001
881.746	3062
881.872	3093
881.999	3104
882.125	3142
882.252	3241
882.378	3283
882.505	3412
882.631	3264
882.757	3146
882.883	3184
883.01	3192
883.136	3169
883.262	3070
883.388	3089
883.514	3294
883.64	3359
883.766	3287
883.892	3157
884.018	3237
884.143	3428
884.269	3549
884.395	3218
884.52	3154
884.646	3184
884.772	3104
884.897	3066
885.023	3154
885.148	3336
885.274	3435
885.399	3389
885.524	3275
885.65	3256
885.775	3321
885.9	3302
886.025	3401
886.15	3359
886.275	3287
886.4	3233
886.525	3283
886.65	3241
886.775	3268
886.9	3507
887.025	3572
887.149	3374
887.274	3275
887.399	3199
887.523	3184
887.648	3214
887.773	3199
887.897	3386
888.021	3382
888.146	3291
888.27	3409
888.395	3496
888.519	3420
888.643	3466
888.767	3435
888.891	3279
889.015	3260
889.139	3294
889.263	3260
889.387	3428
889.511	3519
889.635	3439
889.759	3302
889.883	3317
890.006	3359
890.13	3481
890.254	3268
890.377	3306
890.501	3180
890.624	3199
890.748	3332
890.871	3195
890.995	3097
891.118	3043
891.241	3188
891.364	3226
891.488	3317
891.611	3192
891.734	3222
891.857	3302
891.98	3192
892.103	3329
892.226	3275
892.349	3184
892.471	3089
892.594	3256
892.717	3264
892.839	3260
892.962	3291
893.085	3325
893.207	3298
893.33	3150
893.452	3195
893.575	3359
893.697	3218
893.819	3450
893.941	3534
894.064	3412
894.186	3302
894.308	3253
894.43	3428
894.552	3572
894.674	3462
894.796	3264
894.918	3313
895.04	3279
895.161	3428
895.283	3370
895.405	3306
895.526	3378
895.648	3386
895.769	3439
895.891	3458
896.012	3454
896.134	3485
896.255	3431
896.376	3370
896.498	3348
896.619	3428
896.74	3355
896.861	3370
896.982	3641
897.103	3831
897.224	3549
897.345	3519
897.466	3405
897.587	3496
897.708	3610
897.828	3542
897.949	3450
898.07	3355
898.19	3393
898.311	3595
898.431	3435
898.552	3511
898.672	3553
898.792	3584
898.913	3545
899.033	3401
899.153	3268
899.273	3237
899.393	3275
899.513	3264
899.633	3279
899.753	3351
899.873	3287
899.993	3370
900.113	3389
900.232	3367
900.352	3313
900.472	3283
900.591	3184
900.711	3313
900.83	3249
900.95	3405
901.069	3523
901.189	3374
901.308	3173
901.427	3116
901.546	3192
901.665	3268
901.784	3279
901.904	3214
902.023	3142
902.141	3032
902.26	2971
902.379	3104
902.498	3077
902.617	3051
902.735	3211
902.854	3264
902.973	3199
903.091	3051
903.21	3077
903.328	3131
903.446	3066
903.565	3104
903.683	3203
903.801	3146
903.919	3233
904.038	3275
904.156	3157
904.274	3268
904.392	3272
904.51	3302
904.627	3313
904.745	3454
904.863	3462
904.981	3222
905.098	3157
905.216	3291
905.334	3287
905.451	3283
905.569	3260
905.686	3443
905.803	3416
905.921	3306
906.038	3409
906.155	3351
906.272	3275
906.389	3313
906.506	3241
906.623	3256
906.74	3291
906.857	3211
906.974	3218
907.091	3416
907.208	3561
907.324	3462
907.441	3393
907.557	3211
907.674	3207
907.79	3195
907.907	3226
908.023	3348
908.139	3374
908.256	3336
908.372	3405
908.488	3351
908.604	3287
908.72	3218
908.836	3294
908.952	3230
909.068	3332
909.184	3515
909.3	3420
909.415	3500
909.531	3469
909.647	3283
909.762	3298
909.878	3230
909.993	3348
910.108	3310
910.224	3355
910.339	3450
910.454	3317
910.57	3291
910.685	3218
910.8	3599
910.915	3496
911.03	3405
911.145	3233
911.259	3272
911.374	3317
911.489	3226
911.604	3256
911.718	3135
911.833	3150
911.947	3013
912.062	3005
912.176	3161
912.291	3169
912.405	3218
912.519	3397
912.633	3420
912.748	3329
912.862	3256
912.976	3165
913.09	3036
913.204	3146
913.318	3222
913.431	3332
913.545	3332
913.659	3397
913.772	3325
913.886	3222
914	3192
914.113	3374
914.226	3409
914.34	3325
914.453	3195
914.566	3412
914.68	3302
914.793	3310
914.906	3142
915.019	3161
915.132	3051
915.245	3142
915.358	3188
915.47	3237
915.583	3241
915.696	3302
915.809	3428
915.921	3393
916.034	3260
916.146	3245
916.259	3226
916.371	3397
916.483	3348
916.595	3241
916.708	3340
916.82	3298
916.932	3317
917.044	3344
917.156	3348
917.268	3260
917.38	3279
917.491	3325
917.603	3374
917.715	3424
917.826	3492
917.938	3359
918.049	3241
918.161	3458
918.272	3576
918.384	3545
918.495	3507
918.606	3351
918.717	3275
918.828	3363
918.939	3405
919.05	3287
919.161	3370
919.272	3176
919.383	3298
919.494	3515
919.604	3709
919.715	3507
919.826	3386
919.936	3450
920.047	3587
920.157	3557
920.267	3797
920.378	3599
920.488	3587
920.598	3781
920.708	3960
920.818	3812
920.928	3854
921.038	4032
921.148	3983
921.258	3682
921.368	3614
921.477	3557
921.587	3504
921.697	3439
921.806	3587
921.916	3485
922.025	3340
922.134	3355
922.244	3313
922.353	3405
922.462	3256
922.571	3207
922.68	3100
922.789	3070
922.898	3142
923.007	3150
923.116	3222
923.224	3157
923.333	3173
923.442	3116
923.55	3108
923.659	3138
923.767	3207
923.876	3089
923.984	3241
924.092	3104
924.201	3218
924.309	3245
924.417	3237
924.525	3214
924.633	3230
924.741	4131
924.849	3085
924.956	3264
925.064	3116
925.172	3074
925.279	3089
925.387	3192
925.494	3173
925.602	3317
925.709	3340
925.816	3203
925.924	3260
926.031	3428
926.138	3336
926.245	3382
926.352	3233
926.459	3412
926.566	3443
926.673	3321
926.779	3241
926.886	3233
926.993	3154
927.099	3104
927.206	3154
927.312	3108
927.419	3237
927.525	3203
927.631	3256
927.737	3131
927.843	3146
927.95	3017
928.056	3116
928.162	3176
928.267	3249
928.373	3903
928.479	3268
928.585	3051
928.69	3211
928.796	3241
928.901	3138
929.007	3047
929.112	3180
929.218	3180
929.323	3131
929.428	3127
929.533	3340
929.638	3112
929.743	3176
929.848	3230
929.953	3195
930.058	3135
930.163	3039
930.267	3058
930.372	3188
930.477	3058
930.581	3317
930.685	3192
930.79	3036
930.894	3100
930.998	3097
931.103	3272
931.207	2944
931.311	2948
931.415	2925
931.519	2788
931.623	2781
