Data from test_V78500241_424.txt Node
Date: Fri Mar 25 16:18:08 CST 2022
User: usil
Spectrometer: V785-0024
Trigger mode: 0
Integration Time (sec): 4.000000E-1
Scans to average: 1
Nonlinearity correction enabled: false
Boxcar width: 0
Storing dark spectrum: false
XAxis mode: Wavelengths
Number of Pixels in Spectrum: 1024
>>>>>Begin Spectral Data<<<<<
801.071	2914
801.214	2967
801.356	2902
801.499	2876
801.641	2872
801.783	2914
801.926	3074
802.068	2956
802.211	2960
802.353	3024
802.496	2967
802.638	3028
802.78	3047
802.923	3032
803.065	3009
803.208	2895
803.35	2895
803.492	2937
803.635	2914
803.777	2758
803.919	2899
804.061	3180
804.204	2937
804.346	2864
804.488	2853
804.63	3017
804.773	2899
804.915	2910
805.057	3108
805.199	2956
805.341	2956
805.483	3051
805.626	2982
805.768	2963
805.91	3077
806.052	3089
806.194	3020
806.336	3222
806.478	3017
806.62	2967
806.762	3001
806.904	3039
807.046	3161
807.188	2982
807.33	2914
807.472	2960
807.614	2899
807.756	2979
807.898	2925
808.04	2891
808.182	2963
808.324	2967
808.465	2864
808.607	2864
808.749	2804
808.891	2823
809.033	2944
809.174	2944
809.316	2899
809.458	2922
809.6	2788
809.741	2743
809.883	2735
810.025	2830
810.166	2857
810.308	2834
810.45	2826
810.591	2785
810.733	2788
810.875	2830
811.016	2788
811.158	2739
811.299	2849
811.441	2922
811.582	2910
811.724	2819
811.865	2811
812.007	2906
812.148	2891
812.29	2853
812.431	2861
812.573	2910
812.714	2941
812.855	3043
812.997	3043
813.138	3123
813.279	3009
813.421	2975
813.562	2963
813.703	2864
813.845	2910
813.986	2777
814.127	2735
814.268	2804
814.41	2849
814.551	2796
814.692	2853
814.833	2815
814.974	2887
815.115	2956
815.256	2826
815.397	2819
815.539	2891
815.68	2739
815.821	2811
815.962	2956
816.103	2929
816.244	2861
816.385	2895
816.526	2967
816.666	2883
816.807	2739
816.948	2887
817.089	2925
817.23	2819
817.371	2769
817.512	2807
817.653	2834
817.793	2845
817.934	2872
818.075	2963
818.216	2986
818.356	2982
818.497	2868
818.638	2773
818.778	2815
818.919	2830
819.06	2739
819.2	2933
819.341	2766
819.481	2807
819.622	2895
819.762	3097
819.903	2990
820.043	2925
820.184	2899
820.324	2887
820.465	2986
820.605	2990
820.746	3017
820.886	2910
821.026	3112
821.167	3169
821.307	3245
821.447	3279
821.588	3207
821.728	3195
821.868	3184
822.008	3100
822.149	3154
822.289	3203
822.429	3100
822.569	3097
822.709	3173
822.849	3017
822.99	3081
823.13	3157
823.27	3195
823.41	3085
823.55	3116
823.69	3146
823.83	3207
823.97	3070
824.11	2979
824.25	2979
824.389	3058
824.529	3104
824.669	3093
824.809	3207
824.949	3256
825.089	3253
825.228	3161
825.368	3043
825.508	2929
825.648	2960
825.787	3039
825.927	3032
826.067	2960
826.206	2948
826.346	3070
826.485	3081
826.625	3123
826.765	3237
826.904	3199
827.044	2986
827.183	2941
827.323	2826
827.462	3024
827.601	2933
827.741	2914
827.88	2918
828.02	2834
828.159	3001
828.298	3047
828.437	3123
828.577	3020
828.716	3264
828.855	3081
828.994	2899
829.134	2880
829.273	2918
829.412	2857
829.551	2842
829.69	2853
829.829	2986
829.968	3104
830.107	2982
830.246	2998
830.385	2929
830.524	2895
830.663	2811
830.802	2716
830.941	2659
831.08	2640
831.219	2731
831.357	2708
831.496	2922
831.635	2705
831.774	2659
831.913	2655
832.051	2552
832.19	2583
832.329	2689
832.467	2556
832.606	2488
832.744	2571
832.883	2575
833.022	2564
833.16	2655
833.299	2697
833.437	2708
833.576	2686
833.714	2701
833.852	2724
833.991	2720
834.129	2826
834.267	2823
834.406	2758
834.544	2876
834.682	2880
834.821	2849
834.959	3043
835.097	2883
835.235	3036
835.373	2994
835.511	3013
835.65	2925
835.788	2994
835.926	2826
836.064	2746
836.202	2807
836.34	3104
836.478	3123
836.615	3036
836.753	3123
836.891	3135
837.029	3161
837.167	3119
837.305	3077
837.443	2998
837.58	2960
837.718	3108
837.856	3104
837.993	3032
838.131	3138
838.269	3093
838.406	3097
838.544	3077
838.681	2937
838.819	2914
838.956	2838
839.094	2807
839.231	2914
839.369	2990
839.506	3367
839.643	3241
839.781	3036
839.918	2963
840.055	3024
840.193	3028
840.33	3070
840.467	3051
840.604	3112
840.742	3416
840.879	3032
841.016	3062
841.153	3058
841.29	3351
841.427	3275
841.564	3264
841.701	3321
841.838	3203
841.975	3161
842.112	3214
842.249	3070
842.385	3013
842.522	3245
842.659	3100
842.796	3024
842.933	3047
843.069	3005
843.206	2986
843.343	3195
843.479	3112
843.616	3146
843.752	2899
843.889	2895
844.025	3093
844.162	2861
844.298	3077
844.435	2899
844.571	2925
844.708	3047
844.844	3199
844.98	3264
845.117	3138
845.253	3062
845.389	2994
845.525	3089
845.661	3070
845.798	2975
845.934	3093
846.07	3024
846.206	3199
846.342	3329
846.478	3218
846.614	3036
846.75	3066
846.886	3036
847.022	3195
847.158	3104
847.294	3157
847.429	3245
847.565	3226
847.701	3454
847.837	3066
847.972	2979
848.108	3142
848.244	3157
848.379	3005
848.515	2925
848.65	2906
848.786	2952
848.921	2975
849.057	3097
849.192	3146
849.328	3058
849.463	3100
849.598	3039
849.734	2994
849.869	2956
850.004	2918
850.14	2982
850.275	2925
850.41	2845
850.545	2899
850.68	2933
850.815	2971
850.95	2960
851.085	3161
851.22	3108
851.355	3013
851.49	2998
851.625	2948
851.76	2990
851.895	2956
852.03	2933
852.165	3005
852.299	3097
852.434	3218
852.569	3131
852.703	3157
852.838	3211
852.973	3336
853.107	3329
853.242	3089
853.376	3062
853.511	2971
853.645	3017
853.78	3245
853.914	3085
854.048	3077
854.183	3089
854.317	3146
854.451	3302
854.585	3127
854.72	3062
854.854	3195
854.988	3074
855.122	3043
855.256	2994
855.39	3097
855.524	3207
855.658	3184
855.792	3135
855.926	3218
856.06	3214
856.194	3268
856.327	3116
856.461	3070
856.595	3093
856.729	3081
856.862	3180
856.996	3157
857.13	3169
857.263	3188
857.397	3272
857.53	3119
857.664	3199
857.797	3199
857.931	3253
858.064	3138
858.197	3272
858.331	3146
858.464	3074
858.597	2990
858.731	3119
858.864	3116
858.997	3104
859.13	3138
859.263	3142
859.396	3203
859.529	3077
859.662	3081
859.795	3020
859.928	3176
860.061	3268
860.194	3294
860.327	3066
860.46	3074
860.592	3226
860.725	3256
860.858	3241
860.99	3097
861.123	3074
861.256	3047
861.388	3100
861.521	3945
861.653	3028
861.786	2971
861.918	2998
862.05	3077
862.183	3077
862.315	3169
862.447	3188
862.58	3100
862.712	2971
862.844	2861
862.976	3032
863.108	3024
863.24	3355
863.372	2853
863.504	2982
863.636	2941
863.768	3020
863.9	2956
864.032	2944
864.164	2956
864.296	3039
864.428	3077
864.559	3100
864.691	3058
864.823	3055
864.954	2994
865.086	2998
865.217	2982
865.349	2956
865.48	2952
865.612	3032
865.743	3157
865.875	3013
866.006	2902
866.137	2979
866.269	2922
866.4	2982
866.531	2952
866.662	2922
866.793	2883
866.924	2891
867.055	2925
867.186	2925
867.317	2880
867.448	2811
867.579	2861
867.71	2845
867.841	2823
867.972	2895
868.103	2914
868.233	2887
868.364	2861
868.495	2906
868.625	3066
868.756	3211
868.886	2986
869.017	3017
869.147	3165
869.278	3161
869.408	3043
869.539	3001
869.669	3077
869.799	3081
869.929	3150
870.06	3085
870.19	3294
870.32	3272
870.45	3298
870.58	3351
870.71	3428
870.84	3439
870.97	3272
871.1	3207
871.23	3481
871.36	3454
871.489	3355
871.619	3378
871.749	3431
871.879	3401
872.008	3458
872.138	3370
872.267	3272
872.397	3135
872.526	3097
872.656	3017
872.785	3100
872.915	3226
873.044	3310
873.173	3195
873.303	3256
873.432	3214
873.561	3207
873.69	3119
873.819	3131
873.948	3226
874.077	3097
874.206	3051
874.335	3051
874.464	3184
874.593	3344
874.722	3192
874.851	3401
874.979	3378
875.108	3313
875.237	3192
875.365	3165
875.494	3157
875.623	3272
875.751	3047
875.88	3146
876.008	3169
876.136	3260
876.265	3321
876.393	3492
876.521	3447
876.65	3370
876.778	3344
876.906	3272
877.034	3173
877.162	3222
877.29	3169
877.418	3249
877.546	3226
877.674	3222
877.802	3214
877.93	3275
878.058	3154
878.185	3089
878.313	3222
878.441	3192
878.568	3055
878.696	3131
878.824	3249
878.951	3306
879.079	3439
879.206	3595
879.333	3466
879.461	3336
879.588	3367
879.715	3450
879.842	3614
879.97	3351
880.097	3176
880.224	3146
880.351	3161
880.478	3222
880.605	3211
880.732	3184
880.859	3477
880.986	3275
881.112	3348
881.239	3222
881.366	3093
881.493	3013
881.619	3020
881.746	3066
881.872	3070
881.999	3062
882.125	3131
882.252	3249
882.378	3249
882.505	3431
882.631	3279
882.757	3157
882.883	3226
883.01	3226
883.136	3135
883.262	3070
883.388	3108
883.514	3344
883.64	3367
883.766	3272
883.892	3188
884.018	3237
884.143	3412
884.269	3542
884.395	3214
884.52	3180
884.646	3176
884.772	3127
884.897	3112
885.023	3173
885.148	3321
885.274	3374
885.399	3348
885.524	3256
885.65	3245
885.775	3340
885.9	3287
886.025	3420
886.15	3393
886.275	3340
886.4	3199
886.525	3336
886.65	3264
886.775	3283
886.9	3488
887.025	3644
887.149	3401
887.274	3260
887.399	3207
887.523	3245
887.648	3180
887.773	3180
887.897	3435
888.021	3428
888.146	3272
888.27	3431
888.395	3542
888.519	3428
888.643	3412
888.767	3412
888.891	3287
889.015	3222
889.139	3287
889.263	3218
889.387	3405
889.511	3538
889.635	3458
889.759	3264
889.883	3279
890.006	3393
890.13	3477
890.254	3272
890.377	3325
890.501	3192
890.624	3146
890.748	3287
890.871	3192
890.995	3104
891.118	3100
891.241	3169
891.364	3226
891.488	3310
891.611	3138
891.734	3199
891.857	3283
891.98	3233
892.103	3325
892.226	3298
892.349	3207
892.471	3104
892.594	3237
892.717	3256
892.839	3260
892.962	3283
893.085	3332
893.207	3279
893.33	3184
893.452	3211
893.575	3351
893.697	3241
893.819	3401
893.941	3488
894.064	3424
894.186	3237
894.308	3283
894.43	3450
894.552	3549
894.674	3515
894.796	3249
894.918	3294
895.04	3275
895.161	3466
895.283	3443
895.405	3298
895.526	3336
895.648	3405
895.769	3386
895.891	3473
896.012	3447
896.134	3454
896.255	3370
896.376	3359
896.498	3329
896.619	3420
896.74	3355
896.861	3424
896.982	3679
897.103	3842
897.224	3591
897.345	3496
897.466	3420
897.587	3496
897.708	3603
897.828	3542
897.949	3428
898.07	3348
898.19	3443
898.311	3633
898.431	3428
898.552	3515
898.672	3580
898.792	3549
898.913	3492
899.033	3431
899.153	3237
899.273	3218
899.393	3233
899.513	3344
899.633	3302
899.753	3367
899.873	3317
899.993	3355
900.113	3317
900.232	3416
900.352	3344
900.472	3283
900.591	3199
900.711	3344
900.83	3260
900.95	3435
901.069	3477
901.189	3370
901.308	3184
901.427	3157
901.546	3195
901.665	3256
901.784	3325
901.904	3173
902.023	3127
902.141	3005
902.26	3013
902.379	3135
902.498	3051
902.617	3093
902.735	3233
902.854	3211
902.973	3211
903.091	3081
903.21	3070
903.328	3150
903.446	3089
903.565	3104
903.683	3195
903.801	3119
903.919	3245
904.038	3310
904.156	3169
904.274	3264
904.392	3245
904.51	3253
904.627	3302
904.745	3416
904.863	3526
904.981	3302
905.098	3188
905.216	3199
905.334	3336
905.451	3249
905.569	3321
905.686	3428
905.803	3447
905.921	3287
906.038	3416
906.155	3325
906.272	3279
906.389	3351
906.506	3249
906.623	3260
906.74	3283
906.857	3169
906.974	3275
907.091	3447
907.208	3553
907.324	3420
907.441	3401
907.557	3245
907.674	3245
907.79	3188
907.907	3241
908.023	3359
908.139	3378
908.256	3340
908.372	3367
908.488	3355
908.604	3260
908.72	3195
908.836	3291
908.952	3260
909.068	3321
909.184	3431
909.3	3397
909.415	3511
909.531	3511
909.647	3275
909.762	3268
909.878	3294
909.993	3329
910.108	3313
910.224	3302
910.339	3389
910.454	3325
910.57	3310
910.685	3249
910.8	3595
910.915	3557
911.03	3405
911.145	3256
911.259	3253
911.374	3302
911.489	3233
911.604	3211
911.718	3116
911.833	3154
911.947	3024
912.062	2994
912.176	3176
912.291	3211
912.405	3218
912.519	3428
912.633	3477
912.748	3313
912.862	3245
912.976	3150
913.09	3066
913.204	3116
913.318	3222
913.431	3359
913.545	3325
913.659	3439
913.772	3340
913.886	3218
914	3195
914.113	3325
914.226	3393
914.34	3348
914.453	3176
914.566	3435
914.68	3268
914.793	3249
914.906	3127
915.019	3074
915.132	3077
915.245	3192
915.358	3184
915.47	3188
915.583	3283
915.696	3313
915.809	3351
915.921	3420
916.034	3245
916.146	3207
916.259	3203
916.371	3367
916.483	3378
916.595	3241
916.708	3302
916.82	3329
916.932	3321
917.044	3332
917.156	3340
917.268	3218
917.38	3283
917.491	3249
917.603	3351
917.715	3454
917.826	3496
917.938	3351
918.049	3260
918.161	3428
918.272	3568
918.384	3568
918.495	3519
918.606	3302
918.717	3287
918.828	3351
918.939	3393
919.05	3298
919.161	3363
919.272	3161
919.383	3313
919.494	3462
919.604	3724
919.715	3458
919.826	3405
919.936	3447
920.047	3564
920.157	3515
920.267	3736
920.378	3618
920.488	3591
920.598	3751
920.708	3915
920.818	3812
920.928	3797
921.038	4006
921.148	3975
921.258	3694
921.368	3641
921.477	3595
921.587	3549
921.697	3469
921.806	3584
921.916	3473
922.025	3389
922.134	3359
922.244	3336
922.353	3389
922.462	3275
922.571	3218
922.68	3058
922.789	3089
922.898	3093
923.007	3093
923.116	3222
923.224	3203
923.333	3146
923.442	3081
923.55	3081
923.659	3131
923.767	3245
923.876	3116
923.984	3253
924.092	3093
924.201	3199
924.309	3169
924.417	3218
924.525	3207
924.633	3218
924.741	4181
924.849	3043
924.956	3264
925.064	3081
925.172	3001
925.279	3104
925.387	3173
925.494	3207
925.602	3329
925.709	3306
925.816	3195
925.924	3230
926.031	3359
926.138	3294
926.245	3386
926.352	3260
926.459	3359
926.566	3462
926.673	3321
926.779	3291
926.886	3233
926.993	3154
927.099	3180
927.206	3093
927.312	3097
927.419	3237
927.525	3184
927.631	3245
927.737	3169
927.843	3138
927.95	2998
928.056	3108
928.162	3154
928.267	3264
928.373	3846
928.479	3332
928.585	3020
928.69	3192
928.796	3287
928.901	3176
929.007	3009
929.112	3230
929.218	3173
929.323	3112
929.428	3119
929.533	3283
929.638	3089
929.743	3142
929.848	3245
929.953	3211
930.058	3100
930.163	3005
930.267	3036
930.372	3157
930.477	3024
930.581	3275
930.685	3157
930.79	3032
930.894	3127
930.998	3070
931.103	3233
931.207	2914
931.311	2944
931.415	2899
931.519	2762
931.623	2804
