Data from test_V78500241_1758.txt Node
Date: Fri Mar 25 16:27:22 CST 2022
User: usil
Spectrometer: V785-0024
Trigger mode: 0
Integration Time (sec): 4.000000E-1
Scans to average: 1
Nonlinearity correction enabled: false
Boxcar width: 0
Storing dark spectrum: false
XAxis mode: Wavelengths
Number of Pixels in Spectrum: 1024
>>>>>Begin Spectral Data<<<<<
801.071	2914
801.214	2937
801.356	2853
801.499	2925
801.641	2864
801.783	2910
801.926	3020
802.068	2963
802.211	3001
802.353	3013
802.496	2982
802.638	3001
802.78	3051
802.923	3055
803.065	2994
803.208	2918
803.35	2925
803.492	2918
803.635	2933
803.777	2769
803.919	2861
804.061	3161
804.204	2914
804.346	2929
804.488	2830
804.63	2979
804.773	2872
804.915	2910
805.057	3081
805.199	2941
805.341	2944
805.483	3032
805.626	2982
805.768	2925
805.91	3043
806.052	3116
806.194	3020
806.336	3214
806.478	3009
806.62	2956
806.762	2994
806.904	3074
807.046	3173
807.188	2986
807.33	2906
807.472	2998
807.614	2922
807.756	2922
807.898	2891
808.04	2887
808.182	2979
808.324	2941
808.465	2845
808.607	2845
808.749	2769
808.891	2845
809.033	2975
809.174	3013
809.316	2880
809.458	2876
809.6	2781
809.741	2781
809.883	2750
810.025	2849
810.166	2895
810.308	2853
810.45	2853
810.591	2777
810.733	2766
810.875	2853
811.016	2792
811.158	2724
811.299	2823
811.441	2906
811.582	2922
811.724	2834
811.865	2861
812.007	2918
812.148	2849
812.29	2883
812.431	2880
812.573	2948
812.714	2952
812.855	3036
812.997	3047
813.138	3093
813.279	3039
813.421	2990
813.562	2937
813.703	2864
813.845	2872
813.986	2773
814.127	2735
814.268	2815
814.41	2819
814.551	2807
814.692	2853
814.833	2811
814.974	2910
815.115	2944
815.256	2838
815.397	2807
815.539	2849
815.68	2739
815.821	2823
815.962	2941
816.103	2918
816.244	2868
816.385	2891
816.526	2956
816.666	2914
816.807	2762
816.948	2906
817.089	2872
817.23	2880
817.371	2773
817.512	2781
817.653	2815
817.793	2830
817.934	2876
818.075	2952
818.216	3005
818.356	2990
818.497	2902
818.638	2811
818.778	2792
818.919	2796
819.06	2712
819.2	2883
819.341	2830
819.481	2785
819.622	2975
819.762	3100
819.903	3074
820.043	2910
820.184	2906
820.324	2899
820.465	2979
820.605	3020
820.746	3009
820.886	2967
821.026	3135
821.167	3150
821.307	3268
821.447	3279
821.588	3230
821.728	3233
821.868	3211
822.008	3100
822.149	3169
822.289	3214
822.429	3055
822.569	3062
822.709	3165
822.849	3017
822.99	3036
823.13	3135
823.27	3188
823.41	3154
823.55	3135
823.69	3188
823.83	3199
823.97	3058
824.11	3009
824.25	2971
824.389	3066
824.529	3100
824.669	3066
824.809	3226
824.949	3237
825.089	3188
825.228	3123
825.368	3009
825.508	2918
825.648	2994
825.787	3024
825.927	3013
826.067	2971
826.206	2960
826.346	3024
826.485	3047
826.625	3116
826.765	3237
826.904	3241
827.044	2994
827.183	2925
827.323	2853
827.462	2948
827.601	2883
827.741	2967
827.88	2963
828.02	2819
828.159	2929
828.298	3066
828.437	3077
828.577	3055
828.716	3188
828.855	3047
828.994	2902
829.134	2880
829.273	2883
829.412	2849
829.551	2853
829.69	2880
829.829	3001
829.968	3093
830.107	3017
830.246	3028
830.385	2922
830.524	2845
830.663	2815
830.802	2750
830.941	2659
831.08	2632
831.219	2762
831.357	2716
831.496	2952
831.635	2727
831.774	2651
831.913	2636
832.051	2530
832.19	2568
832.329	2682
832.467	2541
832.606	2461
832.744	2560
832.883	2598
833.022	2564
833.16	2678
833.299	2659
833.437	2693
833.576	2708
833.714	2697
833.852	2754
833.991	2758
834.129	2861
834.267	2788
834.406	2777
834.544	2887
834.682	2872
834.821	2826
834.959	3058
835.097	2906
835.235	3051
835.373	2982
835.511	3017
835.65	2948
835.788	2914
835.926	2826
836.064	2807
836.202	2838
836.34	3036
836.478	3142
836.615	3009
836.753	3085
836.891	3226
837.029	3146
837.167	3119
837.305	3062
837.443	3043
837.58	2941
837.718	3123
837.856	3081
837.993	3039
838.131	3123
838.269	3081
838.406	3085
838.544	3077
838.681	2948
838.819	2914
838.956	2811
839.094	2804
839.231	2872
839.369	3017
839.506	3397
839.643	3188
839.781	3020
839.918	2925
840.055	3055
840.193	3039
840.33	3097
840.467	3116
840.604	3150
840.742	3409
840.879	3070
841.016	3047
841.153	3123
841.29	3336
841.427	3272
841.564	3256
841.701	3298
841.838	3211
841.975	3180
842.112	3218
842.249	3112
842.385	3047
842.522	3237
842.659	3104
842.796	3058
842.933	3104
843.069	3043
843.206	3032
843.343	3157
843.479	3093
843.616	3119
843.752	2880
843.889	2849
844.025	3058
844.162	2891
844.298	3077
844.435	2941
844.571	2883
844.708	3097
844.844	3146
844.98	3230
845.117	3192
845.253	3070
845.389	2963
845.525	3089
845.661	3097
845.798	2952
845.934	3123
846.07	3013
846.206	3222
846.342	3344
846.478	3245
846.614	3104
846.75	3028
846.886	3039
847.022	3226
847.158	3123
847.294	3199
847.429	3241
847.565	3157
847.701	3443
847.837	3043
847.972	3020
848.108	3142
848.244	3173
848.379	2990
848.515	2948
848.65	2925
848.786	2971
848.921	3024
849.057	3089
849.192	3154
849.328	3066
849.463	3104
849.598	3051
849.734	3024
849.869	2971
850.004	2883
850.14	3001
850.275	2925
850.41	2804
850.545	2849
850.68	2933
850.815	2944
850.95	3005
851.085	3138
851.22	3138
851.355	3036
851.49	2982
851.625	2979
851.76	2994
851.895	2941
852.03	2933
852.165	3013
852.299	3119
852.434	3188
852.569	3112
852.703	3138
852.838	3249
852.973	3291
853.107	3332
853.242	3146
853.376	3077
853.511	2963
853.645	3017
853.78	3237
853.914	3127
854.048	3066
854.183	3070
854.317	3138
854.451	3291
854.585	3100
854.72	3066
854.854	3207
854.988	3013
855.122	3058
855.256	2982
855.39	3108
855.524	3245
855.658	3173
855.792	3142
855.926	3184
856.06	3222
856.194	3249
856.327	3135
856.461	3055
856.595	3058
856.729	3074
856.862	3211
856.996	3165
857.13	3176
857.263	3211
857.397	3268
857.53	3142
857.664	3211
857.797	3214
857.931	3264
858.064	3154
858.197	3230
858.331	3146
858.464	3123
858.597	3009
858.731	3119
858.864	3093
858.997	3062
859.13	3157
859.263	3173
859.396	3176
859.529	3081
859.662	3077
859.795	3036
859.928	3108
860.061	3302
860.194	3283
860.327	3081
860.46	3119
860.592	3260
860.725	3253
860.858	3203
860.99	3112
861.123	3085
861.256	3108
861.388	3146
861.521	3869
861.653	3013
861.786	2933
861.918	2960
862.05	3043
862.183	3081
862.315	3131
862.447	3173
862.58	3039
862.712	2963
862.844	2838
862.976	3020
863.108	3024
863.24	3332
863.372	2891
863.504	2944
863.636	2941
863.768	3024
863.9	2994
864.032	2914
864.164	2891
864.296	3013
864.428	3058
864.559	3070
864.691	3074
864.823	3093
864.954	3017
865.086	3047
865.217	3017
865.349	2963
865.48	2963
865.612	2998
865.743	3112
865.875	2986
866.006	2891
866.137	2979
866.269	2944
866.4	2933
866.531	2899
866.662	2895
866.793	2872
866.924	2933
867.055	2963
867.186	2880
867.317	2883
867.448	2823
867.579	2845
867.71	2830
867.841	2838
867.972	2906
868.103	2880
868.233	2853
868.364	2880
868.495	2868
868.625	3077
868.756	3127
868.886	3005
869.017	2986
869.147	3123
869.278	3176
869.408	3043
869.539	3001
869.669	3104
869.799	3020
869.929	3097
870.06	3123
870.19	3317
870.32	3283
870.45	3310
870.58	3344
870.71	3431
870.84	3450
870.97	3275
871.1	3249
871.23	3481
871.36	3488
871.489	3355
871.619	3420
871.749	3412
871.879	3416
872.008	3553
872.138	3340
872.267	3260
872.397	3146
872.526	3108
872.656	2975
872.785	3104
872.915	3230
873.044	3317
873.173	3188
873.303	3253
873.432	3226
873.561	3256
873.69	3154
873.819	3093
873.948	3169
874.077	3093
874.206	3024
874.335	3081
874.464	3195
874.593	3313
874.722	3253
874.851	3386
874.979	3291
875.108	3272
875.237	3211
875.365	3192
875.494	3161
875.623	3211
875.751	3051
875.88	3154
876.008	3222
876.136	3211
876.265	3348
876.393	3538
876.521	3389
876.65	3405
876.778	3317
876.906	3249
877.034	3203
877.162	3249
877.29	3173
877.418	3226
877.546	3211
877.674	3214
877.802	3207
877.93	3222
878.058	3108
878.185	3074
878.313	3241
878.441	3230
878.568	3051
878.696	3104
878.824	3233
878.951	3279
879.079	3412
879.206	3614
879.333	3439
879.461	3329
879.588	3355
879.715	3458
879.842	3564
879.97	3317
880.097	3157
880.224	3119
880.351	3180
880.478	3226
880.605	3230
880.732	3180
880.859	3492
880.986	3294
881.112	3283
881.239	3188
881.366	3058
881.493	2986
881.619	3005
881.746	3066
881.872	3081
881.999	3089
882.125	3150
882.252	3195
882.378	3275
882.505	3412
882.631	3279
882.757	3157
882.883	3184
883.01	3241
883.136	3161
883.262	3100
883.388	3127
883.514	3310
883.64	3355
883.766	3317
883.892	3157
884.018	3233
884.143	3428
884.269	3523
884.395	3195
884.52	3150
884.646	3188
884.772	3131
884.897	3089
885.023	3226
885.148	3302
885.274	3447
885.399	3382
885.524	3279
885.65	3287
885.775	3302
885.9	3275
886.025	3397
886.15	3401
886.275	3291
886.4	3256
886.525	3306
886.65	3283
886.775	3302
886.9	3504
887.025	3625
887.149	3405
887.274	3249
887.399	3211
887.523	3184
887.648	3173
887.773	3176
887.897	3355
888.021	3420
888.146	3279
888.27	3420
888.395	3504
888.519	3435
888.643	3462
888.767	3492
888.891	3291
889.015	3264
889.139	3291
889.263	3218
889.387	3389
889.511	3500
889.635	3397
889.759	3275
889.883	3291
890.006	3412
890.13	3450
890.254	3256
890.377	3348
890.501	3188
890.624	3165
890.748	3313
890.871	3173
890.995	3077
891.118	3047
891.241	3184
891.364	3256
891.488	3325
891.611	3165
891.734	3253
891.857	3310
891.98	3203
892.103	3329
892.226	3287
892.349	3188
892.471	3085
892.594	3249
892.717	3268
892.839	3256
892.962	3287
893.085	3367
893.207	3310
893.33	3097
893.452	3203
893.575	3260
893.697	3230
893.819	3420
893.941	3500
894.064	3458
894.186	3245
894.308	3275
894.43	3439
894.552	3534
894.674	3424
894.796	3253
894.918	3306
895.04	3294
895.161	3389
895.283	3378
895.405	3317
895.526	3351
895.648	3416
895.769	3401
895.891	3447
896.012	3462
896.134	3466
896.255	3370
896.376	3389
896.498	3329
896.619	3378
896.74	3317
896.861	3382
896.982	3679
897.103	3823
897.224	3606
897.345	3481
897.466	3462
897.587	3496
897.708	3610
897.828	3515
897.949	3428
898.07	3321
898.19	3367
898.311	3568
898.431	3431
898.552	3477
898.672	3591
898.792	3549
898.913	3496
899.033	3374
899.153	3268
899.273	3199
899.393	3260
899.513	3310
899.633	3287
899.753	3294
899.873	3287
899.993	3336
900.113	3283
900.232	3397
900.352	3359
900.472	3260
900.591	3180
900.711	3268
900.83	3275
900.95	3409
901.069	3462
901.189	3306
901.308	3154
901.427	3108
901.546	3180
901.665	3294
901.784	3283
901.904	3211
902.023	3161
902.141	3005
902.26	3020
902.379	3123
902.498	3051
902.617	3043
902.735	3211
902.854	3233
902.973	3192
903.091	3036
903.21	3051
903.328	3127
903.446	3116
903.565	3112
903.683	3203
903.801	3138
903.919	3249
904.038	3245
904.156	3165
904.274	3272
904.392	3222
904.51	3298
904.627	3332
904.745	3424
904.863	3466
904.981	3298
905.098	3173
905.216	3226
905.334	3275
905.451	3363
905.569	3253
905.686	3412
905.803	3424
905.921	3268
906.038	3435
906.155	3321
906.272	3218
906.389	3340
906.506	3199
906.623	3230
906.74	3283
906.857	3199
906.974	3237
907.091	3462
907.208	3572
907.324	3488
907.441	3378
907.557	3230
907.674	3211
907.79	3184
907.907	3264
908.023	3348
908.139	3374
908.256	3291
908.372	3355
908.488	3302
908.604	3222
908.72	3222
908.836	3260
908.952	3264
909.068	3336
909.184	3466
909.3	3370
909.415	3443
909.531	3481
909.647	3275
909.762	3253
909.878	3245
909.993	3336
910.108	3332
910.224	3329
910.339	3359
910.454	3329
910.57	3336
910.685	3260
910.8	3591
910.915	3504
911.03	3435
911.145	3241
911.259	3245
911.374	3291
911.489	3226
911.604	3256
911.718	3108
911.833	3157
911.947	3020
912.062	3005
912.176	3119
912.291	3199
912.405	3157
912.519	3420
912.633	3469
912.748	3344
912.862	3253
912.976	3203
913.09	3100
913.204	3138
913.318	3199
913.431	3317
913.545	3378
913.659	3401
913.772	3363
913.886	3222
914	3222
914.113	3321
914.226	3409
914.34	3412
914.453	3222
914.566	3397
914.68	3351
914.793	3340
914.906	3161
915.019	3123
915.132	3093
915.245	3203
915.358	3222
915.47	3287
915.583	3291
915.696	3329
915.809	3428
915.921	3443
916.034	3313
916.146	3272
916.259	3233
916.371	3439
916.483	3378
916.595	3294
916.708	3397
916.82	3363
916.932	3359
917.044	3389
917.156	3367
917.268	3279
917.38	3367
917.491	3321
917.603	3401
917.715	3496
917.826	3545
917.938	3443
918.049	3310
918.161	3439
918.272	3591
918.384	3595
918.495	3545
918.606	3397
918.717	3310
918.828	3405
918.939	3428
919.05	3351
919.161	3428
919.272	3211
919.383	3340
919.494	3530
919.604	3781
919.715	3553
919.826	3428
919.936	3488
920.047	3614
920.157	3542
920.267	3797
920.378	3660
920.488	3610
920.598	3789
920.708	4010
920.818	3918
920.928	3865
921.038	4048
921.148	4010
921.258	3701
921.368	3686
921.477	3637
921.587	3576
921.697	3473
921.806	3637
921.916	3564
922.025	3401
922.134	3378
922.244	3340
922.353	3492
922.462	3275
922.571	3321
922.68	3123
922.789	3142
922.898	3173
923.007	3119
923.116	3249
923.224	3226
923.333	3253
923.442	3108
923.55	3142
923.659	3169
923.767	3237
923.876	3116
923.984	3306
924.092	3116
924.201	3222
924.309	3233
924.417	3275
924.525	3214
924.633	3291
924.741	4059
924.849	3097
924.956	3275
925.064	3104
925.172	3024
925.279	3119
925.387	3287
925.494	3226
925.602	3363
925.709	3332
925.816	3256
925.924	3348
926.031	3439
926.138	3367
926.245	3420
926.352	3275
926.459	3428
926.566	3492
926.673	3378
926.779	3325
926.886	3272
926.993	3138
927.099	3146
927.206	3127
927.312	3184
927.419	3245
927.525	3260
927.631	3298
927.737	3184
927.843	3135
927.95	3039
928.056	3188
928.162	3184
928.267	3283
928.373	3907
928.479	3348
928.585	3081
928.69	3230
928.796	3321
928.901	3199
929.007	3077
929.112	3222
929.218	3207
929.323	3150
929.428	3176
929.533	3382
929.638	3142
929.743	3184
929.848	3302
929.953	3237
930.058	3157
930.163	3032
930.267	3070
930.372	3260
930.477	3081
930.581	3329
930.685	3188
930.79	3093
930.894	3119
930.998	3154
931.103	3310
931.207	3001
931.311	2975
931.415	2948
931.519	2834
931.623	2815
