Data from test_V78500241_1423.txt Node
Date: Fri Mar 25 16:25:03 CST 2022
User: usil
Spectrometer: V785-0024
Trigger mode: 0
Integration Time (sec): 4.000000E-1
Scans to average: 1
Nonlinearity correction enabled: false
Boxcar width: 0
Storing dark spectrum: false
XAxis mode: Wavelengths
Number of Pixels in Spectrum: 1024
>>>>>Begin Spectral Data<<<<<
801.071	2849
801.214	2944
801.356	2876
801.499	2906
801.641	2857
801.783	2876
801.926	3009
802.068	2975
802.211	2982
802.353	3009
802.496	2952
802.638	2971
802.78	3005
802.923	3066
803.065	2956
803.208	2883
803.35	2880
803.492	2895
803.635	2906
803.777	2727
803.919	2864
804.061	3176
804.204	2937
804.346	2895
804.488	2804
804.63	2952
804.773	2838
804.915	2929
805.057	3055
805.199	2910
805.341	2937
805.483	3051
805.626	2967
805.768	2952
805.91	3051
806.052	3104
806.194	3020
806.336	3203
806.478	2979
806.62	2948
806.762	2960
806.904	3032
807.046	3123
807.188	2956
807.33	2880
807.472	3024
807.614	2910
807.756	3001
807.898	2944
808.04	2902
808.182	3009
808.324	2948
808.465	2883
808.607	2872
808.749	2777
808.891	2826
809.033	2971
809.174	2982
809.316	2895
809.458	2918
809.6	2788
809.741	2777
809.883	2766
810.025	2861
810.166	2876
810.308	2922
810.45	2838
810.591	2777
810.733	2819
810.875	2876
811.016	2781
811.158	2773
811.299	2815
811.441	2960
811.582	2891
811.724	2887
811.865	2899
812.007	2971
812.148	2933
812.29	2872
812.431	2910
812.573	2960
812.714	2975
812.855	3085
812.997	3093
813.138	3119
813.279	3043
813.421	2979
813.562	2998
813.703	2887
813.845	2952
813.986	2842
814.127	2758
814.268	2864
814.41	2861
814.551	2834
814.692	2929
814.833	2891
814.974	2914
815.115	3017
815.256	2906
815.397	2834
815.539	2902
815.68	2823
815.821	2830
815.962	2994
816.103	2948
816.244	2906
816.385	2853
816.526	2994
816.666	2929
816.807	2766
816.948	2925
817.089	2933
817.23	2880
817.371	2804
817.512	2823
817.653	2876
817.793	2857
817.934	2922
818.075	2971
818.216	2986
818.356	3077
818.497	2910
818.638	2823
818.778	2845
818.919	2777
819.06	2788
819.2	2906
819.341	2830
819.481	2819
819.622	2941
819.762	3131
819.903	3104
820.043	2986
820.184	2902
820.324	2918
820.465	3032
820.605	3047
820.746	3039
820.886	2933
821.026	3142
821.167	3214
821.307	3237
821.447	3310
821.588	3256
821.728	3214
821.868	3241
822.008	3112
822.149	3260
822.289	3237
822.429	3112
822.569	3119
822.709	3154
822.849	3024
822.99	3104
823.13	3180
823.27	3203
823.41	3157
823.55	3207
823.69	3184
823.83	3173
823.97	3135
824.11	3013
824.25	2998
824.389	3074
824.529	3157
824.669	3081
824.809	3245
824.949	3264
825.089	3260
825.228	3188
825.368	3032
825.508	2971
825.648	2982
825.787	3055
825.927	3051
826.067	2994
826.206	2971
826.346	3108
826.485	3127
826.625	3119
826.765	3298
826.904	3207
827.044	2994
827.183	2933
827.323	2883
827.462	2990
827.601	2944
827.741	2948
827.88	3017
828.02	2880
828.159	3001
828.298	3039
828.437	3131
828.577	3077
828.716	3294
828.855	3112
828.994	2933
829.134	2918
829.273	2933
829.412	2891
829.551	2872
829.69	2906
829.829	3013
829.968	3150
830.107	3009
830.246	3058
830.385	2895
830.524	2895
830.663	2845
830.802	2762
830.941	2659
831.08	2663
831.219	2785
831.357	2792
831.496	2967
831.635	2727
831.774	2674
831.913	2651
832.051	2537
832.19	2587
832.329	2720
832.467	2587
832.606	2495
832.744	2651
832.883	2621
833.022	2594
833.16	2731
833.299	2712
833.437	2686
833.576	2743
833.714	2766
833.852	2746
833.991	2800
834.129	2872
834.267	2861
834.406	2826
834.544	2895
834.682	2887
834.821	2872
834.959	3100
835.097	2918
835.235	3116
835.373	3009
835.511	3066
835.65	2998
835.788	2967
835.926	2834
836.064	2826
836.202	2864
836.34	3112
836.478	3176
836.615	3074
836.753	3176
836.891	3233
837.029	3218
837.167	3169
837.305	3085
837.443	3070
837.58	3020
837.718	3154
837.856	3093
837.993	3020
838.131	3138
838.269	3154
838.406	3119
838.544	3138
838.681	2975
838.819	2952
838.956	2842
839.094	2845
839.231	2944
839.369	3047
839.506	3378
839.643	3233
839.781	3047
839.918	2979
840.055	3070
840.193	3100
840.33	3100
840.467	3100
840.604	3176
840.742	3428
840.879	3058
841.016	3055
841.153	3146
841.29	3348
841.427	3287
841.564	3325
841.701	3317
841.838	3222
841.975	3192
842.112	3264
842.249	3097
842.385	3036
842.522	3275
842.659	3093
842.796	3074
842.933	3119
843.069	3055
843.206	3104
843.343	3214
843.479	3146
843.616	3176
843.752	2902
843.889	2883
844.025	3085
844.162	2861
844.298	3108
844.435	2990
844.571	2918
844.708	3108
844.844	3184
844.98	3268
845.117	3256
845.253	3066
845.389	3047
845.525	3093
845.661	3089
845.798	3066
845.934	3180
846.07	3024
846.206	3230
846.342	3306
846.478	3203
846.614	3104
846.75	3081
846.886	3032
847.022	3264
847.158	3169
847.294	3218
847.429	3291
847.565	3272
847.701	3557
847.837	3062
847.972	3036
848.108	3161
848.244	3131
848.379	3028
848.515	2990
848.65	2948
848.786	2982
848.921	3036
849.057	3150
849.192	3173
849.328	3127
849.463	3123
849.598	3058
849.734	3047
849.869	3001
850.004	2929
850.14	3001
850.275	2963
850.41	2823
850.545	2933
850.68	2956
850.815	2971
850.95	3009
851.085	3230
851.22	3135
851.355	3047
851.49	2986
851.625	3028
851.76	3028
851.895	2948
852.03	2963
852.165	3058
852.299	3138
852.434	3211
852.569	3116
852.703	3176
852.838	3237
852.973	3332
853.107	3340
853.242	3173
853.376	3097
853.511	2994
853.645	3058
853.78	3211
853.914	3116
854.048	3127
854.183	3104
854.317	3184
854.451	3340
854.585	3131
854.72	3104
854.854	3207
854.988	3043
855.122	3127
855.256	3013
855.39	3131
855.524	3207
855.658	3218
855.792	3180
855.926	3199
856.06	3249
856.194	3272
856.327	3138
856.461	3089
856.595	3108
856.729	3127
856.862	3211
856.996	3192
857.13	3241
857.263	3249
857.397	3298
857.53	3154
857.664	3222
857.797	3260
857.931	3214
858.064	3169
858.197	3249
858.331	3180
858.464	3131
858.597	3028
858.731	3142
858.864	3116
858.997	3097
859.13	3176
859.263	3222
859.396	3188
859.529	3127
859.662	3085
859.795	3070
859.928	3173
860.061	3279
860.194	3302
860.327	3146
860.46	3123
860.592	3256
860.725	3241
860.858	3268
860.99	3123
861.123	3100
861.256	3070
861.388	3192
861.521	3778
861.653	3032
861.786	2979
861.918	3055
862.05	3074
862.183	3097
862.315	3195
862.447	3203
862.58	3097
862.712	2975
862.844	2914
862.976	3036
863.108	3028
863.24	3325
863.372	2910
863.504	2956
863.636	2956
863.768	3066
863.9	3009
864.032	2914
864.164	2998
864.296	3047
864.428	3089
864.559	3089
864.691	3074
864.823	3028
864.954	3028
865.086	3039
865.217	3013
865.349	3005
865.48	2994
865.612	3077
865.743	3127
865.875	3009
866.006	2952
866.137	2956
866.269	2960
866.4	2948
866.531	2925
866.662	2902
866.793	2922
866.924	2876
867.055	2986
867.186	2952
867.317	2933
867.448	2868
867.579	2883
867.71	2861
867.841	2815
867.972	2933
868.103	2929
868.233	2906
868.364	2899
868.495	2914
868.625	3100
868.756	3157
868.886	2986
869.017	3020
869.147	3180
869.278	3176
869.408	3055
869.539	3051
869.669	3119
869.799	3047
869.929	3142
870.06	3093
870.19	3306
870.32	3302
870.45	3283
870.58	3370
870.71	3412
870.84	3443
870.97	3249
871.1	3237
871.23	3504
871.36	3485
871.489	3329
871.619	3386
871.749	3431
871.879	3500
872.008	3485
872.138	3374
872.267	3294
872.397	3093
872.526	3093
872.656	3055
872.785	3100
872.915	3237
873.044	3355
873.173	3241
873.303	3260
873.432	3233
873.561	3256
873.69	3173
873.819	3165
873.948	3195
874.077	3112
874.206	3062
874.335	3123
874.464	3188
874.593	3332
874.722	3256
874.851	3412
874.979	3298
875.108	3351
875.237	3199
875.365	3165
875.494	3169
875.623	3256
875.751	3097
875.88	3127
876.008	3184
876.136	3226
876.265	3378
876.393	3534
876.521	3428
876.65	3389
876.778	3294
876.906	3256
877.034	3222
877.162	3264
877.29	3207
877.418	3260
877.546	3233
877.674	3283
877.802	3245
877.93	3253
878.058	3161
878.185	3180
878.313	3226
878.441	3226
878.568	3077
878.696	3188
878.824	3275
878.951	3363
879.079	3477
879.206	3671
879.333	3458
879.461	3340
879.588	3420
879.715	3545
879.842	3644
879.97	3416
880.097	3211
880.224	3180
880.351	3188
880.478	3241
880.605	3245
880.732	3211
880.859	3557
880.986	3340
881.112	3393
881.239	3211
881.366	3173
881.493	3097
881.619	3081
881.746	3093
881.872	3135
881.999	3138
882.125	3207
882.252	3237
882.378	3321
882.505	3443
882.631	3374
882.757	3214
882.883	3241
883.01	3253
883.136	3199
883.262	3161
883.388	3165
883.514	3340
883.64	3409
883.766	3359
883.892	3233
884.018	3264
884.143	3431
884.269	3564
884.395	3260
884.52	3226
884.646	3192
884.772	3169
884.897	3146
885.023	3237
885.148	3374
885.274	3397
885.399	3409
885.524	3294
885.65	3332
885.775	3363
885.9	3351
886.025	3466
886.15	3378
886.275	3351
886.4	3237
886.525	3359
886.65	3325
886.775	3279
886.9	3561
887.025	3698
887.149	3424
887.274	3317
887.399	3233
887.523	3230
887.648	3199
887.773	3256
887.897	3409
888.021	3439
888.146	3317
888.27	3466
888.395	3584
888.519	3454
888.643	3507
888.767	3481
888.891	3321
889.015	3253
889.139	3344
889.263	3260
889.387	3416
889.511	3553
889.635	3485
889.759	3336
889.883	3351
890.006	3409
890.13	3519
890.254	3321
890.377	3409
890.501	3256
890.624	3188
890.748	3298
890.871	3218
890.995	3135
891.118	3097
891.241	3226
891.364	3237
891.488	3348
891.611	3203
891.734	3264
891.857	3351
891.98	3237
892.103	3382
892.226	3291
892.349	3230
892.471	3165
892.594	3306
892.717	3351
892.839	3291
892.962	3332
893.085	3382
893.207	3310
893.33	3214
893.452	3222
893.575	3374
893.697	3279
893.819	3504
893.941	3564
894.064	3504
894.186	3321
894.308	3298
894.43	3477
894.552	3584
894.674	3500
894.796	3306
894.918	3344
895.04	3359
895.161	3485
895.283	3382
895.405	3332
895.526	3382
895.648	3462
895.769	3485
895.891	3481
896.012	3530
896.134	3530
896.255	3435
896.376	3431
896.498	3424
896.619	3496
896.74	3405
896.861	3481
896.982	3724
897.103	3827
897.224	3629
897.345	3542
897.466	3477
897.587	3545
897.708	3648
897.828	3545
897.949	3454
898.07	3332
898.19	3443
898.311	3633
898.431	3488
898.552	3523
898.672	3622
898.792	3648
898.913	3557
899.033	3424
899.153	3336
899.273	3245
899.393	3298
899.513	3348
899.633	3351
899.753	3382
899.873	3348
899.993	3412
900.113	3348
900.232	3409
900.352	3363
900.472	3332
900.591	3222
900.711	3294
900.83	3260
900.95	3454
901.069	3564
901.189	3412
901.308	3184
901.427	3157
901.546	3233
901.665	3306
901.784	3367
901.904	3260
902.023	3161
902.141	3047
902.26	3013
902.379	3157
902.498	3123
902.617	3085
902.735	3237
902.854	3241
902.973	3214
903.091	3058
903.21	3116
903.328	3165
903.446	3169
903.565	3150
903.683	3203
903.801	3146
903.919	3272
904.038	3325
904.156	3203
904.274	3306
904.392	3298
904.51	3321
904.627	3351
904.745	3443
904.863	3504
904.981	3325
905.098	3230
905.216	3268
905.334	3306
905.451	3386
905.569	3340
905.686	3469
905.803	3473
905.921	3279
906.038	3469
906.155	3443
906.272	3310
906.389	3389
906.506	3249
906.623	3287
906.74	3291
906.857	3218
906.974	3264
907.091	3477
907.208	3572
907.324	3511
907.441	3420
907.557	3218
907.674	3253
907.79	3260
907.907	3302
908.023	3416
908.139	3397
908.256	3374
908.372	3401
908.488	3374
908.604	3302
908.72	3302
908.836	3332
908.952	3325
909.068	3397
909.184	3523
909.3	3431
909.415	3549
909.531	3538
909.647	3332
909.762	3325
909.878	3317
909.993	3378
910.108	3348
910.224	3389
910.339	3428
910.454	3317
910.57	3310
910.685	3283
910.8	3633
910.915	3553
911.03	3420
911.145	3283
911.259	3325
911.374	3348
911.489	3260
911.604	3272
911.718	3169
911.833	3203
911.947	3070
912.062	3036
912.176	3199
912.291	3188
912.405	3241
912.519	3462
912.633	3477
912.748	3336
912.862	3313
912.976	3157
913.09	3077
913.204	3188
913.318	3230
913.431	3344
913.545	3389
913.659	3462
913.772	3359
913.886	3245
914	3245
914.113	3401
914.226	3412
914.34	3367
914.453	3222
914.566	3435
914.68	3275
914.793	3351
914.906	3161
915.019	3135
915.132	3093
915.245	3169
915.358	3256
915.47	3237
915.583	3321
915.696	3291
915.809	3447
915.921	3466
916.034	3249
916.146	3291
916.259	3249
916.371	3382
916.483	3382
916.595	3298
916.708	3378
916.82	3370
916.932	3336
917.044	3363
917.156	3355
917.268	3272
917.38	3317
917.491	3317
917.603	3370
917.715	3458
917.826	3526
917.938	3424
918.049	3291
918.161	3450
918.272	3606
918.384	3580
918.495	3488
918.606	3370
918.717	3260
918.828	3431
918.939	3439
919.05	3344
919.161	3439
919.272	3192
919.383	3340
919.494	3515
919.604	3713
919.715	3496
919.826	3435
919.936	3477
920.047	3633
920.157	3584
920.267	3793
920.378	3679
920.488	3564
920.598	3827
920.708	4021
920.818	3876
920.928	3884
921.038	4032
921.148	3994
921.258	3751
921.368	3671
921.477	3625
921.587	3587
921.697	3439
921.806	3663
921.916	3526
922.025	3401
922.134	3367
922.244	3317
922.353	3393
922.462	3245
922.571	3241
922.68	3119
922.789	3089
922.898	3169
923.007	3108
923.116	3237
923.224	3226
923.333	3180
923.442	3142
923.55	3093
923.659	3146
923.767	3207
923.876	3116
923.984	3287
924.092	3154
924.201	3233
924.309	3241
924.417	3264
924.525	3199
924.633	3268
924.741	4230
924.849	3062
924.956	3291
925.064	3127
925.172	3043
925.279	3119
925.387	3211
925.494	3222
925.602	3393
925.709	3336
925.816	3211
925.924	3298
926.031	3382
926.138	3351
926.245	3382
926.352	3256
926.459	3416
926.566	3500
926.673	3325
926.779	3291
926.886	3249
926.993	3142
927.099	3169
927.206	3112
927.312	3142
927.419	3268
927.525	3192
927.631	3291
927.737	3104
927.843	3135
927.95	3043
928.056	3157
928.162	3169
928.267	3310
928.373	3861
928.479	3332
928.585	3138
928.69	3249
928.796	3317
928.901	3203
929.007	3077
929.112	3241
929.218	3241
929.323	3199
929.428	3161
929.533	3329
929.638	3150
929.743	3195
929.848	3268
929.953	3233
930.058	3169
930.163	3017
930.267	3058
930.372	3214
930.477	3055
930.581	3355
930.685	3176
930.79	3066
930.894	3165
930.998	3093
931.103	3287
931.207	3017
931.311	2929
931.415	2963
931.519	2800
931.623	2804
