Data from test_V78500241_1137.txt Node
Date: Fri Mar 25 16:23:04 CST 2022
User: usil
Spectrometer: V785-0024
Trigger mode: 0
Integration Time (sec): 4.000000E-1
Scans to average: 1
Nonlinearity correction enabled: false
Boxcar width: 0
Storing dark spectrum: false
XAxis mode: Wavelengths
Number of Pixels in Spectrum: 1024
>>>>>Begin Spectral Data<<<<<
801.071	2864
801.214	2906
801.356	2857
801.499	2880
801.641	2880
801.783	2929
801.926	3043
802.068	2960
802.211	2975
802.353	3047
802.496	2952
802.638	3020
802.78	3001
802.923	3085
803.065	3001
803.208	2891
803.35	2956
803.492	2933
803.635	2914
803.777	2762
803.919	2849
804.061	3230
804.204	2944
804.346	2891
804.488	2830
804.63	2986
804.773	2864
804.915	2929
805.057	3070
805.199	2925
805.341	2975
805.483	3074
805.626	2963
805.768	2967
805.91	3070
806.052	3070
806.194	3043
806.336	3218
806.478	3039
806.62	2906
806.762	2986
806.904	3047
807.046	3165
807.188	2982
807.33	2906
807.472	2956
807.614	2914
807.756	3001
807.898	2906
808.04	2891
808.182	2956
808.324	2937
808.465	2922
808.607	2857
808.749	2815
808.891	2857
809.033	2948
809.174	2963
809.316	2880
809.458	2872
809.6	2773
809.741	2731
809.883	2754
810.025	2819
810.166	2849
810.308	2834
810.45	2876
810.591	2758
810.733	2735
810.875	2853
811.016	2769
811.158	2754
811.299	2792
811.441	2922
811.582	2922
811.724	2834
811.865	2819
812.007	2902
812.148	2899
812.29	2864
812.431	2895
812.573	2941
812.714	2975
812.855	3047
812.997	3043
813.138	3097
813.279	2982
813.421	2990
813.562	2948
813.703	2899
813.845	2861
813.986	2769
814.127	2724
814.268	2807
814.41	2842
814.551	2807
814.692	2876
814.833	2838
814.974	2872
815.115	2960
815.256	2853
815.397	2823
815.539	2864
815.68	2777
815.821	2804
815.962	2922
816.103	2937
816.244	2883
816.385	2880
816.526	2929
816.666	2918
816.807	2716
816.948	2883
817.089	2883
817.23	2804
817.371	2811
817.512	2785
817.653	2834
817.793	2796
817.934	2872
818.075	2948
818.216	3001
818.356	3039
818.497	2887
818.638	2796
818.778	2815
818.919	2785
819.06	2743
819.2	2883
819.341	2804
819.481	2834
819.622	2922
819.762	3108
819.903	3058
820.043	2910
820.184	2876
820.324	2895
820.465	2998
820.605	3024
820.746	3047
820.886	2941
821.026	3066
821.167	3154
821.307	3279
821.447	3283
821.588	3214
821.728	3222
821.868	3192
822.008	3055
822.149	3176
822.289	3218
822.429	3093
822.569	3070
822.709	3180
822.849	3036
822.99	3074
823.13	3142
823.27	3169
823.41	3089
823.55	3188
823.69	3138
823.83	3207
823.97	3116
824.11	3009
824.25	2963
824.389	3062
824.529	3123
824.669	3089
824.809	3184
824.949	3241
825.089	3222
825.228	3142
825.368	3009
825.508	2956
825.648	2948
825.787	2979
825.927	3036
826.067	2967
826.206	2948
826.346	3017
826.485	3039
826.625	3112
826.765	3233
826.904	3195
827.044	2998
827.183	2941
827.323	2872
827.462	2975
827.601	2914
827.741	2929
827.88	2929
828.02	2826
828.159	2948
828.298	3017
828.437	3123
828.577	3085
828.716	3218
828.855	3066
828.994	2895
829.134	2883
829.273	2902
829.412	2861
829.551	2857
829.69	2887
829.829	2941
829.968	3142
830.107	3009
830.246	3005
830.385	2899
830.524	2887
830.663	2838
830.802	2758
830.941	2644
831.08	2667
831.219	2754
831.357	2758
831.496	2963
831.635	2693
831.774	2651
831.913	2659
832.051	2503
832.19	2579
832.329	2697
832.467	2556
832.606	2488
832.744	2541
832.883	2564
833.022	2590
833.16	2667
833.299	2693
833.437	2686
833.576	2712
833.714	2712
833.852	2750
833.991	2762
834.129	2838
834.267	2853
834.406	2769
834.544	2899
834.682	2883
834.821	2895
834.959	3070
835.097	2876
835.235	3017
835.373	2975
835.511	2967
835.65	2929
835.788	2960
835.926	2792
836.064	2785
836.202	2811
836.34	3085
836.478	3142
836.615	3017
836.753	3154
836.891	3207
837.029	3161
837.167	3154
837.305	3066
837.443	3039
837.58	2948
837.718	3116
837.856	3093
837.993	3017
838.131	3085
838.269	3093
838.406	3077
838.544	3093
838.681	2910
838.819	2914
838.956	2823
839.094	2830
839.231	2853
839.369	3047
839.506	3363
839.643	3218
839.781	2998
839.918	2933
840.055	3085
840.193	3055
840.33	3062
840.467	3074
840.604	3131
840.742	3405
840.879	3039
841.016	3051
841.153	3100
841.29	3317
841.427	3279
841.564	3245
841.701	3321
841.838	3203
841.975	3203
842.112	3214
842.249	3062
842.385	3020
842.522	3260
842.659	3081
842.796	3032
842.933	3131
843.069	3062
843.206	3009
843.343	3154
843.479	3070
843.616	3138
843.752	2933
843.889	2834
844.025	3051
844.162	2872
844.298	3100
844.435	2906
844.571	2891
844.708	3066
844.844	3176
844.98	3245
845.117	3161
845.253	3055
845.389	2998
845.525	3093
845.661	3032
845.798	2971
845.934	3074
846.07	3077
846.206	3195
846.342	3283
846.478	3222
846.614	3070
846.75	3070
846.886	2998
847.022	3241
847.158	3127
847.294	3176
847.429	3214
847.565	3203
847.701	3485
847.837	3020
847.972	2998
848.108	3138
848.244	3138
848.379	2979
848.515	2944
848.65	2902
848.786	2952
848.921	3017
849.057	3104
849.192	3150
849.328	3070
849.463	3104
849.598	3062
849.734	2975
849.869	2929
850.004	2937
850.14	2956
850.275	2906
850.41	2807
850.545	2906
850.68	2925
850.815	2956
850.95	2956
851.085	3161
851.22	3074
851.355	3039
851.49	2982
851.625	3020
851.76	2986
851.895	2937
852.03	2891
852.165	3039
852.299	3104
852.434	3192
852.569	3123
852.703	3142
852.838	3207
852.973	3321
853.107	3298
853.242	3165
853.376	3062
853.511	2937
853.645	3017
853.78	3249
853.914	3123
854.048	3112
854.183	3066
854.317	3108
854.451	3313
854.585	3116
854.72	3066
854.854	3180
854.988	3032
855.122	3070
855.256	2975
855.39	3131
855.524	3233
855.658	3188
855.792	3142
855.926	3180
856.06	3199
856.194	3272
856.327	3173
856.461	3062
856.595	3093
856.729	3085
856.862	3214
856.996	3176
857.13	3150
857.263	3226
857.397	3272
857.53	3112
857.664	3195
857.797	3272
857.931	3256
858.064	3161
858.197	3192
858.331	3081
858.464	3089
858.597	2990
858.731	3127
858.864	3119
858.997	3093
859.13	3135
859.263	3176
859.396	3245
859.529	3051
859.662	3097
859.795	3024
859.928	3154
860.061	3256
860.194	3241
860.327	3135
860.46	3123
860.592	3226
860.725	3253
860.858	3237
860.99	3074
861.123	3047
861.256	3013
861.388	3135
861.521	3759
861.653	2979
861.786	2967
861.918	3009
862.05	3032
862.183	3093
862.315	3161
862.447	3176
862.58	3081
862.712	2906
862.844	2857
862.976	3017
863.108	2967
863.24	3321
863.372	2864
863.504	2971
863.636	2925
863.768	2998
863.9	2979
864.032	2876
864.164	2929
864.296	3032
864.428	3062
864.559	3089
864.691	3009
864.823	3089
864.954	3013
865.086	3017
865.217	2986
865.349	2902
865.48	2948
865.612	3009
865.743	3169
865.875	2967
866.006	2941
866.137	2990
866.269	2929
866.4	2933
866.531	2910
866.662	2880
866.793	2906
866.924	2887
867.055	2990
867.186	2937
867.317	2876
867.448	2857
867.579	2815
867.71	2845
867.841	2834
867.972	2906
868.103	2899
868.233	2883
868.364	2842
868.495	2910
868.625	3085
868.756	3161
868.886	2967
869.017	2971
869.147	3161
869.278	3180
869.408	3001
869.539	3024
869.669	3085
869.799	3036
869.929	3116
870.06	3104
870.19	3306
870.32	3268
870.45	3310
870.58	3344
870.71	3409
870.84	3428
870.97	3325
871.1	3195
871.23	3477
871.36	3439
871.489	3298
871.619	3382
871.749	3424
871.879	3424
872.008	3469
872.138	3359
872.267	3283
872.397	3119
872.526	3081
872.656	2986
872.785	3055
872.915	3222
873.044	3317
873.173	3203
873.303	3256
873.432	3218
873.561	3207
873.69	3138
873.819	3150
873.948	3195
874.077	3085
874.206	3024
874.335	3070
874.464	3218
874.593	3336
874.722	3207
874.851	3370
874.979	3363
875.108	3332
875.237	3207
875.365	3161
875.494	3157
875.623	3283
875.751	3070
875.88	3119
876.008	3184
876.136	3222
876.265	3389
876.393	3492
876.521	3405
876.65	3355
876.778	3336
876.906	3245
877.034	3203
877.162	3211
877.29	3188
877.418	3249
877.546	3218
877.674	3245
877.802	3241
877.93	3237
878.058	3142
878.185	3077
878.313	3173
878.441	3230
878.568	3051
878.696	3176
878.824	3192
878.951	3279
879.079	3401
879.206	3606
879.333	3454
879.461	3329
879.588	3370
879.715	3458
879.842	3561
879.97	3336
880.097	3192
880.224	3127
880.351	3184
880.478	3207
880.605	3188
880.732	3157
880.859	3496
880.986	3317
881.112	3310
881.239	3176
881.366	3055
881.493	3058
881.619	3024
881.746	3062
881.872	3085
881.999	3093
882.125	3116
882.252	3272
882.378	3287
882.505	3401
882.631	3260
882.757	3104
882.883	3264
883.01	3169
883.136	3135
883.262	3104
883.388	3116
883.514	3332
883.64	3363
883.766	3283
883.892	3154
884.018	3245
884.143	3378
884.269	3526
884.395	3176
884.52	3146
884.646	3195
884.772	3154
884.897	3119
885.023	3157
885.148	3336
885.274	3439
885.399	3370
885.524	3256
885.65	3272
885.775	3317
885.9	3256
886.025	3443
886.15	3336
886.275	3313
886.4	3249
886.525	3279
886.65	3249
886.775	3287
886.9	3488
887.025	3618
887.149	3409
887.274	3253
887.399	3188
887.523	3188
887.648	3173
887.773	3203
887.897	3363
888.021	3424
888.146	3291
888.27	3466
888.395	3542
888.519	3412
888.643	3420
888.767	3412
888.891	3298
889.015	3241
889.139	3321
889.263	3203
889.387	3397
889.511	3523
889.635	3439
889.759	3302
889.883	3287
890.006	3393
890.13	3473
890.254	3249
890.377	3325
890.501	3192
890.624	3192
890.748	3294
890.871	3188
890.995	3108
891.118	3017
891.241	3192
891.364	3207
891.488	3317
891.611	3169
891.734	3233
891.857	3279
891.98	3241
892.103	3325
892.226	3291
892.349	3199
892.471	3085
892.594	3237
892.717	3294
892.839	3275
892.962	3294
893.085	3336
893.207	3241
893.33	3176
893.452	3195
893.575	3351
893.697	3249
893.819	3447
893.941	3481
894.064	3473
894.186	3249
894.308	3287
894.43	3424
894.552	3519
894.674	3477
894.796	3264
894.918	3272
895.04	3313
895.161	3416
895.283	3374
895.405	3298
895.526	3370
895.648	3397
895.769	3382
895.891	3466
896.012	3473
896.134	3466
896.255	3405
896.376	3378
896.498	3374
896.619	3382
896.74	3344
896.861	3401
896.982	3652
897.103	3823
897.224	3595
897.345	3519
897.466	3409
897.587	3488
897.708	3599
897.828	3523
897.949	3450
898.07	3325
898.19	3401
898.311	3557
898.431	3416
898.552	3534
898.672	3587
898.792	3599
898.913	3500
899.033	3363
899.153	3298
899.273	3226
899.393	3272
899.513	3332
899.633	3329
899.753	3325
899.873	3317
899.993	3370
900.113	3344
900.232	3409
900.352	3351
900.472	3291
900.591	3199
900.711	3306
900.83	3241
900.95	3409
901.069	3523
901.189	3363
901.308	3180
901.427	3127
901.546	3192
901.665	3283
901.784	3317
901.904	3222
902.023	3138
902.141	2979
902.26	2982
902.379	3146
902.498	3108
902.617	3043
902.735	3192
902.854	3272
902.973	3237
903.091	3062
903.21	3077
903.328	3127
903.446	3104
903.565	3108
903.683	3211
903.801	3085
903.919	3237
904.038	3298
904.156	3188
904.274	3287
904.392	3272
904.51	3302
904.627	3302
904.745	3454
904.863	3485
904.981	3298
905.098	3184
905.216	3249
905.334	3272
905.451	3287
905.569	3321
905.686	3401
905.803	3412
905.921	3302
906.038	3401
906.155	3363
906.272	3272
906.389	3336
906.506	3230
906.623	3245
906.74	3211
906.857	3173
906.974	3245
907.091	3469
907.208	3538
907.324	3443
907.441	3378
907.557	3260
907.674	3233
907.79	3176
907.907	3268
908.023	3336
908.139	3389
908.256	3332
908.372	3363
908.488	3340
908.604	3222
908.72	3264
908.836	3283
908.952	3294
909.068	3340
909.184	3496
909.3	3409
909.415	3515
909.531	3485
909.647	3268
909.762	3317
909.878	3249
909.993	3378
910.108	3313
910.224	3344
910.339	3412
910.454	3340
910.57	3287
910.685	3233
910.8	3606
910.915	3488
911.03	3443
911.145	3283
911.259	3272
911.374	3298
911.489	3241
911.604	3207
911.718	3112
911.833	3127
911.947	3017
912.062	2975
912.176	3180
912.291	3184
912.405	3169
912.519	3405
912.633	3477
912.748	3310
912.862	3249
912.976	3180
913.09	2998
913.204	3142
913.318	3188
913.431	3306
913.545	3325
913.659	3397
913.772	3317
913.886	3180
914	3165
914.113	3294
914.226	3382
914.34	3329
914.453	3207
914.566	3382
914.68	3256
914.793	3321
914.906	3077
915.019	3146
915.132	3077
915.245	3165
915.358	3214
915.47	3245
915.583	3268
915.696	3310
915.809	3450
915.921	3439
916.034	3226
916.146	3253
916.259	3253
916.371	3374
916.483	3332
916.595	3253
916.708	3306
916.82	3351
916.932	3332
917.044	3340
917.156	3382
917.268	3256
917.38	3321
917.491	3287
917.603	3313
917.715	3454
917.826	3424
917.938	3386
918.049	3291
918.161	3420
918.272	3557
918.384	3542
918.495	3477
918.606	3298
918.717	3260
918.828	3393
918.939	3393
919.05	3302
919.161	3370
919.272	3192
919.383	3249
919.494	3549
919.604	3660
919.715	3488
919.826	3389
919.936	3428
920.047	3568
920.157	3477
920.267	3736
920.378	3599
920.488	3542
920.598	3759
920.708	3945
920.818	3812
920.928	3854
921.038	4036
921.148	3953
921.258	3682
921.368	3606
921.477	3549
921.587	3561
921.697	3485
921.806	3545
921.916	3523
922.025	3294
922.134	3374
922.244	3317
922.353	3443
922.462	3226
922.571	3233
922.68	3131
922.789	3089
922.898	3135
923.007	3100
923.116	3214
923.224	3165
923.333	3180
923.442	3074
923.55	3123
923.659	3150
923.767	3214
923.876	3138
923.984	3218
924.092	3097
924.201	3195
924.309	3222
924.417	3264
924.525	3157
924.633	3203
924.741	4029
924.849	3066
924.956	3264
925.064	3108
925.172	3055
925.279	3081
925.387	3176
925.494	3203
925.602	3340
925.709	3317
925.816	3176
925.924	3294
926.031	3351
926.138	3306
926.245	3351
926.352	3279
926.459	3405
926.566	3473
926.673	3332
926.779	3214
926.886	3245
926.993	3176
927.099	3108
927.206	3104
927.312	3093
927.419	3249
927.525	3192
927.631	3275
927.737	3112
927.843	3142
927.95	3028
928.056	3127
928.162	3161
928.267	3241
928.373	3831
928.479	3306
928.585	3070
928.69	3203
928.796	3272
928.901	3138
929.007	3070
929.112	3161
929.218	3169
929.323	3154
929.428	3157
929.533	3317
929.638	3093
929.743	3195
929.848	3264
929.953	3211
930.058	3123
930.163	2986
930.267	3058
930.372	3184
930.477	3024
930.581	3287
930.685	3180
930.79	3074
930.894	3123
930.998	3100
931.103	3291
931.207	2998
931.311	2910
931.415	2925
931.519	2804
931.623	2788
