Data from test_V78500241_1269.txt Node
Date: Fri Mar 25 16:23:59 CST 2022
User: usil
Spectrometer: V785-0024
Trigger mode: 0
Integration Time (sec): 4.000000E-1
Scans to average: 1
Nonlinearity correction enabled: false
Boxcar width: 0
Storing dark spectrum: false
XAxis mode: Wavelengths
Number of Pixels in Spectrum: 1024
>>>>>Begin Spectral Data<<<<<
801.071	2918
801.214	2971
801.356	2880
801.499	2910
801.641	2861
801.783	2952
801.926	3062
802.068	2948
802.211	3039
802.353	3039
802.496	2922
802.638	2994
802.78	3024
802.923	3074
803.065	3009
803.208	2914
803.35	2906
803.492	2925
803.635	2948
803.777	2769
803.919	2861
804.061	3203
804.204	2960
804.346	2910
804.488	2853
804.63	2998
804.773	2910
804.915	2876
805.057	3097
805.199	2944
805.341	2982
805.483	3036
805.626	2979
805.768	2937
805.91	3097
806.052	3127
806.194	3009
806.336	3218
806.478	3028
806.62	2971
806.762	3013
806.904	3043
807.046	3165
807.188	2952
807.33	2902
807.472	2998
807.614	2891
807.756	2982
807.898	2891
808.04	2891
808.182	2963
808.324	2960
808.465	2902
808.607	2876
808.749	2811
808.891	2804
809.033	2990
809.174	2952
809.316	2864
809.458	2880
809.6	2788
809.741	2773
809.883	2766
810.025	2826
810.166	2857
810.308	2857
810.45	2883
810.591	2792
810.733	2762
810.875	2845
811.016	2796
811.158	2746
811.299	2823
811.441	2979
811.582	2914
811.724	2838
811.865	2788
812.007	2899
812.148	2883
812.29	2849
812.431	2872
812.573	2906
812.714	2971
812.855	3081
812.997	3036
813.138	3112
813.279	2994
813.421	2990
813.562	2941
813.703	2853
813.845	2830
813.986	2773
814.127	2731
814.268	2826
814.41	2849
814.551	2811
814.692	2876
814.833	2796
814.974	2906
815.115	2952
815.256	2826
815.397	2781
815.539	2834
815.68	2807
815.821	2777
815.962	2937
816.103	2925
816.244	2845
816.385	2864
816.526	2960
816.666	2902
816.807	2727
816.948	2895
817.089	2868
817.23	2845
817.371	2766
817.512	2773
817.653	2853
817.793	2804
817.934	2895
818.075	2956
818.216	2986
818.356	3020
818.497	2876
818.638	2758
818.778	2807
818.919	2800
819.06	2781
819.2	2830
819.341	2804
819.481	2792
819.622	2922
819.762	3100
819.903	3047
820.043	2910
820.184	2906
820.324	2902
820.465	2990
820.605	3009
820.746	3028
820.886	2925
821.026	3108
821.167	3173
821.307	3253
821.447	3230
821.588	3230
821.728	3230
821.868	3176
822.008	3146
822.149	3192
822.289	3245
822.429	3104
822.569	3104
822.709	3237
822.849	3017
822.99	3100
823.13	3199
823.27	3207
823.41	3161
823.55	3173
823.69	3173
823.83	3188
823.97	3135
824.11	3009
824.25	3005
824.389	3081
824.529	3138
824.669	3070
824.809	3253
824.949	3268
825.089	3260
825.228	3184
825.368	3020
825.508	2990
825.648	2990
825.787	3047
825.927	3066
826.067	3017
826.206	3001
826.346	3081
826.485	3123
826.625	3188
826.765	3291
826.904	3268
827.044	3055
827.183	2990
827.323	2910
827.462	3013
827.601	2963
827.741	2967
827.88	2975
828.02	2914
828.159	3009
828.298	3028
828.437	3112
828.577	3058
828.716	3306
828.855	3100
828.994	2967
829.134	2914
829.273	2956
829.412	2906
829.551	2895
829.69	2941
829.829	3017
829.968	3142
830.107	3055
830.246	3039
830.385	2948
830.524	2944
830.663	2849
830.802	2800
830.941	2724
831.08	2682
831.219	2804
831.357	2762
831.496	3017
831.635	2773
831.774	2689
831.913	2716
832.051	2610
832.19	2590
832.329	2686
832.467	2560
832.606	2518
832.744	2610
832.883	2640
833.022	2629
833.16	2712
833.299	2705
833.437	2735
833.576	2701
833.714	2746
833.852	2788
833.991	2811
834.129	2876
834.267	2868
834.406	2811
834.544	2906
834.682	2906
834.821	2887
834.959	3146
835.097	2948
835.235	3108
835.373	3001
835.511	3043
835.65	2986
835.788	2986
835.926	2872
836.064	2830
836.202	2857
836.34	3131
836.478	3199
836.615	3104
836.753	3119
836.891	3233
837.029	3222
837.167	3138
837.305	3085
837.443	3028
837.58	2998
837.718	3138
837.856	3066
837.993	3036
838.131	3116
838.269	3119
838.406	3127
838.544	3116
838.681	2960
838.819	2933
838.956	2842
839.094	2872
839.231	2967
839.369	3058
839.506	3409
839.643	3279
839.781	3051
839.918	3009
840.055	3108
840.193	3036
840.33	3119
840.467	3104
840.604	3138
840.742	3428
840.879	3097
841.016	3085
841.153	3119
841.29	3382
841.427	3310
841.564	3325
841.701	3325
841.838	3237
841.975	3203
842.112	3249
842.249	3123
842.385	3085
842.522	3306
842.659	3081
842.796	3093
842.933	3119
843.069	3093
843.206	3055
843.343	3176
843.479	3154
843.616	3157
843.752	2937
843.889	2899
844.025	3104
844.162	2895
844.298	3039
844.435	2967
844.571	2929
844.708	3112
844.844	3218
844.98	3283
845.117	3207
845.253	3077
845.389	3036
845.525	3077
845.661	3066
845.798	3020
845.934	3146
846.07	3093
846.206	3245
846.342	3340
846.478	3256
846.614	3097
846.75	3043
846.886	3028
847.022	3253
847.158	3146
847.294	3241
847.429	3279
847.565	3233
847.701	3466
847.837	3070
847.972	3024
848.108	3192
848.244	3161
848.379	3013
848.515	2914
848.65	2941
848.786	3001
848.921	3017
849.057	3146
849.192	3142
849.328	3116
849.463	3097
849.598	3055
849.734	3089
849.869	2986
850.004	2963
850.14	3028
850.275	2941
850.41	2902
850.545	2925
850.68	2967
850.815	3005
850.95	2986
851.085	3230
851.22	3135
851.355	3089
851.49	3024
851.625	2998
851.76	3017
851.895	2960
852.03	2929
852.165	3100
852.299	3138
852.434	3218
852.569	3176
852.703	3169
852.838	3298
852.973	3310
853.107	3359
853.242	3157
853.376	3100
853.511	2986
853.645	3043
853.78	3279
853.914	3154
854.048	3161
854.183	3116
854.317	3195
854.451	3287
854.585	3146
854.72	3123
854.854	3268
854.988	3066
855.122	3116
855.256	2986
855.39	3135
855.524	3233
855.658	3161
855.792	3180
855.926	3165
856.06	3264
856.194	3268
856.327	3157
856.461	3097
856.595	3119
856.729	3093
856.862	3253
856.996	3173
857.13	3188
857.263	3237
857.397	3253
857.53	3146
857.664	3283
857.797	3287
857.931	3264
858.064	3214
858.197	3268
858.331	3154
858.464	3112
858.597	3047
858.731	3150
858.864	3154
858.997	3089
859.13	3180
859.263	3203
859.396	3230
859.529	3108
859.662	3112
859.795	3047
859.928	3146
860.061	3321
860.194	3310
860.327	3154
860.46	3089
860.592	3260
860.725	3275
860.858	3264
860.99	3104
861.123	3104
861.256	3070
861.388	3173
861.521	3690
861.653	3020
861.786	3020
861.918	3013
862.05	3123
862.183	3104
862.315	3104
862.447	3192
862.58	3100
862.712	2986
862.844	2861
862.976	3074
863.108	3028
863.24	3310
863.372	2883
863.504	2990
863.636	2990
863.768	3005
863.9	2975
864.032	2922
864.164	2937
864.296	3070
864.428	3123
864.559	3100
864.691	3058
864.823	3058
864.954	3062
865.086	3058
865.217	3017
865.349	2971
865.48	2998
865.612	3024
865.743	3195
865.875	3005
866.006	2925
866.137	2990
866.269	2956
866.4	2979
866.531	2944
866.662	2910
866.793	2933
866.924	2948
867.055	2952
867.186	2925
867.317	2914
867.448	2823
867.579	2876
867.71	2887
867.841	2868
867.972	2948
868.103	2941
868.233	2887
868.364	2906
868.495	2918
868.625	3028
868.756	3199
868.886	2975
869.017	3039
869.147	3207
869.278	3165
869.408	3081
869.539	3039
869.669	3062
869.799	3066
869.929	3188
870.06	3123
870.19	3351
870.32	3313
870.45	3275
870.58	3359
870.71	3431
870.84	3496
870.97	3332
871.1	3233
871.23	3469
871.36	3492
871.489	3344
871.619	3374
871.749	3454
871.879	3412
872.008	3473
872.138	3382
872.267	3256
872.397	3173
872.526	3100
872.656	3017
872.785	3100
872.915	3249
873.044	3348
873.173	3249
873.303	3283
873.432	3245
873.561	3283
873.69	3161
873.819	3150
873.948	3176
874.077	3112
874.206	3017
874.335	3066
874.464	3199
874.593	3374
874.722	3287
874.851	3389
874.979	3370
875.108	3313
875.237	3180
875.365	3154
875.494	3180
875.623	3283
875.751	3089
875.88	3123
876.008	3230
876.136	3245
876.265	3363
876.393	3481
876.521	3416
876.65	3405
876.778	3370
876.906	3245
877.034	3195
877.162	3298
877.29	3188
877.418	3264
877.546	3237
877.674	3279
877.802	3268
877.93	3283
878.058	3127
878.185	3131
878.313	3203
878.441	3195
878.568	3039
878.696	3184
878.824	3249
878.951	3340
879.079	3454
879.206	3652
879.333	3424
879.461	3298
879.588	3389
879.715	3469
879.842	3561
879.97	3329
880.097	3161
880.224	3165
880.351	3173
880.478	3237
880.605	3195
880.732	3207
880.859	3504
880.986	3283
881.112	3367
881.239	3176
881.366	3093
881.493	3081
881.619	3005
881.746	3119
881.872	3116
881.999	3123
882.125	3138
882.252	3287
882.378	3283
882.505	3435
882.631	3260
882.757	3173
882.883	3218
883.01	3241
883.136	3169
883.262	3146
883.388	3131
883.514	3332
883.64	3378
883.766	3306
883.892	3192
884.018	3256
884.143	3443
884.269	3549
884.395	3203
884.52	3176
884.646	3188
884.772	3119
884.897	3119
885.023	3233
885.148	3325
885.274	3435
885.399	3382
885.524	3279
885.65	3233
885.775	3351
885.9	3317
886.025	3431
886.15	3359
886.275	3321
886.4	3249
886.525	3332
886.65	3279
886.775	3291
886.9	3496
887.025	3652
887.149	3393
887.274	3260
887.399	3165
887.523	3214
887.648	3180
887.773	3211
887.897	3393
888.021	3378
888.146	3336
888.27	3420
888.395	3538
888.519	3485
888.643	3473
888.767	3435
888.891	3283
889.015	3226
889.139	3264
889.263	3230
889.387	3409
889.511	3526
889.635	3443
889.759	3302
889.883	3275
890.006	3382
890.13	3477
890.254	3294
890.377	3367
890.501	3180
890.624	3211
890.748	3279
890.871	3192
890.995	3112
891.118	3081
891.241	3195
891.364	3245
891.488	3336
891.611	3161
891.734	3253
891.857	3317
891.98	3241
892.103	3344
892.226	3249
892.349	3218
892.471	3119
892.594	3233
892.717	3321
892.839	3275
892.962	3306
893.085	3378
893.207	3275
893.33	3138
893.452	3211
893.575	3332
893.697	3268
893.819	3523
893.941	3538
894.064	3466
894.186	3245
894.308	3298
894.43	3439
894.552	3523
894.674	3488
894.796	3249
894.918	3336
895.04	3302
895.161	3416
895.283	3416
895.405	3298
895.526	3332
895.648	3378
895.769	3416
895.891	3450
896.012	3454
896.134	3492
896.255	3439
896.376	3389
896.498	3363
896.619	3393
896.74	3344
896.861	3420
896.982	3679
897.103	3835
897.224	3625
897.345	3515
897.466	3462
897.587	3511
897.708	3606
897.828	3538
897.949	3447
898.07	3310
898.19	3405
898.311	3576
898.431	3458
898.552	3492
898.672	3584
898.792	3614
898.913	3549
899.033	3439
899.153	3272
899.273	3218
899.393	3272
899.513	3306
899.633	3310
899.753	3344
899.873	3287
899.993	3382
900.113	3291
900.232	3348
900.352	3351
900.472	3253
900.591	3222
900.711	3279
900.83	3245
900.95	3416
901.069	3492
901.189	3344
901.308	3207
901.427	3138
901.546	3211
901.665	3268
901.784	3302
901.904	3218
902.023	3161
902.141	3039
902.26	2998
902.379	3112
902.498	3051
902.617	3055
902.735	3241
902.854	3237
902.973	3169
903.091	3028
903.21	3066
903.328	3112
903.446	3104
903.565	3100
903.683	3203
903.801	3142
903.919	3233
904.038	3279
904.156	3173
904.274	3287
904.392	3256
904.51	3294
904.627	3329
904.745	3431
904.863	3447
904.981	3306
905.098	3192
905.216	3222
905.334	3298
905.451	3302
905.569	3260
905.686	3431
905.803	3405
905.921	3275
906.038	3450
906.155	3378
906.272	3260
906.389	3325
906.506	3192
906.623	3306
906.74	3275
906.857	3199
906.974	3249
907.091	3439
907.208	3580
907.324	3485
907.441	3374
907.557	3222
907.674	3237
907.79	3222
907.907	3272
908.023	3355
908.139	3393
908.256	3344
908.372	3386
908.488	3363
908.604	3260
908.72	3233
908.836	3264
908.952	3287
909.068	3348
909.184	3462
909.3	3389
909.415	3507
909.531	3473
909.647	3264
909.762	3313
909.878	3253
909.993	3332
910.108	3313
910.224	3321
910.339	3424
910.454	3340
910.57	3287
910.685	3222
910.8	3561
910.915	3549
911.03	3370
911.145	3253
911.259	3256
911.374	3313
911.489	3207
911.604	3264
911.718	3131
911.833	3184
911.947	3047
912.062	2986
912.176	3150
912.291	3188
912.405	3222
912.519	3424
912.633	3454
912.748	3351
912.862	3275
912.976	3138
913.09	3081
913.204	3161
913.318	3241
913.431	3329
913.545	3332
913.659	3382
913.772	3340
913.886	3195
914	3233
914.113	3363
914.226	3409
914.34	3359
914.453	3233
914.566	3428
914.68	3310
914.793	3298
914.906	3104
915.019	3108
915.132	3077
915.245	3142
915.358	3192
915.47	3222
915.583	3294
915.696	3313
915.809	3409
915.921	3435
916.034	3291
916.146	3279
916.259	3241
916.371	3378
916.483	3332
916.595	3249
916.708	3313
916.82	3325
916.932	3363
917.044	3321
917.156	3332
917.268	3253
917.38	3306
917.491	3302
917.603	3332
917.715	3447
917.826	3443
917.938	3370
918.049	3283
918.161	3382
918.272	3564
918.384	3576
918.495	3477
918.606	3370
918.717	3256
918.828	3389
918.939	3424
919.05	3306
919.161	3367
919.272	3138
919.383	3275
919.494	3481
919.604	3679
919.715	3481
919.826	3363
919.936	3450
920.047	3568
920.157	3519
920.267	3747
920.378	3557
920.488	3564
920.598	3762
920.708	3945
920.818	3808
920.928	3857
921.038	4025
921.148	4040
921.258	3698
921.368	3591
921.477	3591
921.587	3545
921.697	3447
921.806	3599
921.916	3545
922.025	3332
922.134	3351
922.244	3283
922.353	3428
922.462	3241
922.571	3230
922.68	3108
922.789	3043
922.898	3150
923.007	3104
923.116	3192
923.224	3169
923.333	3211
923.442	3108
923.55	3100
923.659	3150
923.767	3207
923.876	3119
923.984	3260
924.092	3119
924.201	3226
924.309	3207
924.417	3230
924.525	3157
924.633	3214
924.741	4017
924.849	3055
924.956	3249
925.064	3093
925.172	3032
925.279	3142
925.387	3218
925.494	3203
925.602	3325
925.709	3302
925.816	3180
925.924	3272
926.031	3367
926.138	3306
926.245	3382
926.352	3260
926.459	3382
926.566	3488
926.673	3348
926.779	3253
926.886	3260
926.993	3165
927.099	3104
927.206	3135
927.312	3066
927.419	3245
927.525	3195
927.631	3294
927.737	3131
927.843	3138
927.95	3020
928.056	3150
928.162	3180
928.267	3283
928.373	3903
928.479	3313
928.585	3066
928.69	3188
928.796	3256
928.901	3150
929.007	3097
929.112	3218
929.218	3203
929.323	3150
929.428	3127
929.533	3310
929.638	3138
929.743	3165
929.848	3264
929.953	3203
930.058	3116
930.163	2982
930.267	3024
930.372	3169
930.477	3043
930.581	3332
930.685	3188
930.79	3074
930.894	3081
930.998	3093
931.103	3294
931.207	2948
931.311	2963
931.415	2937
931.519	2743
931.623	2796
