Data from test_V78500241_972.txt Node
Date: Fri Mar 25 16:21:56 CST 2022
User: usil
Spectrometer: V785-0024
Trigger mode: 0
Integration Time (sec): 4.000000E-1
Scans to average: 1
Nonlinearity correction enabled: false
Boxcar width: 0
Storing dark spectrum: false
XAxis mode: Wavelengths
Number of Pixels in Spectrum: 1024
>>>>>Begin Spectral Data<<<<<
801.071	2891
801.214	2933
801.356	2861
801.499	2910
801.641	2838
801.783	2925
801.926	3066
802.068	2986
802.211	3020
802.353	3039
802.496	2967
802.638	2937
802.78	3028
802.923	3108
803.065	2971
803.208	2902
803.35	2918
803.492	2887
803.635	2883
803.777	2746
803.919	2861
804.061	3192
804.204	2944
804.346	2891
804.488	2861
804.63	2979
804.773	2887
804.915	2902
805.057	3097
805.199	2902
805.341	2925
805.483	3043
805.626	3020
805.768	2963
805.91	3081
806.052	3055
806.194	3024
806.336	3222
806.478	2986
806.62	2941
806.762	2975
806.904	3112
807.046	3142
807.188	2979
807.33	2891
807.472	3028
807.614	2933
807.756	2963
807.898	2948
808.04	2906
808.182	3005
808.324	2944
808.465	2887
808.607	2872
808.749	2792
808.891	2819
809.033	2986
809.174	2967
809.316	2891
809.458	2857
809.6	2781
809.741	2769
809.883	2743
810.025	2849
810.166	2845
810.308	2842
810.45	2864
810.591	2781
810.733	2773
810.875	2811
811.016	2766
811.158	2777
811.299	2842
811.441	2933
811.582	2876
811.724	2800
811.865	2857
812.007	2918
812.148	2864
812.29	2902
812.431	2887
812.573	2929
812.714	2960
812.855	3036
812.997	3051
813.138	3077
813.279	2971
813.421	2982
813.562	2922
813.703	2864
813.845	2872
813.986	2735
814.127	2739
814.268	2811
814.41	2811
814.551	2811
814.692	2857
814.833	2826
814.974	2876
815.115	2914
815.256	2819
815.397	2849
815.539	2834
815.68	2788
815.821	2815
815.962	2941
816.103	2944
816.244	2883
816.385	2838
816.526	2956
816.666	2944
816.807	2769
816.948	2861
817.089	2941
817.23	2861
817.371	2777
817.512	2785
817.653	2838
817.793	2834
817.934	2895
818.075	2956
818.216	2982
818.356	3009
818.497	2876
818.638	2758
818.778	2811
818.919	2758
819.06	2743
819.2	2914
819.341	2811
819.481	2792
819.622	2956
819.762	3123
819.903	3047
820.043	2914
820.184	2929
820.324	2872
820.465	3009
820.605	3001
820.746	3032
820.886	2925
821.026	3062
821.167	3207
821.307	3321
821.447	3256
821.588	3237
821.728	3214
821.868	3199
822.008	3074
822.149	3165
822.289	3230
822.429	3097
822.569	3104
822.709	3169
822.849	3005
822.99	3108
823.13	3142
823.27	3222
823.41	3062
823.55	3135
823.69	3142
823.83	3199
823.97	3081
824.11	2986
824.25	2994
824.389	3093
824.529	3138
824.669	3017
824.809	3180
824.949	3241
825.089	3222
825.228	3184
825.368	2971
825.508	2933
825.648	2952
825.787	3009
825.927	2967
826.067	2982
826.206	2982
826.346	3028
826.485	3066
826.625	3077
826.765	3256
826.904	3218
827.044	2967
827.183	2899
827.323	2819
827.462	3009
827.601	2899
827.741	2918
827.88	2963
828.02	2883
828.159	2933
828.298	3051
828.437	3081
828.577	3009
828.716	3211
828.855	3066
828.994	2887
829.134	2876
829.273	2891
829.412	2861
829.551	2849
829.69	2872
829.829	2960
829.968	3154
830.107	2979
830.246	3009
830.385	2902
830.524	2887
830.663	2807
830.802	2739
830.941	2644
831.08	2636
831.219	2762
831.357	2773
831.496	2941
831.635	2693
831.774	2655
831.913	2667
832.051	2541
832.19	2598
832.329	2667
832.467	2575
832.606	2476
832.744	2598
832.883	2594
833.022	2590
833.16	2651
833.299	2667
833.437	2689
833.576	2689
833.714	2731
833.852	2701
833.991	2781
834.129	2807
834.267	2792
834.406	2758
834.544	2864
834.682	2868
834.821	2864
834.959	3024
835.097	2872
835.235	3036
835.373	2990
835.511	3001
835.65	2979
835.788	2948
835.926	2792
836.064	2815
836.202	2845
836.34	3097
836.478	3131
836.615	3017
836.753	3146
836.891	3199
837.029	3161
837.167	3119
837.305	3047
837.443	3062
837.58	2956
837.718	3142
837.856	3077
837.993	3013
838.131	3112
838.269	3135
838.406	3097
838.544	3093
838.681	2960
838.819	2925
838.956	2842
839.094	2842
839.231	2922
839.369	2998
839.506	3359
839.643	3218
839.781	3001
839.918	2944
840.055	3062
840.193	3028
840.33	3047
840.467	3093
840.604	3146
840.742	3405
840.879	3009
841.016	3020
841.153	3104
841.29	3329
841.427	3287
841.564	3279
841.701	3332
841.838	3199
841.975	3150
842.112	3203
842.249	3074
842.385	3055
842.522	3268
842.659	3066
842.796	3055
842.933	3085
843.069	3043
843.206	3028
843.343	3142
843.479	3100
843.616	3173
843.752	2891
843.889	2910
844.025	3070
844.162	2887
844.298	3081
844.435	2899
844.571	2922
844.708	3070
844.844	3184
844.98	3211
845.117	3161
845.253	3043
845.389	3028
845.525	3112
845.661	3066
845.798	2979
845.934	3108
846.07	3032
846.206	3222
846.342	3325
846.478	3211
846.614	3093
846.75	3036
846.886	3017
847.022	3214
847.158	3135
847.294	3192
847.429	3203
847.565	3218
847.701	3504
847.837	3024
847.972	3005
848.108	3135
848.244	3100
848.379	2971
848.515	2891
848.65	2941
848.786	2963
848.921	3020
849.057	3112
849.192	3108
849.328	3070
849.463	3081
849.598	3047
849.734	3039
849.869	2986
850.004	2902
850.14	2941
850.275	2914
850.41	2838
850.545	2853
850.68	2914
850.815	2925
850.95	2948
851.085	3169
851.22	3100
851.355	3001
851.49	2963
851.625	3013
851.76	3001
851.895	2918
852.03	2922
852.165	3020
852.299	3097
852.434	3161
852.569	3127
852.703	3169
852.838	3230
852.973	3348
853.107	3306
853.242	3131
853.376	3066
853.511	2967
853.645	3055
853.78	3211
853.914	3123
854.048	3093
854.183	3074
854.317	3142
854.451	3291
854.585	3131
854.72	3081
854.854	3233
854.988	3017
855.122	3055
855.256	2971
855.39	3093
855.524	3218
855.658	3188
855.792	3165
855.926	3127
856.06	3233
856.194	3279
856.327	3150
856.461	3043
856.595	3066
856.729	3081
856.862	3233
856.996	3154
857.13	3176
857.263	3203
857.397	3253
857.53	3085
857.664	3256
857.797	3218
857.931	3268
858.064	3138
858.197	3237
858.331	3116
858.464	3108
858.597	3020
858.731	3077
858.864	3131
858.997	3062
859.13	3142
859.263	3184
859.396	3176
859.529	3085
859.662	3085
859.795	3032
859.928	3108
860.061	3272
860.194	3275
860.327	3131
860.46	3085
860.592	3230
860.725	3275
860.858	3188
860.99	3100
861.123	3058
861.256	3013
861.388	3119
861.521	3857
861.653	3028
861.786	2986
861.918	3024
862.05	3024
862.183	3097
862.315	3150
862.447	3165
862.58	3108
862.712	2944
862.844	2918
862.976	2998
863.108	2982
863.24	3389
863.372	2883
863.504	2990
863.636	2982
863.768	2990
863.9	2975
864.032	2933
864.164	2929
864.296	2982
864.428	3123
864.559	3089
864.691	3070
864.823	3055
864.954	3001
865.086	3024
865.217	2975
865.349	2922
865.48	2998
865.612	3032
865.743	3127
865.875	2925
866.006	2948
866.137	2994
866.269	2933
866.4	2925
866.531	2880
866.662	2883
866.793	2906
866.924	2902
867.055	2982
867.186	2925
867.317	2861
867.448	2830
867.579	2838
867.71	2849
867.841	2804
867.972	2876
868.103	2914
868.233	2845
868.364	2899
868.495	2895
868.625	3055
868.756	3176
868.886	2979
869.017	3051
869.147	3146
869.278	3146
869.408	3028
869.539	3020
869.669	3085
869.799	3024
869.929	3112
870.06	3051
870.19	3329
870.32	3287
870.45	3275
870.58	3386
870.71	3401
870.84	3428
870.97	3249
871.1	3192
871.23	3431
871.36	3496
871.489	3344
871.619	3363
871.749	3389
871.879	3428
872.008	3469
872.138	3370
872.267	3321
872.397	3131
872.526	3108
872.656	2986
872.785	3081
872.915	3211
873.044	3279
873.173	3180
873.303	3230
873.432	3233
873.561	3249
873.69	3142
873.819	3123
873.948	3207
874.077	3123
874.206	3055
874.335	3116
874.464	3214
874.593	3313
874.722	3241
874.851	3382
874.979	3359
875.108	3325
875.237	3199
875.365	3154
875.494	3146
875.623	3230
875.751	3051
875.88	3058
876.008	3192
876.136	3222
876.265	3378
876.393	3507
876.521	3382
876.65	3412
876.778	3351
876.906	3233
877.034	3203
877.162	3195
877.29	3184
877.418	3222
877.546	3226
877.674	3211
877.802	3230
877.93	3211
878.058	3154
878.185	3070
878.313	3192
878.441	3241
878.568	3070
878.696	3123
878.824	3249
878.951	3310
879.079	3416
879.206	3625
879.333	3412
879.461	3302
879.588	3348
879.715	3462
879.842	3568
879.97	3382
880.097	3161
880.224	3081
880.351	3184
880.478	3195
880.605	3195
880.732	3169
880.859	3496
880.986	3256
881.112	3294
881.239	3188
881.366	3055
881.493	3055
881.619	3028
881.746	3055
881.872	3074
881.999	3039
882.125	3135
882.252	3214
882.378	3279
882.505	3454
882.631	3275
882.757	3154
882.883	3214
883.01	3222
883.136	3161
883.262	3085
883.388	3085
883.514	3344
883.64	3412
883.766	3294
883.892	3184
884.018	3256
884.143	3405
884.269	3523
884.395	3173
884.52	3154
884.646	3173
884.772	3085
884.897	3066
885.023	3218
885.148	3287
885.274	3397
885.399	3401
885.524	3317
885.65	3260
885.775	3279
885.9	3260
886.025	3443
886.15	3329
886.275	3275
886.4	3237
886.525	3291
886.65	3241
886.775	3298
886.9	3500
887.025	3618
887.149	3355
887.274	3268
887.399	3169
887.523	3214
887.648	3188
887.773	3188
887.897	3344
888.021	3401
888.146	3279
888.27	3409
888.395	3530
888.519	3439
888.643	3416
888.767	3488
888.891	3275
889.015	3237
889.139	3260
889.263	3226
889.387	3393
889.511	3496
889.635	3450
889.759	3283
889.883	3264
890.006	3374
890.13	3496
890.254	3230
890.377	3359
890.501	3195
890.624	3195
890.748	3256
890.871	3211
890.995	3085
891.118	3055
891.241	3176
891.364	3230
891.488	3291
891.611	3165
891.734	3222
891.857	3226
891.98	3230
892.103	3329
892.226	3272
892.349	3214
892.471	3093
892.594	3214
892.717	3272
892.839	3268
892.962	3275
893.085	3351
893.207	3310
893.33	3131
893.452	3211
893.575	3348
893.697	3264
893.819	3496
893.941	3515
894.064	3435
894.186	3275
894.308	3241
894.43	3420
894.552	3564
894.674	3439
894.796	3294
894.918	3313
895.04	3275
895.161	3428
895.283	3401
895.405	3264
895.526	3363
895.648	3405
895.769	3405
895.891	3416
896.012	3481
896.134	3458
896.255	3393
896.376	3393
896.498	3340
896.619	3450
896.74	3367
896.861	3397
896.982	3652
897.103	3842
897.224	3599
897.345	3492
897.466	3439
897.587	3450
897.708	3629
897.828	3530
897.949	3435
898.07	3332
898.19	3466
898.311	3633
898.431	3409
898.552	3473
898.672	3595
898.792	3568
898.913	3534
899.033	3393
899.153	3275
899.273	3199
899.393	3279
899.513	3317
899.633	3336
899.753	3325
899.873	3340
899.993	3367
900.113	3279
900.232	3405
900.352	3313
900.472	3272
900.591	3230
900.711	3279
900.83	3241
900.95	3386
901.069	3496
901.189	3363
901.308	3184
901.427	3169
901.546	3192
901.665	3275
901.784	3317
901.904	3233
902.023	3142
902.141	3039
902.26	2998
902.379	3138
902.498	3070
902.617	3074
902.735	3161
902.854	3207
902.973	3199
903.091	3024
903.21	3024
903.328	3093
903.446	3100
903.565	3123
903.683	3230
903.801	3150
903.919	3226
904.038	3272
904.156	3165
904.274	3313
904.392	3222
904.51	3283
904.627	3344
904.745	3447
904.863	3511
904.981	3245
905.098	3184
905.216	3203
905.334	3287
905.451	3294
905.569	3298
905.686	3439
905.803	3431
905.921	3253
906.038	3424
906.155	3336
906.272	3291
906.389	3283
906.506	3226
906.623	3260
906.74	3291
906.857	3161
906.974	3233
907.091	3424
907.208	3576
907.324	3466
907.441	3393
907.557	3245
907.674	3233
907.79	3184
907.907	3233
908.023	3363
908.139	3344
908.256	3351
908.372	3359
908.488	3374
908.604	3245
908.72	3230
908.836	3272
908.952	3287
909.068	3310
909.184	3466
909.3	3397
909.415	3466
909.531	3481
909.647	3260
909.762	3306
909.878	3249
909.993	3401
910.108	3317
910.224	3336
910.339	3409
910.454	3298
910.57	3279
910.685	3245
910.8	3561
910.915	3496
911.03	3435
911.145	3302
911.259	3298
911.374	3329
911.489	3237
911.604	3249
911.718	3104
911.833	3097
911.947	3020
912.062	2998
912.176	3138
912.291	3176
912.405	3222
912.519	3386
912.633	3462
912.748	3340
912.862	3264
912.976	3135
913.09	3077
913.204	3131
913.318	3226
913.431	3344
913.545	3321
913.659	3386
913.772	3313
913.886	3214
914	3199
914.113	3359
914.226	3420
914.34	3310
914.453	3249
914.566	3420
914.68	3283
914.793	3306
914.906	3146
915.019	3116
915.132	3077
915.245	3146
915.358	3211
915.47	3207
915.583	3298
915.696	3321
915.809	3397
915.921	3389
916.034	3222
916.146	3233
916.259	3226
916.371	3393
916.483	3336
916.595	3253
916.708	3329
916.82	3344
916.932	3329
917.044	3340
917.156	3317
917.268	3256
917.38	3317
917.491	3283
917.603	3355
917.715	3447
917.826	3458
917.938	3409
918.049	3291
918.161	3397
918.272	3587
918.384	3584
918.495	3473
918.606	3332
918.717	3279
918.828	3386
918.939	3409
919.05	3294
919.161	3359
919.272	3169
919.383	3256
919.494	3477
919.604	3652
919.715	3511
919.826	3355
919.936	3450
920.047	3584
920.157	3526
920.267	3717
920.378	3606
920.488	3523
920.598	3774
920.708	3956
920.818	3808
920.928	3823
921.038	4002
921.148	3994
921.258	3759
921.368	3614
921.477	3538
921.587	3534
921.697	3443
921.806	3641
921.916	3496
922.025	3336
922.134	3332
922.244	3302
922.353	3424
922.462	3245
922.571	3253
922.68	3123
922.789	3077
922.898	3154
923.007	3119
923.116	3214
923.224	3165
923.333	3192
923.442	3100
923.55	3093
923.659	3165
923.767	3211
923.876	3104
923.984	3226
924.092	3066
924.201	3184
924.309	3237
924.417	3241
924.525	3188
924.633	3272
924.741	4192
924.849	3085
924.956	3260
925.064	3058
925.172	3058
925.279	3077
925.387	3192
925.494	3176
925.602	3344
925.709	3310
925.816	3188
925.924	3291
926.031	3374
926.138	3321
926.245	3340
926.352	3230
926.459	3428
926.566	3435
926.673	3332
926.779	3222
926.886	3214
926.993	3180
927.099	3100
927.206	3112
927.312	3112
927.419	3226
927.525	3211
927.631	3275
927.737	3180
927.843	3135
927.95	3017
928.056	3127
928.162	3192
928.267	3199
928.373	3884
928.479	3283
928.585	3055
928.69	3195
928.796	3275
928.901	3154
929.007	3005
929.112	3211
929.218	3195
929.323	3138
929.428	3127
929.533	3302
929.638	3077
929.743	3188
929.848	3249
929.953	3207
930.058	3146
930.163	2986
930.267	3055
930.372	3192
930.477	3085
930.581	3298
930.685	3150
930.79	3058
930.894	3119
930.998	3093
931.103	3298
931.207	2918
931.311	2937
931.415	2948
931.519	2796
931.623	2834
