Data from test_V78500241_619.txt Node
Date: Fri Mar 25 16:19:29 CST 2022
User: usil
Spectrometer: V785-0024
Trigger mode: 0
Integration Time (sec): 4.000000E-1
Scans to average: 1
Nonlinearity correction enabled: false
Boxcar width: 0
Storing dark spectrum: false
XAxis mode: Wavelengths
Number of Pixels in Spectrum: 1024
>>>>>Begin Spectral Data<<<<<
801.071	2895
801.214	2925
801.356	2876
801.499	2895
801.641	2868
801.783	2910
801.926	3070
802.068	2971
802.211	3005
802.353	3051
802.496	2960
802.638	2994
802.78	3039
802.923	3066
803.065	2998
803.208	2891
803.35	2895
803.492	2944
803.635	2899
803.777	2743
803.919	2807
804.061	3188
804.204	2960
804.346	2906
804.488	2826
804.63	2982
804.773	2895
804.915	2895
805.057	3047
805.199	2925
805.341	2979
805.483	3017
805.626	2998
805.768	2956
805.91	3089
806.052	3097
806.194	3024
806.336	3195
806.478	3005
806.62	2864
806.762	2963
806.904	3047
807.046	3173
807.188	2990
807.33	2849
807.472	2971
807.614	2960
807.756	2960
807.898	2937
808.04	2891
808.182	2963
808.324	2948
808.465	2895
808.607	2899
808.749	2785
808.891	2872
809.033	2998
809.174	2971
809.316	2906
809.458	2902
809.6	2754
809.741	2735
809.883	2777
810.025	2823
810.166	2872
810.308	2819
810.45	2853
810.591	2766
810.733	2781
810.875	2804
811.016	2746
811.158	2724
811.299	2819
811.441	2899
811.582	2891
811.724	2876
811.865	2819
812.007	2899
812.148	2830
812.29	2800
812.431	2880
812.573	2910
812.714	2963
812.855	3074
812.997	3077
813.138	3112
813.279	3001
813.421	2960
813.562	2979
813.703	2906
813.845	2906
813.986	2735
814.127	2686
814.268	2819
814.41	2826
814.551	2804
814.692	2842
814.833	2819
814.974	2906
815.115	2967
815.256	2861
815.397	2811
815.539	2883
815.68	2773
815.821	2777
815.962	2960
816.103	2925
816.244	2861
816.385	2838
816.526	2956
816.666	2853
816.807	2750
816.948	2883
817.089	2864
817.23	2834
817.371	2746
817.512	2788
817.653	2834
817.793	2826
817.934	2876
818.075	2963
818.216	2982
818.356	3013
818.497	2914
818.638	2815
818.778	2830
818.919	2796
819.06	2758
819.2	2864
819.341	2804
819.481	2777
819.622	2918
819.762	3070
819.903	3055
820.043	2922
820.184	2868
820.324	2880
820.465	2967
820.605	2982
820.746	3017
820.886	2929
821.026	3119
821.167	3146
821.307	3222
821.447	3283
821.588	3233
821.728	3146
821.868	3211
822.008	3077
822.149	3218
822.289	3230
822.429	3085
822.569	3074
822.709	3146
822.849	3005
822.99	3043
823.13	3142
823.27	3203
823.41	3112
823.55	3127
823.69	3138
823.83	3184
823.97	3077
824.11	2990
824.25	2986
824.389	3051
824.529	3112
824.669	3066
824.809	3169
824.949	3253
825.089	3233
825.228	3176
825.368	2998
825.508	2914
825.648	2971
825.787	2994
825.927	2994
826.067	2967
826.206	2986
826.346	3001
826.485	3089
826.625	3089
826.765	3253
826.904	3203
827.044	2986
827.183	2891
827.323	2849
827.462	2998
827.601	2902
827.741	2929
827.88	2963
828.02	2838
828.159	2963
828.298	3001
828.437	3093
828.577	3028
828.716	3237
828.855	3089
828.994	2910
829.134	2861
829.273	2925
829.412	2861
829.551	2853
829.69	2902
829.829	2998
829.968	3108
830.107	3039
830.246	2986
830.385	2906
830.524	2857
830.663	2796
830.802	2689
830.941	2636
831.08	2659
831.219	2758
831.357	2754
831.496	2925
831.635	2727
831.774	2621
831.913	2663
832.051	2526
832.19	2571
832.329	2667
832.467	2507
832.606	2499
832.744	2556
832.883	2560
833.022	2575
833.16	2632
833.299	2686
833.437	2724
833.576	2682
833.714	2705
833.852	2712
833.991	2769
834.129	2819
834.267	2823
834.406	2769
834.544	2834
834.682	2880
834.821	2834
834.959	3039
835.097	2910
835.235	3051
835.373	3009
835.511	3020
835.65	2960
835.788	2906
835.926	2804
836.064	2807
836.202	2807
836.34	3077
836.478	3138
836.615	3039
836.753	3112
836.891	3195
837.029	3154
837.167	3077
837.305	3066
837.443	3062
837.58	2922
837.718	3104
837.856	3081
837.993	3043
838.131	3074
838.269	3081
838.406	3093
838.544	3070
838.681	2910
838.819	2891
838.956	2823
839.094	2826
839.231	2941
839.369	2998
839.506	3332
839.643	3214
839.781	3013
839.918	2941
840.055	3051
840.193	3013
840.33	3055
840.467	3077
840.604	3138
840.742	3420
840.879	3028
841.016	3005
841.153	3089
841.29	3317
841.427	3283
841.564	3264
841.701	3317
841.838	3192
841.975	3188
842.112	3207
842.249	3081
842.385	3039
842.522	3245
842.659	3070
842.796	3089
842.933	3116
843.069	3009
843.206	2994
843.343	3165
843.479	3108
843.616	3131
843.752	2880
843.889	2868
844.025	3077
844.162	2891
844.298	3100
844.435	2910
844.571	2933
844.708	3085
844.844	3154
844.98	3207
845.117	3180
845.253	3100
845.389	3001
845.525	3070
845.661	3119
845.798	2952
845.934	3119
846.07	3055
846.206	3230
846.342	3313
846.478	3211
846.614	3077
846.75	3047
846.886	2963
847.022	3211
847.158	3154
847.294	3211
847.429	3211
847.565	3173
847.701	3439
847.837	2986
847.972	2994
848.108	3161
848.244	3146
848.379	2960
848.515	2914
848.65	2937
848.786	2948
848.921	2960
849.057	3112
849.192	3112
849.328	3055
849.463	3131
849.598	3017
849.734	3028
849.869	2998
850.004	2914
850.14	2979
850.275	2906
850.41	2830
850.545	2864
850.68	2910
850.815	2929
850.95	2994
851.085	3169
851.22	3100
851.355	3051
851.49	2967
851.625	2979
851.76	2963
851.895	2906
852.03	2887
852.165	3043
852.299	3077
852.434	3169
852.569	3123
852.703	3142
852.838	3233
852.973	3329
853.107	3313
853.242	3138
853.376	3119
853.511	2948
853.645	3024
853.78	3192
853.914	3097
854.048	3081
854.183	3062
854.317	3146
854.451	3291
854.585	3123
854.72	3066
854.854	3203
854.988	3055
855.122	3077
855.256	2990
855.39	3123
855.524	3199
855.658	3169
855.792	3165
855.926	3184
856.06	3195
856.194	3260
856.327	3135
856.461	3093
856.595	3047
856.729	3085
856.862	3176
856.996	3142
857.13	3188
857.263	3214
857.397	3275
857.53	3135
857.664	3203
857.797	3199
857.931	3253
858.064	3157
858.197	3188
858.331	3131
858.464	3093
858.597	3032
858.731	3077
858.864	3123
858.997	3085
859.13	3135
859.263	3169
859.396	3157
859.529	3058
859.662	3055
859.795	3036
859.928	3104
860.061	3230
860.194	3249
860.327	3146
860.46	3085
860.592	3218
860.725	3184
860.858	3245
860.99	3123
861.123	3032
861.256	3036
861.388	3116
861.521	3682
861.653	2971
861.786	2960
861.918	2986
862.05	3070
862.183	3055
862.315	3150
862.447	3192
862.58	3055
862.712	2929
862.844	2853
862.976	3020
863.108	3013
863.24	3416
863.372	2895
863.504	2952
863.636	2933
863.768	3066
863.9	3013
864.032	2891
864.164	2994
864.296	2975
864.428	3070
864.559	3123
864.691	3131
864.823	3058
864.954	3055
865.086	3074
865.217	2975
865.349	2975
865.48	2994
865.612	3058
865.743	3157
865.875	2998
866.006	2960
866.137	2967
866.269	2967
866.4	2922
866.531	2925
866.662	2925
866.793	2941
866.924	2922
867.055	2986
867.186	2956
867.317	2883
867.448	2872
867.579	2872
867.71	2891
867.841	2868
867.972	2925
868.103	2929
868.233	2925
868.364	2902
868.495	2941
868.625	3108
868.756	3169
868.886	3028
869.017	3051
869.147	3218
869.278	3211
869.408	3066
869.539	3009
869.669	3138
869.799	3043
869.929	3180
870.06	3150
870.19	3374
870.32	3355
870.45	3336
870.58	3393
870.71	3485
870.84	3515
870.97	3329
871.1	3283
871.23	3538
871.36	3481
871.489	3378
871.619	3450
871.749	3447
871.879	3466
872.008	3504
872.138	3389
872.267	3306
872.397	3222
872.526	3138
872.656	3089
872.785	3135
872.915	3275
873.044	3340
873.173	3195
873.303	3272
873.432	3256
873.561	3245
873.69	3176
873.819	3199
873.948	3256
874.077	3188
874.206	3062
874.335	3116
874.464	3268
874.593	3386
874.722	3253
874.851	3458
874.979	3397
875.108	3340
875.237	3230
875.365	3180
875.494	3195
875.623	3272
875.751	3093
875.88	3184
876.008	3207
876.136	3249
876.265	3409
876.393	3507
876.521	3412
876.65	3424
876.778	3367
876.906	3283
877.034	3226
877.162	3233
877.29	3165
877.418	3256
877.546	3249
877.674	3256
877.802	3279
877.93	3272
878.058	3169
878.185	3112
878.313	3237
878.441	3207
878.568	3116
878.696	3180
878.824	3264
878.951	3317
879.079	3492
879.206	3641
879.333	3504
879.461	3348
879.588	3340
879.715	3492
879.842	3648
879.97	3389
880.097	3245
880.224	3127
880.351	3184
880.478	3268
880.605	3226
880.732	3256
880.859	3534
880.986	3302
881.112	3329
881.239	3233
881.366	3119
881.493	3089
881.619	3055
881.746	3100
881.872	3119
881.999	3131
882.125	3161
882.252	3253
882.378	3325
882.505	3431
882.631	3317
882.757	3135
882.883	3249
883.01	3237
883.136	3188
883.262	3112
883.388	3154
883.514	3363
883.64	3367
883.766	3359
883.892	3211
884.018	3218
884.143	3462
884.269	3568
884.395	3260
884.52	3192
884.646	3184
884.772	3173
884.897	3123
885.023	3245
885.148	3351
885.274	3454
885.399	3431
885.524	3302
885.65	3279
885.775	3302
885.9	3294
886.025	3481
886.15	3397
886.275	3378
886.4	3298
886.525	3351
886.65	3332
886.775	3298
886.9	3504
887.025	3694
887.149	3454
887.274	3310
887.399	3192
887.523	3207
887.648	3180
887.773	3214
887.897	3382
888.021	3447
888.146	3317
888.27	3454
888.395	3561
888.519	3466
888.643	3439
888.767	3511
888.891	3332
889.015	3275
889.139	3329
889.263	3287
889.387	3462
889.511	3485
889.635	3454
889.759	3313
889.883	3329
890.006	3420
890.13	3515
890.254	3306
890.377	3389
890.501	3241
890.624	3195
890.748	3279
890.871	3203
890.995	3169
891.118	3047
891.241	3245
891.364	3241
891.488	3348
891.611	3176
891.734	3268
891.857	3294
891.98	3249
892.103	3370
892.226	3351
892.349	3237
892.471	3180
892.594	3260
892.717	3310
892.839	3298
892.962	3321
893.085	3378
893.207	3332
893.33	3207
893.452	3279
893.575	3374
893.697	3298
893.819	3477
893.941	3519
894.064	3469
894.186	3317
894.308	3302
894.43	3439
894.552	3553
894.674	3515
894.796	3302
894.918	3340
895.04	3344
895.161	3443
895.283	3435
895.405	3310
895.526	3405
895.648	3462
895.769	3447
895.891	3469
896.012	3504
896.134	3526
896.255	3431
896.376	3416
896.498	3424
896.619	3466
896.74	3386
896.861	3469
896.982	3705
897.103	3854
897.224	3614
897.345	3549
897.466	3428
897.587	3492
897.708	3652
897.828	3603
897.949	3443
898.07	3336
898.19	3435
898.311	3584
898.431	3485
898.552	3469
898.672	3595
898.792	3618
898.913	3599
899.033	3481
899.153	3317
899.273	3268
899.393	3321
899.513	3329
899.633	3351
899.753	3332
899.873	3302
899.993	3424
900.113	3310
900.232	3416
900.352	3367
900.472	3313
900.591	3222
900.711	3336
900.83	3272
900.95	3393
901.069	3538
901.189	3329
901.308	3192
901.427	3169
901.546	3176
901.665	3298
901.784	3340
901.904	3222
902.023	3165
902.141	3047
902.26	3032
902.379	3184
902.498	3100
902.617	3055
902.735	3214
902.854	3260
902.973	3233
903.091	3047
903.21	3108
903.328	3165
903.446	3131
903.565	3104
903.683	3253
903.801	3157
903.919	3279
904.038	3313
904.156	3154
904.274	3298
904.392	3306
904.51	3310
904.627	3306
904.745	3477
904.863	3519
904.981	3272
905.098	3176
905.216	3253
905.334	3321
905.451	3298
905.569	3332
905.686	3431
905.803	3473
905.921	3348
906.038	3431
906.155	3355
906.272	3291
906.389	3325
906.506	3256
906.623	3287
906.74	3306
906.857	3188
906.974	3287
907.091	3443
907.208	3553
907.324	3511
907.441	3359
907.557	3233
907.674	3253
907.79	3233
907.907	3298
908.023	3416
908.139	3389
908.256	3317
908.372	3412
908.488	3409
908.604	3287
908.72	3260
908.836	3313
908.952	3306
909.068	3397
909.184	3515
909.3	3420
909.415	3515
909.531	3481
909.647	3306
909.762	3298
909.878	3291
909.993	3367
910.108	3386
910.224	3340
910.339	3409
910.454	3310
910.57	3325
910.685	3253
910.8	3576
910.915	3557
911.03	3447
911.145	3298
911.259	3294
911.374	3294
911.489	3245
911.604	3253
911.718	3146
911.833	3176
911.947	3043
912.062	3047
912.176	3176
912.291	3199
912.405	3226
912.519	3420
912.633	3481
912.748	3329
912.862	3325
912.976	3233
913.09	3089
913.204	3173
913.318	3218
913.431	3355
913.545	3355
913.659	3405
913.772	3317
913.886	3195
914	3245
914.113	3393
914.226	3492
914.34	3405
914.453	3211
914.566	3428
914.68	3279
914.793	3329
914.906	3131
915.019	3138
915.132	3100
915.245	3180
915.358	3249
915.47	3245
915.583	3268
915.696	3306
915.809	3435
915.921	3420
916.034	3260
916.146	3260
916.259	3264
916.371	3401
916.483	3382
916.595	3268
916.708	3332
916.82	3325
916.932	3340
917.044	3401
917.156	3405
917.268	3256
917.38	3310
917.491	3325
917.603	3359
917.715	3458
917.826	3462
917.938	3386
918.049	3340
918.161	3416
918.272	3580
918.384	3614
918.495	3492
918.606	3389
918.717	3317
918.828	3363
918.939	3428
919.05	3340
919.161	3370
919.272	3218
919.383	3317
919.494	3538
919.604	3686
919.715	3523
919.826	3412
919.936	3481
920.047	3580
920.157	3580
920.267	3793
920.378	3614
920.488	3610
920.598	3808
920.708	3953
920.818	3854
920.928	3823
921.038	4013
921.148	3972
921.258	3743
921.368	3629
921.477	3633
921.587	3557
921.697	3469
921.806	3633
921.916	3507
922.025	3409
922.134	3363
922.244	3321
922.353	3409
922.462	3310
922.571	3222
922.68	3135
922.789	3066
922.898	3150
923.007	3119
923.116	3188
923.224	3199
923.333	3222
923.442	3138
923.55	3123
923.659	3173
923.767	3249
923.876	3138
923.984	3264
924.092	3089
924.201	3203
924.309	3222
924.417	3272
924.525	3195
924.633	3275
924.741	4025
924.849	3062
924.956	3256
925.064	3119
925.172	3039
925.279	3112
925.387	3233
925.494	3207
925.602	3397
925.709	3386
925.816	3199
925.924	3275
926.031	3409
926.138	3325
926.245	3374
926.352	3256
926.459	3405
926.566	3526
926.673	3332
926.779	3264
926.886	3233
926.993	3127
927.099	3165
927.206	3119
927.312	3116
927.419	3241
927.525	3222
927.631	3310
927.737	3135
927.843	3108
927.95	3051
928.056	3154
928.162	3176
928.267	3226
928.373	3766
928.479	3329
928.585	3077
928.69	3233
928.796	3291
928.901	3192
929.007	3047
929.112	3188
929.218	3199
929.323	3176
929.428	3184
929.533	3325
929.638	3123
929.743	3165
929.848	3260
929.953	3161
930.058	3184
930.163	3020
930.267	3062
930.372	3169
930.477	3039
930.581	3291
930.685	3199
930.79	3036
930.894	3142
930.998	3100
931.103	3264
931.207	2918
931.311	2975
931.415	2925
931.519	2785
931.623	2845
