Data from test_V78500241_2004.txt Node
Date: Fri Mar 25 16:29:05 CST 2022
User: usil
Spectrometer: V785-0024
Trigger mode: 0
Integration Time (sec): 4.000000E-1
Scans to average: 1
Nonlinearity correction enabled: false
Boxcar width: 0
Storing dark spectrum: false
XAxis mode: Wavelengths
Number of Pixels in Spectrum: 1024
>>>>>Begin Spectral Data<<<<<
801.071	2887
801.214	2956
801.356	2861
801.499	2910
801.641	2895
801.783	2902
801.926	3051
802.068	2960
802.211	2937
802.353	3013
802.496	2922
802.638	3001
802.78	3043
802.923	3062
803.065	2990
803.208	2849
803.35	2929
803.492	2910
803.635	2960
803.777	2746
803.919	2842
804.061	3161
804.204	2906
804.346	2918
804.488	2857
804.63	3009
804.773	2872
804.915	2910
805.057	3100
805.199	2956
805.341	2967
805.483	3039
805.626	2986
805.768	2975
805.91	3085
806.052	3085
806.194	3070
806.336	3230
806.478	3043
806.62	2937
806.762	2960
806.904	3036
807.046	3184
807.188	2956
807.33	2910
807.472	3028
807.614	2899
807.756	3009
807.898	2918
808.04	2902
808.182	2948
808.324	2933
808.465	2872
808.607	2880
808.749	2777
808.891	2857
809.033	2975
809.174	2975
809.316	2922
809.458	2895
809.6	2758
809.741	2724
809.883	2785
810.025	2838
810.166	2853
810.308	2842
810.45	2872
810.591	2762
810.733	2743
810.875	2792
811.016	2773
811.158	2758
811.299	2830
811.441	2876
811.582	2944
811.724	2845
811.865	2834
812.007	2895
812.148	2872
812.29	2811
812.431	2895
812.573	2952
812.714	2952
812.855	3066
812.997	3047
813.138	3135
813.279	3028
813.421	2956
813.562	2944
813.703	2891
813.845	2876
813.986	2766
814.127	2750
814.268	2826
814.41	2842
814.551	2838
814.692	2876
814.833	2849
814.974	2918
815.115	2956
815.256	2834
815.397	2777
815.539	2887
815.68	2781
815.821	2773
815.962	2933
816.103	2914
816.244	2861
816.385	2857
816.526	2960
816.666	2887
816.807	2754
816.948	2883
817.089	2914
817.23	2864
817.371	2773
817.512	2773
817.653	2838
817.793	2826
817.934	2880
818.075	2982
818.216	2963
818.356	2982
818.497	2902
818.638	2769
818.778	2823
818.919	2815
819.06	2750
819.2	2864
819.341	2800
819.481	2804
819.622	2910
819.762	3058
819.903	3089
820.043	2906
820.184	2895
820.324	2918
820.465	3036
820.605	3013
820.746	2994
820.886	2941
821.026	3089
821.167	3135
821.307	3233
821.447	3241
821.588	3222
821.728	3207
821.868	3165
822.008	3058
822.149	3176
822.289	3211
822.429	3085
822.569	3074
822.709	3165
822.849	2998
822.99	3058
823.13	3184
823.27	3233
823.41	3089
823.55	3135
823.69	3173
823.83	3211
823.97	3089
824.11	2982
824.25	3013
824.389	3032
824.529	3097
824.669	3020
824.809	3169
824.949	3237
825.089	3184
825.228	3142
825.368	2979
825.508	2963
825.648	2948
825.787	2986
825.927	3005
826.067	2982
826.206	2941
826.346	3009
826.485	3070
826.625	3066
826.765	3222
826.904	3195
827.044	2948
827.183	2914
827.323	2864
827.462	2967
827.601	2910
827.741	2933
827.88	2960
828.02	2842
828.159	2986
828.298	3009
828.437	3123
828.577	3058
828.716	3233
828.855	3104
828.994	2902
829.134	2895
829.273	2906
829.412	2853
829.551	2872
829.69	2880
829.829	2990
829.968	3081
830.107	3047
830.246	3001
830.385	2906
830.524	2853
830.663	2800
830.802	2712
830.941	2632
831.08	2617
831.219	2785
831.357	2758
831.496	2918
831.635	2739
831.774	2644
831.913	2651
832.051	2533
832.19	2571
832.329	2701
832.467	2549
832.606	2461
832.744	2583
832.883	2587
833.022	2571
833.16	2659
833.299	2670
833.437	2678
833.576	2686
833.714	2697
833.852	2735
833.991	2701
834.129	2823
834.267	2811
834.406	2785
834.544	2876
834.682	2830
834.821	2887
834.959	3062
835.097	2868
835.235	3047
835.373	2998
835.511	3028
835.65	2952
835.788	2941
835.926	2868
836.064	2796
836.202	2834
836.34	3081
836.478	3119
836.615	3043
836.753	3100
836.891	3188
837.029	3131
837.167	3112
837.305	3077
837.443	3074
837.58	2956
837.718	3119
837.856	3062
837.993	3051
838.131	3066
838.269	3116
838.406	3100
838.544	3093
838.681	2933
838.819	2887
838.956	2804
839.094	2830
839.231	2883
839.369	3024
839.506	3374
839.643	3173
839.781	2982
839.918	2963
840.055	3043
840.193	3093
840.33	3047
840.467	3081
840.604	3146
840.742	3397
840.879	3070
841.016	3066
841.153	3104
841.29	3306
841.427	3272
841.564	3268
841.701	3336
841.838	3245
841.975	3184
842.112	3192
842.249	3077
842.385	3032
842.522	3256
842.659	3081
842.796	3104
842.933	3093
843.069	3074
843.206	3043
843.343	3195
843.479	3085
843.616	3108
843.752	2868
843.889	2853
844.025	3036
844.162	2872
844.298	3062
844.435	2948
844.571	2872
844.708	3062
844.844	3176
844.98	3245
845.117	3173
845.253	3036
845.389	2990
845.525	3077
845.661	3039
845.798	3009
845.934	3135
846.07	3047
846.206	3214
846.342	3279
846.478	3226
846.614	3116
846.75	3070
846.886	3028
847.022	3237
847.158	3119
847.294	3173
847.429	3226
847.565	3180
847.701	3481
847.837	3077
847.972	3013
848.108	3150
848.244	3100
848.379	2963
848.515	2952
848.65	2902
848.786	2933
848.921	2990
849.057	3093
849.192	3119
849.328	3081
849.463	3116
849.598	3043
849.734	3009
849.869	2986
850.004	2929
850.14	2948
850.275	2933
850.41	2864
850.545	2872
850.68	2929
850.815	2910
850.95	2967
851.085	3188
851.22	3112
851.355	3028
851.49	2952
851.625	2944
851.76	2986
851.895	2967
852.03	2937
852.165	3009
852.299	3131
852.434	3211
852.569	3112
852.703	3230
852.838	3211
852.973	3325
853.107	3344
853.242	3169
853.376	3081
853.511	2979
853.645	3055
853.78	3237
853.914	3108
854.048	3108
854.183	3058
854.317	3131
854.451	3340
854.585	3119
854.72	3047
854.854	3176
854.988	3062
855.122	3077
855.256	3001
855.39	3097
855.524	3203
855.658	3211
855.792	3142
855.926	3188
856.06	3203
856.194	3272
856.327	3176
856.461	3085
856.595	3043
856.729	3066
856.862	3203
856.996	3154
857.13	3169
857.263	3188
857.397	3275
857.53	3100
857.664	3222
857.797	3256
857.931	3207
858.064	3116
858.197	3203
858.331	3138
858.464	3066
858.597	3024
858.731	3127
858.864	3154
858.997	3085
859.13	3131
859.263	3131
859.396	3169
859.529	3051
859.662	3058
859.795	3024
859.928	3100
860.061	3226
860.194	3253
860.327	3116
860.46	3077
860.592	3226
860.725	3287
860.858	3237
860.99	3119
861.123	3070
861.256	3058
861.388	3116
861.521	3884
861.653	3009
861.786	2948
861.918	2990
862.05	3032
862.183	3055
862.315	3157
862.447	3169
862.58	3100
862.712	2929
862.844	2853
862.976	2975
863.108	3020
863.24	3313
863.372	2868
863.504	2998
863.636	2918
863.768	3005
863.9	2975
864.032	2914
864.164	2979
864.296	2986
864.428	3062
864.559	3089
864.691	3085
864.823	3058
864.954	3055
865.086	3047
865.217	2979
865.349	2929
865.48	2975
865.612	2982
865.743	3138
865.875	2967
866.006	2899
866.137	3001
866.269	2944
866.4	2956
866.531	2906
866.662	2895
866.793	2872
866.924	2933
867.055	2948
867.186	2906
867.317	2910
867.448	2838
867.579	2857
867.71	2842
867.841	2815
867.972	2883
868.103	2899
868.233	2857
868.364	2887
868.495	2902
868.625	3062
868.756	3142
868.886	2960
869.017	2994
869.147	3165
869.278	3150
869.408	3032
869.539	3005
869.669	3062
869.799	3017
869.929	3157
870.06	3104
870.19	3351
870.32	3253
870.45	3287
870.58	3355
870.71	3469
870.84	3431
870.97	3275
871.1	3230
871.23	3469
871.36	3435
871.489	3336
871.619	3393
871.749	3409
871.879	3435
872.008	3526
872.138	3340
872.267	3287
872.397	3138
872.526	3097
872.656	2990
872.785	3097
872.915	3184
873.044	3279
873.173	3237
873.303	3237
873.432	3264
873.561	3253
873.69	3146
873.819	3104
873.948	3184
874.077	3108
874.206	3020
874.335	3070
874.464	3195
874.593	3340
874.722	3268
874.851	3359
874.979	3348
875.108	3336
875.237	3203
875.365	3173
875.494	3184
875.623	3241
875.751	3085
875.88	3093
876.008	3195
876.136	3222
876.265	3351
876.393	3504
876.521	3447
876.65	3405
876.778	3302
876.906	3256
877.034	3173
877.162	3264
877.29	3138
877.418	3264
877.546	3207
877.674	3241
877.802	3218
877.93	3233
878.058	3127
878.185	3089
878.313	3222
878.441	3150
878.568	3043
878.696	3097
878.824	3245
878.951	3298
879.079	3473
879.206	3622
879.333	3401
879.461	3332
879.588	3329
879.715	3443
879.842	3587
879.97	3351
880.097	3176
880.224	3112
880.351	3199
880.478	3192
880.605	3195
880.732	3176
880.859	3485
880.986	3310
881.112	3336
881.239	3192
881.366	3093
881.493	3036
881.619	3017
881.746	3066
881.872	3074
881.999	3081
882.125	3131
882.252	3249
882.378	3283
882.505	3420
882.631	3272
882.757	3161
882.883	3211
883.01	3188
883.136	3142
883.262	3085
883.388	3108
883.514	3306
883.64	3382
883.766	3272
883.892	3199
884.018	3207
884.143	3424
884.269	3500
884.395	3180
884.52	3154
884.646	3142
884.772	3135
884.897	3081
885.023	3203
885.148	3313
885.274	3420
885.399	3351
885.524	3272
885.65	3226
885.775	3348
885.9	3233
886.025	3447
886.15	3370
886.275	3291
886.4	3260
886.525	3291
886.65	3241
886.775	3260
886.9	3530
887.025	3606
887.149	3378
887.274	3298
887.399	3188
887.523	3195
887.648	3211
887.773	3165
887.897	3367
888.021	3351
888.146	3298
888.27	3431
888.395	3523
888.519	3428
888.643	3428
888.767	3416
888.891	3321
889.015	3226
889.139	3264
889.263	3260
889.387	3393
889.511	3500
889.635	3450
889.759	3294
889.883	3245
890.006	3389
890.13	3462
890.254	3294
890.377	3344
890.501	3203
890.624	3195
890.748	3279
890.871	3180
890.995	3108
891.118	3051
891.241	3199
891.364	3173
891.488	3336
891.611	3142
891.734	3226
891.857	3275
891.98	3203
892.103	3313
892.226	3275
892.349	3214
892.471	3100
892.594	3275
892.717	3275
892.839	3260
892.962	3275
893.085	3344
893.207	3291
893.33	3154
893.452	3249
893.575	3321
893.697	3264
893.819	3507
893.941	3458
894.064	3397
894.186	3268
894.308	3237
894.43	3439
894.552	3534
894.674	3454
894.796	3245
894.918	3279
895.04	3294
895.161	3378
895.283	3382
895.405	3294
895.526	3382
895.648	3443
895.769	3389
895.891	3431
896.012	3447
896.134	3443
896.255	3424
896.376	3397
896.498	3344
896.619	3405
896.74	3351
896.861	3386
896.982	3663
897.103	3861
897.224	3606
897.345	3507
897.466	3416
897.587	3454
897.708	3584
897.828	3545
897.949	3397
898.07	3302
898.19	3374
898.311	3603
898.431	3454
898.552	3523
898.672	3587
898.792	3576
898.913	3492
899.033	3405
899.153	3256
899.273	3256
899.393	3237
899.513	3294
899.633	3313
899.753	3351
899.873	3313
899.993	3359
900.113	3317
900.232	3416
900.352	3321
900.472	3279
900.591	3207
900.711	3302
900.83	3218
900.95	3389
901.069	3477
901.189	3325
901.308	3188
901.427	3100
901.546	3192
901.665	3272
901.784	3275
901.904	3226
902.023	3127
902.141	3039
902.26	2986
902.379	3165
902.498	3066
902.617	3077
902.735	3199
902.854	3249
902.973	3180
903.091	3036
903.21	3055
903.328	3142
903.446	3108
903.565	3104
903.683	3199
903.801	3146
903.919	3275
904.038	3306
904.156	3142
904.274	3268
904.392	3253
904.51	3283
904.627	3367
904.745	3420
904.863	3515
904.981	3260
905.098	3195
905.216	3222
905.334	3306
905.451	3298
905.569	3344
905.686	3412
905.803	3454
905.921	3291
906.038	3409
906.155	3332
906.272	3291
906.389	3344
906.506	3237
906.623	3249
906.74	3283
906.857	3184
906.974	3245
907.091	3443
907.208	3553
907.324	3458
907.441	3382
907.557	3226
907.674	3245
907.79	3214
907.907	3302
908.023	3359
908.139	3386
908.256	3317
908.372	3344
908.488	3317
908.604	3233
908.72	3245
908.836	3291
908.952	3275
909.068	3329
909.184	3492
909.3	3393
909.415	3485
909.531	3469
909.647	3256
909.762	3268
909.878	3241
909.993	3348
910.108	3325
910.224	3355
910.339	3378
910.454	3351
910.57	3291
910.685	3188
910.8	3587
910.915	3545
911.03	3450
911.145	3249
911.259	3291
911.374	3302
911.489	3264
911.604	3233
911.718	3116
911.833	3150
911.947	3036
912.062	2944
912.176	3150
912.291	3195
912.405	3211
912.519	3397
912.633	3511
912.748	3344
912.862	3291
912.976	3157
913.09	3055
913.204	3123
913.318	3184
913.431	3325
913.545	3351
913.659	3420
913.772	3325
913.886	3233
914	3188
914.113	3329
914.226	3401
914.34	3405
914.453	3226
914.566	3389
914.68	3294
914.793	3306
914.906	3173
915.019	3116
915.132	3074
915.245	3165
915.358	3211
915.47	3195
915.583	3256
915.696	3287
915.809	3386
915.921	3428
916.034	3283
916.146	3272
916.259	3180
916.371	3374
916.483	3393
916.595	3264
916.708	3329
916.82	3348
916.932	3325
917.044	3332
917.156	3363
917.268	3264
917.38	3298
917.491	3306
917.603	3389
917.715	3458
917.826	3462
917.938	3416
918.049	3256
918.161	3420
918.272	3580
918.384	3587
918.495	3519
918.606	3321
918.717	3272
918.828	3367
918.939	3378
919.05	3283
919.161	3382
919.272	3192
919.383	3287
919.494	3500
919.604	3701
919.715	3466
919.826	3393
919.936	3466
920.047	3564
920.157	3542
920.267	3800
920.378	3599
920.488	3599
920.598	3804
920.708	3930
920.818	3823
920.928	3808
921.038	4017
921.148	3987
921.258	3660
921.368	3633
921.477	3538
921.587	3549
921.697	3447
921.806	3610
921.916	3526
922.025	3367
922.134	3332
922.244	3260
922.353	3462
922.462	3230
922.571	3233
922.68	3089
922.789	3081
922.898	3161
923.007	3123
923.116	3203
923.224	3169
923.333	3180
923.442	3116
923.55	3112
923.659	3142
923.767	3233
923.876	3123
923.984	3207
924.092	3138
924.201	3203
924.309	3233
924.417	3275
924.525	3180
924.633	3249
924.741	4169
924.849	3077
924.956	3226
925.064	3123
925.172	3051
925.279	3100
925.387	3207
925.494	3195
925.602	3397
925.709	3317
925.816	3199
925.924	3332
926.031	3351
926.138	3332
926.245	3374
926.352	3241
926.459	3412
926.566	3485
926.673	3294
926.779	3237
926.886	3207
926.993	3154
927.099	3108
927.206	3116
927.312	3108
927.419	3241
927.525	3211
927.631	3207
927.737	3142
927.843	3135
927.95	3058
928.056	3146
928.162	3176
928.267	3279
928.373	3835
928.479	3344
928.585	3081
928.69	3214
928.796	3283
928.901	3180
929.007	3055
929.112	3195
929.218	3180
929.323	3161
929.428	3146
929.533	3268
929.638	3089
929.743	3165
929.848	3230
929.953	3218
930.058	3173
930.163	2982
930.267	3051
930.372	3180
930.477	3051
930.581	3260
930.685	3173
930.79	3039
930.894	3104
930.998	3135
931.103	3249
931.207	2982
931.311	2887
931.415	2922
931.519	2739
931.623	2800
