Data from test_V78500241_1718.txt Node
Date: Fri Mar 25 16:27:06 CST 2022
User: usil
Spectrometer: V785-0024
Trigger mode: 0
Integration Time (sec): 4.000000E-1
Scans to average: 1
Nonlinearity correction enabled: false
Boxcar width: 0
Storing dark spectrum: false
XAxis mode: Wavelengths
Number of Pixels in Spectrum: 1024
>>>>>Begin Spectral Data<<<<<
801.071	2895
801.214	2956
801.356	2864
801.499	2880
801.641	2845
801.783	2941
801.926	3097
802.068	2963
802.211	2990
802.353	3047
802.496	2956
802.638	2990
802.78	3028
802.923	3093
803.065	3001
803.208	2868
803.35	2944
803.492	2929
803.635	2910
803.777	2773
803.919	2887
804.061	3230
804.204	2933
804.346	2902
804.488	2880
804.63	2979
804.773	2895
804.915	2922
805.057	3055
805.199	2895
805.341	2979
805.483	3028
805.626	3020
805.768	2925
805.91	3104
806.052	3157
806.194	3036
806.336	3249
806.478	3001
806.62	2960
806.762	2994
806.904	3020
807.046	3142
807.188	2975
807.33	2906
807.472	2967
807.614	2922
807.756	2971
807.898	2937
808.04	2876
808.182	2998
808.324	2944
808.465	2853
808.607	2914
808.749	2777
808.891	2834
809.033	2982
809.174	2998
809.316	2887
809.458	2887
809.6	2785
809.741	2743
809.883	2758
810.025	2819
810.166	2807
810.308	2804
810.45	2823
810.591	2777
810.733	2781
810.875	2788
811.016	2758
811.158	2754
811.299	2823
811.441	2929
811.582	2838
811.724	2815
811.865	2804
812.007	2906
812.148	2872
812.29	2842
812.431	2899
812.573	2948
812.714	2937
812.855	2998
812.997	3017
813.138	3081
813.279	2982
813.421	2941
813.562	2937
813.703	2861
813.845	2876
813.986	2746
814.127	2682
814.268	2811
814.41	2857
814.551	2773
814.692	2876
814.833	2807
814.974	2887
815.115	2899
815.256	2838
815.397	2777
815.539	2830
815.68	2735
815.821	2773
815.962	2914
816.103	2918
816.244	2845
816.385	2845
816.526	2941
816.666	2925
816.807	2708
816.948	2910
817.089	2906
817.23	2845
817.371	2766
817.512	2800
817.653	2815
817.793	2815
817.934	2861
818.075	2986
818.216	2956
818.356	3009
818.497	2857
818.638	2792
818.778	2838
818.919	2849
819.06	2766
819.2	2902
819.341	2781
819.481	2785
819.622	2910
819.762	3104
819.903	3017
820.043	2941
820.184	2899
820.324	2895
820.465	3036
820.605	3013
820.746	3020
820.886	2956
821.026	3108
821.167	3154
821.307	3249
821.447	3313
821.588	3233
821.728	3233
821.868	3184
822.008	3058
822.149	3180
822.289	3256
822.429	3104
822.569	3112
822.709	3214
822.849	3055
822.99	3070
823.13	3207
823.27	3245
823.41	3173
823.55	3188
823.69	3207
823.83	3207
823.97	3112
824.11	3013
824.25	3043
824.389	3097
824.529	3135
824.669	3116
824.809	3226
824.949	3291
825.089	3256
825.228	3218
825.368	3036
825.508	3001
825.648	3005
825.787	3028
825.927	3062
826.067	3009
826.206	2952
826.346	3089
826.485	3131
826.625	3108
826.765	3313
826.904	3245
827.044	3020
827.183	2941
827.323	2887
827.462	3058
827.601	2941
827.741	2944
827.88	2982
828.02	2910
828.159	3017
828.298	3093
828.437	3146
828.577	3089
828.716	3287
828.855	3100
828.994	2929
829.134	2937
829.273	2963
829.412	2883
829.551	2895
829.69	2918
829.829	3005
829.968	3173
830.107	3062
830.246	3085
830.385	2948
830.524	2899
830.663	2868
830.802	2796
830.941	2682
831.08	2689
831.219	2819
831.357	2788
831.496	2975
831.635	2731
831.774	2655
831.913	2708
832.051	2594
832.19	2629
832.329	2754
832.467	2530
832.606	2526
832.744	2625
832.883	2610
833.022	2663
833.16	2674
833.299	2689
833.437	2720
833.576	2739
833.714	2754
833.852	2750
833.991	2796
834.129	2914
834.267	2876
834.406	2849
834.544	2883
834.682	2929
834.821	2906
834.959	3108
835.097	2944
835.235	3093
835.373	3013
835.511	3058
835.65	2994
835.788	2971
835.926	2864
836.064	2842
836.202	2864
836.34	3119
836.478	3165
836.615	3104
836.753	3184
836.891	3226
837.029	3169
837.167	3135
837.305	3127
837.443	3081
837.58	3001
837.718	3127
837.856	3081
837.993	3066
838.131	3173
838.269	3135
838.406	3127
838.544	3100
838.681	2990
838.819	2914
838.956	2861
839.094	2861
839.231	2944
839.369	3066
839.506	3447
839.643	3230
839.781	3036
839.918	2960
840.055	3055
840.193	3093
840.33	3100
840.467	3104
840.604	3165
840.742	3435
840.879	3070
841.016	3051
841.153	3165
841.29	3367
841.427	3374
841.564	3279
841.701	3374
841.838	3230
841.975	3199
842.112	3237
842.249	3123
842.385	3093
842.522	3325
842.659	3146
842.796	3089
842.933	3154
843.069	3036
843.206	3077
843.343	3211
843.479	3150
843.616	3157
843.752	2929
843.889	2910
844.025	3070
844.162	2899
844.298	3081
844.435	2990
844.571	2944
844.708	3074
844.844	3237
844.98	3253
845.117	3192
845.253	3070
845.389	3062
845.525	3127
845.661	3146
845.798	3066
845.934	3146
846.07	3047
846.206	3260
846.342	3351
846.478	3256
846.614	3142
846.75	3047
846.886	3047
847.022	3264
847.158	3195
847.294	3222
847.429	3275
847.565	3249
847.701	3481
847.837	3066
847.972	3024
848.108	3188
848.244	3154
848.379	3036
848.515	3001
848.65	2956
848.786	2982
848.921	3051
849.057	3081
849.192	3173
849.328	3077
849.463	3112
849.598	3119
849.734	3055
849.869	3017
850.004	2944
850.14	3009
850.275	2925
850.41	2834
850.545	2899
850.68	2967
850.815	2963
850.95	3028
851.085	3253
851.22	3127
851.355	3089
851.49	2982
851.625	3013
851.76	3009
851.895	2918
852.03	2922
852.165	3062
852.299	3123
852.434	3199
852.569	3165
852.703	3173
852.838	3306
852.973	3355
853.107	3382
853.242	3157
853.376	3100
853.511	3024
853.645	3104
853.78	3249
853.914	3176
854.048	3135
854.183	3116
854.317	3165
854.451	3340
854.585	3157
854.72	3123
854.854	3230
854.988	3058
855.122	3077
855.256	3017
855.39	3169
855.524	3245
855.658	3188
855.792	3203
855.926	3195
856.06	3256
856.194	3306
856.327	3180
856.461	3051
856.595	3119
856.729	3100
856.862	3203
856.996	3165
857.13	3233
857.263	3268
857.397	3325
857.53	3123
857.664	3207
857.797	3260
857.931	3256
858.064	3199
858.197	3230
858.331	3214
858.464	3104
858.597	3070
858.731	3112
858.864	3157
858.997	3089
859.13	3161
859.263	3154
859.396	3245
859.529	3116
859.662	3116
859.795	3085
859.928	3154
860.061	3283
860.194	3310
860.327	3169
860.46	3119
860.592	3275
860.725	3245
860.858	3249
860.99	3093
861.123	3093
861.256	3093
861.388	3150
861.521	3979
861.653	2994
861.786	2963
861.918	3009
862.05	3066
862.183	3100
862.315	3176
862.447	3233
862.58	3127
862.712	2963
862.844	2891
862.976	3024
863.108	3017
863.24	3431
863.372	2880
863.504	2979
863.636	2979
863.768	3097
863.9	2979
864.032	2918
864.164	2948
864.296	3055
864.428	3112
864.559	3100
864.691	3097
864.823	3070
864.954	3047
865.086	3024
865.217	3036
865.349	2956
865.48	3028
865.612	3039
865.743	3195
865.875	3024
866.006	2922
866.137	3001
866.269	2929
866.4	2963
866.531	2952
866.662	2914
866.793	2918
866.924	2925
867.055	2998
867.186	2952
867.317	2861
867.448	2872
867.579	2895
867.71	2872
867.841	2807
867.972	2891
868.103	2918
868.233	2941
868.364	2922
868.495	2933
868.625	3127
868.756	3176
868.886	2990
869.017	3039
869.147	3176
869.278	3157
869.408	3036
869.539	3036
869.669	3123
869.799	3028
869.929	3154
870.06	3127
870.19	3336
870.32	3279
870.45	3298
870.58	3393
870.71	3458
870.84	3488
870.97	3291
871.1	3256
871.23	3466
871.36	3454
871.489	3374
871.619	3401
871.749	3435
871.879	3435
872.008	3469
872.138	3393
872.267	3298
872.397	3176
872.526	3108
872.656	3036
872.785	3074
872.915	3214
873.044	3310
873.173	3241
873.303	3283
873.432	3272
873.561	3226
873.69	3157
873.819	3165
873.948	3203
874.077	3123
874.206	3051
874.335	3131
874.464	3230
874.593	3332
874.722	3287
874.851	3393
874.979	3351
875.108	3378
875.237	3264
875.365	3165
875.494	3165
875.623	3253
875.751	3135
875.88	3100
876.008	3192
876.136	3211
876.265	3382
876.393	3538
876.521	3462
876.65	3420
876.778	3355
876.906	3230
877.034	3237
877.162	3218
877.29	3218
877.418	3245
877.546	3272
877.674	3249
877.802	3218
877.93	3241
878.058	3157
878.185	3112
878.313	3214
878.441	3241
878.568	3085
878.696	3161
878.824	3218
878.951	3351
879.079	3469
879.206	3576
879.333	3466
879.461	3355
879.588	3397
879.715	3469
879.842	3618
879.97	3386
880.097	3203
880.224	3169
880.351	3192
880.478	3237
880.605	3195
880.732	3203
880.859	3473
880.986	3329
881.112	3302
881.239	3211
881.366	3127
881.493	3039
881.619	3017
881.746	3127
881.872	3104
881.999	3112
882.125	3154
882.252	3245
882.378	3306
882.505	3496
882.631	3325
882.757	3226
882.883	3214
883.01	3241
883.136	3192
883.262	3108
883.388	3131
883.514	3294
883.64	3378
883.766	3317
883.892	3207
884.018	3275
884.143	3443
884.269	3561
884.395	3226
884.52	3188
884.646	3173
884.772	3169
884.897	3119
885.023	3192
885.148	3367
885.274	3443
885.399	3363
885.524	3355
885.65	3298
885.775	3291
885.9	3260
886.025	3492
886.15	3378
886.275	3348
886.4	3237
886.525	3272
886.65	3260
886.775	3264
886.9	3534
887.025	3660
887.149	3428
887.274	3279
887.399	3176
887.523	3192
887.648	3195
887.773	3211
887.897	3393
888.021	3378
888.146	3302
888.27	3431
888.395	3557
888.519	3424
888.643	3466
888.767	3473
888.891	3306
889.015	3294
889.139	3294
889.263	3253
889.387	3393
889.511	3515
889.635	3435
889.759	3325
889.883	3310
890.006	3386
890.13	3511
890.254	3287
890.377	3348
890.501	3241
890.624	3195
890.748	3317
890.871	3180
890.995	3127
891.118	3066
891.241	3222
891.364	3233
891.488	3313
891.611	3226
891.734	3249
891.857	3310
891.98	3253
892.103	3348
892.226	3279
892.349	3214
892.471	3157
892.594	3249
892.717	3283
892.839	3279
892.962	3260
893.085	3378
893.207	3287
893.33	3157
893.452	3169
893.575	3359
893.697	3306
893.819	3466
893.941	3481
894.064	3443
894.186	3253
894.308	3291
894.43	3481
894.552	3549
894.674	3485
894.796	3287
894.918	3287
895.04	3268
895.161	3447
895.283	3405
895.405	3336
895.526	3378
895.648	3431
895.769	3443
895.891	3439
896.012	3458
896.134	3477
896.255	3389
896.376	3393
896.498	3344
896.619	3428
896.74	3386
896.861	3405
896.982	3728
897.103	3876
897.224	3587
897.345	3511
897.466	3462
897.587	3557
897.708	3618
897.828	3530
897.949	3466
898.07	3298
898.19	3420
898.311	3614
898.431	3454
898.552	3530
898.672	3584
898.792	3603
898.913	3557
899.033	3374
899.153	3294
899.273	3195
899.393	3283
899.513	3272
899.633	3302
899.753	3355
899.873	3332
899.993	3367
900.113	3351
900.232	3389
900.352	3340
900.472	3283
900.591	3207
900.711	3260
900.83	3230
900.95	3397
901.069	3507
901.189	3374
901.308	3199
901.427	3135
901.546	3203
901.665	3272
901.784	3363
901.904	3195
902.023	3165
902.141	3036
902.26	2994
902.379	3146
902.498	3062
902.617	3100
902.735	3226
902.854	3256
902.973	3199
903.091	3062
903.21	3043
903.328	3180
903.446	3135
903.565	3097
903.683	3195
903.801	3108
903.919	3283
904.038	3313
904.156	3169
904.274	3283
904.392	3264
904.51	3306
904.627	3313
904.745	3424
904.863	3481
904.981	3260
905.098	3169
905.216	3249
905.334	3317
905.451	3291
905.569	3317
905.686	3428
905.803	3454
905.921	3310
906.038	3424
906.155	3382
906.272	3313
906.389	3294
906.506	3218
906.623	3268
906.74	3226
906.857	3173
906.974	3264
907.091	3450
907.208	3580
907.324	3466
907.441	3412
907.557	3188
907.674	3214
907.79	3237
907.907	3260
908.023	3412
908.139	3397
908.256	3287
908.372	3378
908.488	3329
908.604	3321
908.72	3264
908.836	3272
908.952	3302
909.068	3329
909.184	3469
909.3	3405
909.415	3523
909.531	3488
909.647	3264
909.762	3298
909.878	3275
909.993	3340
910.108	3329
910.224	3329
910.339	3424
910.454	3363
910.57	3264
910.685	3207
910.8	3606
910.915	3542
911.03	3443
911.145	3272
911.259	3268
911.374	3332
911.489	3230
911.604	3256
911.718	3097
911.833	3165
911.947	3043
912.062	3017
912.176	3142
912.291	3245
912.405	3207
912.519	3439
912.633	3447
912.748	3340
912.862	3302
912.976	3165
913.09	3077
913.204	3123
913.318	3173
913.431	3325
913.545	3336
913.659	3420
913.772	3306
913.886	3245
914	3180
914.113	3355
914.226	3431
914.34	3374
914.453	3249
914.566	3351
914.68	3332
914.793	3298
914.906	3169
915.019	3108
915.132	3077
915.245	3192
915.358	3203
915.47	3211
915.583	3253
915.696	3294
915.809	3363
915.921	3378
916.034	3256
916.146	3245
916.259	3214
916.371	3431
916.483	3332
916.595	3272
916.708	3298
916.82	3321
916.932	3359
917.044	3336
917.156	3355
917.268	3237
917.38	3317
917.491	3317
917.603	3386
917.715	3462
917.826	3485
917.938	3397
918.049	3287
918.161	3424
918.272	3580
918.384	3603
918.495	3504
918.606	3355
918.717	3264
918.828	3344
918.939	3378
919.05	3298
919.161	3355
919.272	3195
919.383	3306
919.494	3504
919.604	3663
919.715	3485
919.826	3424
919.936	3424
920.047	3614
920.157	3549
920.267	3778
920.378	3629
920.488	3576
920.598	3789
920.708	3915
920.818	3850
920.928	3823
921.038	4013
921.148	4021
921.258	3682
921.368	3656
921.477	3553
921.587	3530
921.697	3439
921.806	3641
921.916	3538
922.025	3374
922.134	3359
922.244	3370
922.353	3439
922.462	3298
922.571	3207
922.68	3077
922.789	3070
922.898	3154
923.007	3123
923.116	3188
923.224	3207
923.333	3176
923.442	3100
923.55	3116
923.659	3146
923.767	3211
923.876	3108
923.984	3230
924.092	3100
924.201	3203
924.309	3188
924.417	3249
924.525	3161
924.633	3237
924.741	4025
924.849	3039
924.956	3272
925.064	3116
925.172	3058
925.279	3104
925.387	3180
925.494	3203
925.602	3336
925.709	3355
925.816	3241
925.924	3283
926.031	3389
926.138	3332
926.245	3386
926.352	3264
926.459	3466
926.566	3485
926.673	3325
926.779	3230
926.886	3268
926.993	3138
927.099	3112
927.206	3097
927.312	3108
927.419	3218
927.525	3249
927.631	3249
927.737	3138
927.843	3123
927.95	2994
928.056	3173
928.162	3188
928.267	3249
928.373	3884
928.479	3302
928.585	3104
928.69	3192
928.796	3264
928.901	3142
929.007	3066
929.112	3199
929.218	3184
929.323	3180
929.428	3157
929.533	3332
929.638	3123
929.743	3173
929.848	3249
929.953	3207
930.058	3199
930.163	2990
930.267	3074
930.372	3192
930.477	3028
930.581	3310
930.685	3176
930.79	3081
930.894	3104
930.998	3062
931.103	3283
931.207	2967
931.311	2922
931.415	2906
931.519	2781
931.623	2815
