Data from test_V78500241_898.txt Node
Date: Fri Mar 25 16:21:25 CST 2022
User: usil
Spectrometer: V785-0024
Trigger mode: 0
Integration Time (sec): 4.000000E-1
Scans to average: 1
Nonlinearity correction enabled: false
Boxcar width: 0
Storing dark spectrum: false
XAxis mode: Wavelengths
Number of Pixels in Spectrum: 1024
>>>>>Begin Spectral Data<<<<<
801.071	2918
801.214	2971
801.356	2906
801.499	2952
801.641	2902
801.783	2967
801.926	3043
802.068	3017
802.211	3001
802.353	3081
802.496	2998
802.638	3017
802.78	3062
802.923	3097
803.065	2998
803.208	2899
803.35	2906
803.492	2929
803.635	2918
803.777	2731
803.919	2880
804.061	3226
804.204	2933
804.346	2948
804.488	2830
804.63	3001
804.773	2910
804.915	2922
805.057	3104
805.199	2944
805.341	2979
805.483	3032
805.626	3009
805.768	2963
805.91	3161
806.052	3135
806.194	3062
806.336	3287
806.478	3017
806.62	2979
806.762	2944
806.904	3055
807.046	3169
807.188	2990
807.33	2899
807.472	3032
807.614	2925
807.756	3028
807.898	2933
808.04	2922
808.182	2990
808.324	2963
808.465	2902
808.607	2887
808.749	2853
808.891	2868
809.033	3001
809.174	2982
809.316	2922
809.458	2922
809.6	2804
809.741	2777
809.883	2754
810.025	2861
810.166	2876
810.308	2838
810.45	2883
810.591	2804
810.733	2785
810.875	2834
811.016	2796
811.158	2769
811.299	2838
811.441	2933
811.582	2910
811.724	2845
811.865	2853
812.007	2918
812.148	2914
812.29	2861
812.431	2895
812.573	2975
812.714	2948
812.855	3066
812.997	3047
813.138	3165
813.279	3047
813.421	3001
813.562	2990
813.703	2910
813.845	2918
813.986	2796
814.127	2720
814.268	2792
814.41	2857
814.551	2807
814.692	2906
814.833	2834
814.974	2933
815.115	2948
815.256	2849
815.397	2830
815.539	2906
815.68	2777
815.821	2826
815.962	2952
816.103	2925
816.244	2906
816.385	2883
816.526	2963
816.666	2937
816.807	2743
816.948	2868
817.089	2925
817.23	2853
817.371	2785
817.512	2788
817.653	2834
817.793	2868
817.934	2902
818.075	2971
818.216	2990
818.356	3047
818.497	2876
818.638	2807
818.778	2834
818.919	2792
819.06	2750
819.2	2880
819.341	2792
819.481	2807
819.622	2883
819.762	3116
819.903	3043
820.043	2971
820.184	2887
820.324	2902
820.465	3020
820.605	3017
820.746	3005
820.886	2918
821.026	3104
821.167	3157
821.307	3268
821.447	3275
821.588	3272
821.728	3203
821.868	3180
822.008	3108
822.149	3195
822.289	3249
822.429	3100
822.569	3081
822.709	3180
822.849	3058
822.99	3066
823.13	3169
823.27	3180
823.41	3093
823.55	3173
823.69	3138
823.83	3184
823.97	3093
824.11	2998
824.25	3051
824.389	3077
824.529	3116
824.669	3085
824.809	3211
824.949	3283
825.089	3268
825.228	3188
825.368	2971
825.508	2956
825.648	2971
825.787	3043
825.927	3032
826.067	2990
826.206	2979
826.346	3081
826.485	3097
826.625	3138
826.765	3283
826.904	3233
827.044	3020
827.183	2941
827.323	2868
827.462	3017
827.601	2910
827.741	2906
827.88	3005
828.02	2845
828.159	2960
828.298	3055
828.437	3127
828.577	3036
828.716	3256
828.855	3062
828.994	2963
829.134	2880
829.273	2929
829.412	2834
829.551	2849
829.69	2906
829.829	2994
829.968	3127
830.107	3024
830.246	3024
830.385	2933
830.524	2861
830.663	2853
830.802	2727
830.941	2674
831.08	2640
831.219	2766
831.357	2781
831.496	2975
831.635	2754
831.774	2655
831.913	2651
832.051	2545
832.19	2590
832.329	2705
832.467	2552
832.606	2480
832.744	2594
832.883	2594
833.022	2579
833.16	2659
833.299	2716
833.437	2659
833.576	2689
833.714	2739
833.852	2727
833.991	2788
834.129	2861
834.267	2838
834.406	2750
834.544	2849
834.682	2864
834.821	2845
834.959	3081
835.097	2914
835.235	3066
835.373	2994
835.511	3036
835.65	2990
835.788	2941
835.926	2861
836.064	2830
836.202	2864
836.34	3070
836.478	3157
836.615	3055
836.753	3138
836.891	3207
837.029	3173
837.167	3119
837.305	3047
837.443	3051
837.58	2975
837.718	3161
837.856	3074
837.993	2994
838.131	3097
838.269	3104
838.406	3116
838.544	3043
838.681	2922
838.819	2941
838.956	2823
839.094	2842
839.231	2933
839.369	3005
839.506	3393
839.643	3260
839.781	2979
839.918	2925
840.055	3077
840.193	3013
840.33	3066
840.467	3093
840.604	3138
840.742	3416
840.879	3062
841.016	3062
841.153	3104
841.29	3291
841.427	3317
841.564	3291
841.701	3329
841.838	3192
841.975	3154
842.112	3207
842.249	3074
842.385	3062
842.522	3283
842.659	3112
842.796	3070
842.933	3062
843.069	3055
843.206	3020
843.343	3184
843.479	3138
843.616	3081
843.752	2906
843.889	2887
844.025	3062
844.162	2868
844.298	3074
844.435	2967
844.571	2956
844.708	3093
844.844	3146
844.98	3226
845.117	3192
845.253	3081
845.389	3032
845.525	3108
845.661	3112
845.798	2986
845.934	3138
846.07	3066
846.206	3233
846.342	3317
846.478	3241
846.614	3089
846.75	3058
846.886	2994
847.022	3256
847.158	3119
847.294	3211
847.429	3275
847.565	3222
847.701	3450
847.837	3047
847.972	3001
848.108	3176
848.244	3138
848.379	2982
848.515	2891
848.65	2948
848.786	2979
848.921	3024
849.057	3127
849.192	3116
849.328	3051
849.463	3100
849.598	3062
849.734	3036
849.869	3005
850.004	2880
850.14	2960
850.275	2918
850.41	2834
850.545	2868
850.68	2937
850.815	2986
850.95	2956
851.085	3188
851.22	3108
851.355	3017
851.49	3013
851.625	2994
851.76	2963
851.895	2944
852.03	2891
852.165	3017
852.299	3154
852.434	3154
852.569	3157
852.703	3180
852.838	3291
852.973	3310
853.107	3310
853.242	3184
853.376	3112
853.511	2952
853.645	3036
853.78	3218
853.914	3116
854.048	3066
854.183	3116
854.317	3135
854.451	3287
854.585	3112
854.72	3127
854.854	3256
854.988	3070
855.122	3077
855.256	3024
855.39	3108
855.524	3207
855.658	3154
855.792	3138
855.926	3173
856.06	3173
856.194	3298
856.327	3142
856.461	3085
856.595	3089
856.729	3112
856.862	3218
856.996	3146
857.13	3237
857.263	3245
857.397	3245
857.53	3127
857.664	3161
857.797	3241
857.931	3256
858.064	3165
858.197	3218
858.331	3123
858.464	3097
858.597	2998
858.731	3089
858.864	3108
858.997	3104
859.13	3146
859.263	3154
859.396	3195
859.529	3093
859.662	3089
859.795	3013
859.928	3116
860.061	3283
860.194	3249
860.327	3131
860.46	3070
860.592	3253
860.725	3256
860.858	3268
860.99	3116
861.123	3074
861.256	3036
861.388	3154
861.521	3800
861.653	3005
861.786	2982
861.918	2971
862.05	3032
862.183	3085
862.315	3135
862.447	3176
862.58	3062
862.712	2982
862.844	2857
862.976	3039
863.108	3036
863.24	3317
863.372	2902
863.504	2960
863.636	2922
863.768	3009
863.9	2990
864.032	2887
864.164	2963
864.296	3024
864.428	3138
864.559	3100
864.691	3047
864.823	3062
864.954	3036
865.086	3020
865.217	2982
865.349	2967
865.48	2986
865.612	3005
865.743	3131
865.875	2960
866.006	2948
866.137	2990
866.269	2963
866.4	2937
866.531	2925
866.662	2868
866.793	2826
866.924	2899
867.055	2998
867.186	2933
867.317	2876
867.448	2857
867.579	2853
867.71	2845
867.841	2834
867.972	2918
868.103	2922
868.233	2880
868.364	2910
868.495	2883
868.625	3100
868.756	3169
868.886	2960
869.017	3009
869.147	3173
869.278	3142
869.408	3043
869.539	3024
869.669	3081
869.799	3032
869.929	3104
870.06	3116
870.19	3283
870.32	3291
870.45	3287
870.58	3367
870.71	3454
870.84	3412
870.97	3313
871.1	3233
871.23	3431
871.36	3401
871.489	3310
871.619	3416
871.749	3420
871.879	3431
872.008	3439
872.138	3363
872.267	3306
872.397	3150
872.526	3077
872.656	2990
872.785	3108
872.915	3237
873.044	3325
873.173	3203
873.303	3241
873.432	3237
873.561	3218
873.69	3173
873.819	3112
873.948	3135
874.077	3123
874.206	3020
874.335	3039
874.464	3192
874.593	3355
874.722	3241
874.851	3382
874.979	3332
875.108	3329
875.237	3203
875.365	3161
875.494	3169
875.623	3241
875.751	3085
875.88	3097
876.008	3142
876.136	3207
876.265	3348
876.393	3500
876.521	3420
876.65	3397
876.778	3325
876.906	3245
877.034	3237
877.162	3222
877.29	3150
877.418	3218
877.546	3268
877.674	3199
877.802	3233
877.93	3211
878.058	3138
878.185	3093
878.313	3237
878.441	3176
878.568	3085
878.696	3135
878.824	3253
878.951	3275
879.079	3409
879.206	3648
879.333	3435
879.461	3325
879.588	3332
879.715	3473
879.842	3610
879.97	3359
880.097	3169
880.224	3123
880.351	3184
880.478	3207
880.605	3226
880.732	3169
880.859	3492
880.986	3264
881.112	3287
881.239	3192
881.366	3100
881.493	3024
881.619	3005
881.746	3058
881.872	3047
881.999	3070
882.125	3146
882.252	3253
882.378	3268
882.505	3435
882.631	3291
882.757	3131
882.883	3180
883.01	3222
883.136	3176
883.262	3142
883.388	3097
883.514	3321
883.64	3393
883.766	3313
883.892	3169
884.018	3268
884.143	3393
884.269	3534
884.395	3192
884.52	3169
884.646	3188
884.772	3085
884.897	3085
885.023	3218
885.148	3317
885.274	3420
885.399	3351
885.524	3279
885.65	3268
885.775	3313
885.9	3260
886.025	3393
886.15	3397
886.275	3325
886.4	3214
886.525	3298
886.65	3279
886.775	3268
886.9	3507
887.025	3584
887.149	3370
887.274	3268
887.399	3157
887.523	3214
887.648	3173
887.773	3222
887.897	3332
888.021	3378
888.146	3313
888.27	3397
888.395	3549
888.519	3450
888.643	3466
888.767	3496
888.891	3298
889.015	3214
889.139	3294
889.263	3294
889.387	3420
889.511	3519
889.635	3431
889.759	3310
889.883	3275
890.006	3405
890.13	3466
890.254	3272
890.377	3374
890.501	3226
890.624	3146
890.748	3325
890.871	3165
890.995	3127
891.118	3058
891.241	3214
891.364	3222
891.488	3325
891.611	3173
891.734	3218
891.857	3294
891.98	3222
892.103	3363
892.226	3272
892.349	3211
892.471	3108
892.594	3226
892.717	3298
892.839	3256
892.962	3306
893.085	3367
893.207	3294
893.33	3173
893.452	3218
893.575	3348
893.697	3218
893.819	3447
893.941	3458
894.064	3466
894.186	3256
894.308	3260
894.43	3405
894.552	3553
894.674	3519
894.796	3283
894.918	3348
895.04	3287
895.161	3435
895.283	3393
895.405	3321
895.526	3370
895.648	3412
895.769	3420
895.891	3450
896.012	3458
896.134	3443
896.255	3363
896.376	3348
896.498	3351
896.619	3420
896.74	3340
896.861	3355
896.982	3656
897.103	3850
897.224	3599
897.345	3511
897.466	3405
897.587	3458
897.708	3629
897.828	3561
897.949	3416
898.07	3310
898.19	3424
898.311	3591
898.431	3424
898.552	3511
898.672	3576
898.792	3568
898.913	3523
899.033	3439
899.153	3249
899.273	3188
899.393	3275
899.513	3336
899.633	3317
899.753	3348
899.873	3283
899.993	3382
900.113	3306
900.232	3367
900.352	3332
900.472	3256
900.591	3180
900.711	3298
900.83	3256
900.95	3409
901.069	3515
901.189	3340
901.308	3157
901.427	3146
901.546	3146
901.665	3298
901.784	3310
901.904	3203
902.023	3138
902.141	2979
902.26	2975
902.379	3135
902.498	3146
902.617	3024
902.735	3188
902.854	3214
902.973	3180
903.091	3081
903.21	3036
903.328	3135
903.446	3093
903.565	3100
903.683	3195
903.801	3116
903.919	3264
904.038	3321
904.156	3150
904.274	3294
904.392	3226
904.51	3260
904.627	3332
904.745	3424
904.863	3439
904.981	3245
905.098	3146
905.216	3211
905.334	3317
905.451	3294
905.569	3310
905.686	3469
905.803	3428
905.921	3275
906.038	3409
906.155	3317
906.272	3272
906.389	3374
906.506	3245
906.623	3283
906.74	3260
906.857	3211
906.974	3298
907.091	3458
907.208	3580
907.324	3458
907.441	3389
907.557	3203
907.674	3211
907.79	3188
907.907	3245
908.023	3355
908.139	3401
908.256	3302
908.372	3389
908.488	3374
908.604	3256
908.72	3226
908.836	3283
908.952	3294
909.068	3313
909.184	3507
909.3	3367
909.415	3515
909.531	3504
909.647	3245
909.762	3260
909.878	3218
909.993	3405
910.108	3306
910.224	3302
910.339	3409
910.454	3348
910.57	3256
910.685	3268
910.8	3618
910.915	3576
911.03	3405
911.145	3279
911.259	3256
911.374	3313
911.489	3218
911.604	3211
911.718	3138
911.833	3157
911.947	3043
912.062	2986
912.176	3184
912.291	3249
912.405	3218
912.519	3389
912.633	3492
912.748	3351
912.862	3283
912.976	3161
913.09	3032
913.204	3138
913.318	3211
913.431	3321
913.545	3317
913.659	3389
913.772	3321
913.886	3237
914	3214
914.113	3332
914.226	3412
914.34	3374
914.453	3154
914.566	3389
914.68	3264
914.793	3298
914.906	3157
915.019	3135
915.132	3058
915.245	3161
915.358	3222
915.47	3253
915.583	3241
915.696	3287
915.809	3386
915.921	3393
916.034	3268
916.146	3272
916.259	3249
916.371	3428
916.483	3348
916.595	3260
916.708	3332
916.82	3386
916.932	3329
917.044	3386
917.156	3378
917.268	3268
917.38	3321
917.491	3287
917.603	3363
917.715	3454
917.826	3412
917.938	3393
918.049	3233
918.161	3431
918.272	3561
918.384	3534
918.495	3488
918.606	3351
918.717	3264
918.828	3405
918.939	3401
919.05	3359
919.161	3351
919.272	3192
919.383	3226
919.494	3496
919.604	3656
919.715	3469
919.826	3420
919.936	3447
920.047	3580
920.157	3561
920.267	3724
920.378	3610
920.488	3622
920.598	3789
920.708	3922
920.818	3800
920.928	3861
921.038	4040
921.148	3979
921.258	3717
921.368	3663
921.477	3599
921.587	3530
921.697	3485
921.806	3641
921.916	3481
922.025	3344
922.134	3325
922.244	3325
922.353	3420
922.462	3264
922.571	3226
922.68	3108
922.789	3062
922.898	3146
923.007	3097
923.116	3188
923.224	3184
923.333	3169
923.442	3089
923.55	3089
923.659	3146
923.767	3253
923.876	3127
923.984	3260
924.092	3085
924.201	3184
924.309	3230
924.417	3241
924.525	3195
924.633	3230
924.741	4211
924.849	3077
924.956	3241
925.064	3070
925.172	3047
925.279	3066
925.387	3199
925.494	3195
925.602	3359
925.709	3313
925.816	3180
925.924	3222
926.031	3378
926.138	3317
926.245	3359
926.352	3253
926.459	3428
926.566	3409
926.673	3317
926.779	3237
926.886	3237
926.993	3165
927.099	3127
927.206	3089
927.312	3100
927.419	3211
927.525	3180
927.631	3256
927.737	3142
927.843	3135
927.95	3051
928.056	3142
928.162	3184
928.267	3241
928.373	3831
928.479	3306
928.585	3085
928.69	3245
928.796	3279
928.901	3188
929.007	3043
929.112	3211
929.218	3188
929.323	3161
929.428	3104
929.533	3310
929.638	3157
929.743	3180
929.848	3253
929.953	3157
930.058	3112
930.163	2998
930.267	3055
930.372	3203
930.477	3013
930.581	3340
930.685	3199
930.79	3066
930.894	3108
930.998	3093
931.103	3256
931.207	2967
931.311	2960
931.415	2895
931.519	2792
931.623	2826
