Data from test_V78500241_1043.txt Node
Date: Fri Mar 25 16:22:25 CST 2022
User: usil
Spectrometer: V785-0024
Trigger mode: 0
Integration Time (sec): 4.000000E-1
Scans to average: 1
Nonlinearity correction enabled: false
Boxcar width: 0
Storing dark spectrum: false
XAxis mode: Wavelengths
Number of Pixels in Spectrum: 1024
>>>>>Begin Spectral Data<<<<<
801.071	2956
801.214	2994
801.356	2922
801.499	2960
801.641	2914
801.783	2960
801.926	3066
802.068	2956
802.211	3024
802.353	3081
802.496	2982
802.638	3047
802.78	3047
802.923	3097
803.065	3028
803.208	2899
803.35	2918
803.492	2948
803.635	2956
803.777	2739
803.919	2872
804.061	3195
804.204	2990
804.346	2899
804.488	2872
804.63	2990
804.773	2853
804.915	2887
805.057	3077
805.199	2937
805.341	3005
805.483	3066
805.626	2982
805.768	2933
805.91	3039
806.052	3108
806.194	3039
806.336	3241
806.478	3024
806.62	2971
806.762	2971
806.904	3062
807.046	3142
807.188	2982
807.33	2929
807.472	3001
807.614	2918
807.756	3013
807.898	2941
808.04	2941
808.182	2941
808.324	2990
808.465	2887
808.607	2880
808.749	2815
808.891	2864
809.033	2982
809.174	3009
809.316	2880
809.458	2941
809.6	2777
809.741	2785
809.883	2788
810.025	2849
810.166	2864
810.308	2845
810.45	2838
810.591	2743
810.733	2777
810.875	2853
811.016	2762
811.158	2777
811.299	2796
811.441	2918
811.582	2918
811.724	2842
811.865	2819
812.007	2902
812.148	2880
812.29	2853
812.431	2902
812.573	2963
812.714	2986
812.855	3077
812.997	3058
813.138	3131
813.279	2998
813.421	2963
813.562	2937
813.703	2902
813.845	2864
813.986	2781
814.127	2758
814.268	2842
814.41	2845
814.551	2823
814.692	2910
814.833	2788
814.974	2910
815.115	2956
815.256	2868
815.397	2876
815.539	2891
815.68	2777
815.821	2811
815.962	2963
816.103	2944
816.244	2857
816.385	2906
816.526	2971
816.666	2929
816.807	2754
816.948	2883
817.089	2883
817.23	2853
817.371	2834
817.512	2796
817.653	2842
817.793	2861
817.934	2902
818.075	2967
818.216	2982
818.356	3097
818.497	2880
818.638	2781
818.778	2826
818.919	2811
819.06	2762
819.2	2895
819.341	2826
819.481	2804
819.622	2933
819.762	3104
819.903	3085
820.043	2948
820.184	2937
820.324	2914
820.465	2982
820.605	3020
820.746	3047
820.886	2948
821.026	3077
821.167	3176
821.307	3272
821.447	3249
821.588	3260
821.728	3199
821.868	3203
822.008	3085
822.149	3173
822.289	3230
822.429	3108
822.569	3089
822.709	3192
822.849	3047
822.99	3089
823.13	3180
823.27	3199
823.41	3150
823.55	3135
823.69	3157
823.83	3203
823.97	3077
824.11	3005
824.25	3017
824.389	3051
824.529	3104
824.669	3055
824.809	3199
824.949	3253
825.089	3218
825.228	3138
825.368	3013
825.508	2952
825.648	2952
825.787	3020
825.927	3047
826.067	2929
826.206	2952
826.346	3058
826.485	3104
826.625	3112
826.765	3253
826.904	3214
827.044	2982
827.183	2944
827.323	2899
827.462	2944
827.601	2899
827.741	2906
827.88	2933
828.02	2883
828.159	2971
828.298	3001
828.437	3123
828.577	3039
828.716	3245
828.855	3051
828.994	2960
829.134	2887
829.273	2929
829.412	2887
829.551	2868
829.69	2899
829.829	2986
829.968	3150
830.107	3013
830.246	3020
830.385	2902
830.524	2857
830.663	2823
830.802	2716
830.941	2678
831.08	2651
831.219	2754
831.357	2743
831.496	2963
831.635	2731
831.774	2655
831.913	2674
832.051	2568
832.19	2583
832.329	2705
832.467	2533
832.606	2480
832.744	2590
832.883	2583
833.022	2583
833.16	2655
833.299	2682
833.437	2712
833.576	2678
833.714	2716
833.852	2746
833.991	2773
834.129	2845
834.267	2845
834.406	2785
834.544	2891
834.682	2899
834.821	2899
834.959	3081
835.097	2880
835.235	3093
835.373	3017
835.511	3001
835.65	2960
835.788	2998
835.926	2872
836.064	2800
836.202	2842
836.34	3085
836.478	3123
836.615	3017
836.753	3119
836.891	3169
837.029	3176
837.167	3074
837.305	3043
837.443	3013
837.58	2967
837.718	3127
837.856	3085
837.993	3039
838.131	3127
838.269	3116
838.406	3108
838.544	3077
838.681	2941
838.819	2910
838.956	2800
839.094	2849
839.231	2937
839.369	3017
839.506	3409
839.643	3226
839.781	3047
839.918	2982
840.055	3058
840.193	3077
840.33	3043
840.467	3123
840.604	3146
840.742	3447
840.879	3024
841.016	3066
841.153	3142
841.29	3351
841.427	3268
841.564	3268
841.701	3329
841.838	3226
841.975	3150
842.112	3203
842.249	3043
842.385	3051
842.522	3294
842.659	3127
842.796	3032
842.933	3066
843.069	3070
843.206	3058
843.343	3169
843.479	3112
843.616	3142
843.752	2895
843.889	2887
844.025	3058
844.162	2853
844.298	3074
844.435	2925
844.571	2941
844.708	3081
844.844	3188
844.98	3233
845.117	3169
845.253	3055
845.389	3001
845.525	3055
845.661	3123
845.798	2971
845.934	3138
846.07	3036
846.206	3188
846.342	3321
846.478	3272
846.614	3066
846.75	3032
846.886	2986
847.022	3207
847.158	3154
847.294	3180
847.429	3245
847.565	3157
847.701	3523
847.837	3013
847.972	3024
848.108	3165
848.244	3138
848.379	3013
848.515	2922
848.65	2914
848.786	2982
848.921	3024
849.057	3116
849.192	3100
849.328	3066
849.463	3142
849.598	3051
849.734	3020
849.869	2967
850.004	2922
850.14	2948
850.275	2914
850.41	2895
850.545	2872
850.68	2967
850.815	2994
850.95	2956
851.085	3237
851.22	3112
851.355	3077
851.49	3001
851.625	3047
851.76	3024
851.895	2944
852.03	2899
852.165	3062
852.299	3154
852.434	3192
852.569	3150
852.703	3173
852.838	3283
852.973	3367
853.107	3336
853.242	3173
853.376	3142
853.511	2979
853.645	3085
853.78	3272
853.914	3135
854.048	3142
854.183	3116
854.317	3192
854.451	3302
854.585	3184
854.72	3108
854.854	3245
854.988	3077
855.122	3089
855.256	3005
855.39	3135
855.524	3287
855.658	3165
855.792	3184
855.926	3253
856.06	3237
856.194	3306
856.327	3192
856.461	3104
856.595	3119
856.729	3085
856.862	3253
856.996	3218
857.13	3291
857.263	3245
857.397	3317
857.53	3157
857.664	3211
857.797	3302
857.931	3275
858.064	3188
858.197	3294
858.331	3154
858.464	3142
858.597	3074
858.731	3138
858.864	3165
858.997	3116
859.13	3195
859.263	3245
859.396	3264
859.529	3142
859.662	3100
859.795	3058
859.928	3199
860.061	3310
860.194	3321
860.327	3169
860.46	3138
860.592	3268
860.725	3294
860.858	3268
860.99	3123
861.123	3112
861.256	3135
861.388	3180
861.521	3850
861.653	3055
861.786	3013
861.918	3077
862.05	3119
862.183	3146
862.315	3192
862.447	3203
862.58	3150
862.712	2967
862.844	2918
862.976	3070
863.108	3058
863.24	3458
863.372	2948
863.504	3028
863.636	2986
863.768	3051
863.9	3013
864.032	2918
864.164	2986
864.296	3055
864.428	3123
864.559	3119
864.691	3112
864.823	3097
864.954	3077
865.086	3043
865.217	3005
865.349	2982
865.48	3009
865.612	3070
865.743	3184
865.875	3028
866.006	2986
866.137	3051
866.269	2994
866.4	2971
866.531	2933
866.662	2902
866.793	2925
866.924	2918
867.055	3036
867.186	2910
867.317	2937
867.448	2880
867.579	2933
867.71	2883
867.841	2861
867.972	2963
868.103	2914
868.233	2937
868.364	2902
868.495	2937
868.625	3123
868.756	3176
868.886	2998
869.017	3024
869.147	3211
869.278	3218
869.408	3093
869.539	3036
869.669	3142
869.799	3077
869.929	3165
870.06	3146
870.19	3374
870.32	3310
870.45	3313
870.58	3386
870.71	3454
870.84	3481
870.97	3340
871.1	3317
871.23	3530
871.36	3488
871.489	3355
871.619	3420
871.749	3428
871.879	3428
872.008	3511
872.138	3424
872.267	3313
872.397	3176
872.526	3119
872.656	3001
872.785	3154
872.915	3306
873.044	3321
873.173	3256
873.303	3275
873.432	3241
873.561	3264
873.69	3203
873.819	3211
873.948	3237
874.077	3165
874.206	3077
874.335	3108
874.464	3256
874.593	3355
874.722	3211
874.851	3393
874.979	3370
875.108	3321
875.237	3226
875.365	3192
875.494	3218
875.623	3272
875.751	3104
875.88	3173
876.008	3222
876.136	3253
876.265	3374
876.393	3538
876.521	3447
876.65	3389
876.778	3370
876.906	3272
877.034	3253
877.162	3230
877.29	3214
877.418	3306
877.546	3241
877.674	3306
877.802	3275
877.93	3245
878.058	3161
878.185	3150
878.313	3241
878.441	3253
878.568	3112
878.696	3176
878.824	3249
878.951	3340
879.079	3485
879.206	3652
879.333	3473
879.461	3336
879.588	3409
879.715	3488
879.842	3606
879.97	3435
880.097	3211
880.224	3157
880.351	3268
880.478	3230
880.605	3218
880.732	3199
880.859	3488
880.986	3344
881.112	3332
881.239	3195
881.366	3097
881.493	3039
881.619	3036
881.746	3085
881.872	3100
881.999	3108
882.125	3165
882.252	3260
882.378	3279
882.505	3481
882.631	3310
882.757	3249
882.883	3241
883.01	3275
883.136	3176
883.262	3116
883.388	3157
883.514	3344
883.64	3397
883.766	3348
883.892	3222
884.018	3245
884.143	3424
884.269	3572
884.395	3192
884.52	3184
884.646	3173
884.772	3150
884.897	3150
885.023	3237
885.148	3348
885.274	3469
885.399	3401
885.524	3302
885.65	3283
885.775	3340
885.9	3272
886.025	3412
886.15	3348
886.275	3317
886.4	3264
886.525	3340
886.65	3287
886.775	3294
886.9	3500
887.025	3682
887.149	3450
887.274	3230
887.399	3230
887.523	3226
887.648	3253
887.773	3222
887.897	3359
888.021	3439
888.146	3367
888.27	3458
888.395	3545
888.519	3458
888.643	3469
888.767	3466
888.891	3306
889.015	3237
889.139	3310
889.263	3275
889.387	3416
889.511	3526
889.635	3450
889.759	3329
889.883	3321
890.006	3397
890.13	3504
890.254	3279
890.377	3348
890.501	3192
890.624	3218
890.748	3294
890.871	3226
890.995	3108
891.118	3093
891.241	3222
891.364	3233
891.488	3317
891.611	3218
891.734	3253
891.857	3294
891.98	3233
892.103	3363
892.226	3332
892.349	3207
892.471	3138
892.594	3268
892.717	3302
892.839	3275
892.962	3294
893.085	3405
893.207	3317
893.33	3131
893.452	3233
893.575	3374
893.697	3298
893.819	3431
893.941	3549
894.064	3481
894.186	3298
894.308	3287
894.43	3428
894.552	3549
894.674	3496
894.796	3306
894.918	3317
895.04	3310
895.161	3481
895.283	3443
895.405	3306
895.526	3389
895.648	3435
895.769	3420
895.891	3412
896.012	3504
896.134	3492
896.255	3439
896.376	3412
896.498	3386
896.619	3439
896.74	3355
896.861	3412
896.982	3728
897.103	3869
897.224	3568
897.345	3542
897.466	3458
897.587	3515
897.708	3629
897.828	3584
897.949	3447
898.07	3329
898.19	3397
898.311	3648
898.431	3462
898.552	3545
898.672	3580
898.792	3576
898.913	3542
899.033	3450
899.153	3275
899.273	3264
899.393	3287
899.513	3310
899.633	3355
899.753	3325
899.873	3283
899.993	3397
900.113	3355
900.232	3389
900.352	3359
900.472	3310
900.591	3233
900.711	3310
900.83	3260
900.95	3409
901.069	3481
901.189	3374
901.308	3180
901.427	3146
901.546	3180
901.665	3310
901.784	3348
901.904	3211
902.023	3154
902.141	3039
902.26	3009
902.379	3157
902.498	3089
902.617	3058
902.735	3249
902.854	3268
902.973	3176
903.091	3085
903.21	3112
903.328	3157
903.446	3123
903.565	3154
903.683	3195
903.801	3142
903.919	3245
904.038	3351
904.156	3184
904.274	3253
904.392	3256
904.51	3302
904.627	3363
904.745	3435
904.863	3523
904.981	3279
905.098	3150
905.216	3253
905.334	3332
905.451	3325
905.569	3325
905.686	3412
905.803	3424
905.921	3291
906.038	3450
906.155	3370
906.272	3283
906.389	3382
906.506	3222
906.623	3249
906.74	3275
906.857	3218
906.974	3275
907.091	3488
907.208	3610
907.324	3534
907.441	3424
907.557	3253
907.674	3230
907.79	3233
907.907	3302
908.023	3393
908.139	3405
908.256	3321
908.372	3370
908.488	3412
908.604	3249
908.72	3260
908.836	3340
908.952	3287
909.068	3359
909.184	3519
909.3	3443
909.415	3507
909.531	3458
909.647	3291
909.762	3268
909.878	3275
909.993	3382
910.108	3367
910.224	3382
910.339	3447
910.454	3382
910.57	3298
910.685	3268
910.8	3599
910.915	3549
911.03	3431
911.145	3264
911.259	3287
911.374	3306
911.489	3275
911.604	3241
911.718	3142
911.833	3154
911.947	3062
912.062	3039
912.176	3135
912.291	3214
912.405	3165
912.519	3435
912.633	3466
912.748	3355
912.862	3306
912.976	3207
913.09	3055
913.204	3157
913.318	3237
913.431	3374
913.545	3329
913.659	3447
913.772	3363
913.886	3233
914	3237
914.113	3397
914.226	3412
914.34	3378
914.453	3211
914.566	3469
914.68	3294
914.793	3355
914.906	3203
915.019	3108
915.132	3055
915.245	3180
915.358	3211
915.47	3207
915.583	3264
915.696	3313
915.809	3439
915.921	3431
916.034	3260
916.146	3253
916.259	3233
916.371	3363
916.483	3370
916.595	3260
916.708	3336
916.82	3355
916.932	3386
917.044	3340
917.156	3340
917.268	3279
917.38	3317
917.491	3317
917.603	3367
917.715	3454
917.826	3435
917.938	3374
918.049	3275
918.161	3458
918.272	3538
918.384	3599
918.495	3504
918.606	3329
918.717	3283
918.828	3367
918.939	3428
919.05	3260
919.161	3409
919.272	3184
919.383	3298
919.494	3507
919.604	3724
919.715	3511
919.826	3424
919.936	3443
920.047	3618
920.157	3587
920.267	3728
920.378	3591
920.488	3561
920.598	3778
920.708	3960
920.818	3842
920.928	3827
921.038	4013
921.148	3983
921.258	3724
921.368	3701
921.477	3591
921.587	3561
921.697	3485
921.806	3618
921.916	3545
922.025	3382
922.134	3351
922.244	3321
922.353	3393
922.462	3287
922.571	3230
922.68	3081
922.789	3097
922.898	3119
923.007	3085
923.116	3192
923.224	3184
923.333	3192
923.442	3112
923.55	3100
923.659	3138
923.767	3188
923.876	3108
923.984	3253
924.092	3154
924.201	3211
924.309	3245
924.417	3245
924.525	3218
924.633	3249
924.741	4204
924.849	3055
924.956	3264
925.064	3112
925.172	3058
925.279	3093
925.387	3192
925.494	3207
925.602	3367
925.709	3363
925.816	3207
925.924	3291
926.031	3367
926.138	3321
926.245	3332
926.352	3256
926.459	3412
926.566	3534
926.673	3329
926.779	3214
926.886	3268
926.993	3176
927.099	3146
927.206	3112
927.312	3150
927.419	3245
927.525	3203
927.631	3302
927.737	3165
927.843	3173
927.95	3013
928.056	3119
928.162	3173
928.267	3279
928.373	3896
928.479	3336
928.585	3055
928.69	3173
928.796	3279
928.901	3165
929.007	3074
929.112	3184
929.218	3195
929.323	3146
929.428	3184
929.533	3279
929.638	3127
929.743	3184
929.848	3245
929.953	3237
930.058	3131
930.163	3009
930.267	3039
930.372	3195
930.477	3089
930.581	3332
930.685	3211
930.79	3062
930.894	3085
930.998	3066
931.103	3294
931.207	2960
931.311	2956
931.415	2944
931.519	2796
931.623	2800
