Data from test_V78500241_1326.txt Node
Date: Fri Mar 25 16:24:23 CST 2022
User: usil
Spectrometer: V785-0024
Trigger mode: 0
Integration Time (sec): 4.000000E-1
Scans to average: 1
Nonlinearity correction enabled: false
Boxcar width: 0
Storing dark spectrum: false
XAxis mode: Wavelengths
Number of Pixels in Spectrum: 1024
>>>>>Begin Spectral Data<<<<<
801.071	2971
801.214	2998
801.356	2883
801.499	2941
801.641	2902
801.783	2960
801.926	3085
802.068	2994
802.211	3028
802.353	3089
802.496	3005
802.638	3032
802.78	3074
802.923	3108
803.065	3043
803.208	2937
803.35	2960
803.492	2986
803.635	2963
803.777	2819
803.919	2891
804.061	3237
804.204	2956
804.346	2963
804.488	2876
804.63	3009
804.773	2944
804.915	2925
805.057	3085
805.199	2944
805.341	3017
805.483	3074
805.626	3039
805.768	2975
805.91	3085
806.052	3081
806.194	3077
806.336	3253
806.478	3047
806.62	2986
806.762	3024
806.904	3123
807.046	3169
807.188	2975
807.33	2918
807.472	3028
807.614	2910
807.756	3001
807.898	2967
808.04	2918
808.182	2982
808.324	2971
808.465	2891
808.607	2902
808.749	2849
808.891	2857
809.033	2994
809.174	3009
809.316	2929
809.458	2910
809.6	2838
809.741	2807
809.883	2826
810.025	2853
810.166	2887
810.308	2895
810.45	2899
810.591	2743
810.733	2754
810.875	2883
811.016	2853
811.158	2788
811.299	2815
811.441	2944
811.582	2933
811.724	2845
811.865	2853
812.007	2929
812.148	2910
812.29	2853
812.431	2933
812.573	2960
812.714	2990
812.855	3028
812.997	3047
813.138	3161
813.279	3024
813.421	3009
813.562	2971
813.703	2899
813.845	2899
813.986	2819
814.127	2750
814.268	2823
814.41	2864
814.551	2857
814.692	2944
814.833	2826
814.974	2925
815.115	2982
815.256	2864
815.397	2826
815.539	2876
815.68	2804
815.821	2796
815.962	2952
816.103	2922
816.244	2914
816.385	2883
816.526	2986
816.666	2914
816.807	2788
816.948	2910
817.089	2925
817.23	2868
817.371	2788
817.512	2853
817.653	2845
817.793	2853
817.934	2880
818.075	2994
818.216	2998
818.356	3055
818.497	2910
818.638	2826
818.778	2815
818.919	2819
819.06	2777
819.2	2876
819.341	2864
819.481	2800
819.622	2944
819.762	3127
819.903	3058
820.043	2948
820.184	2906
820.324	2941
820.465	3032
820.605	3028
820.746	3032
820.886	2933
821.026	3112
821.167	3184
821.307	3256
821.447	3287
821.588	3264
821.728	3226
821.868	3192
822.008	3108
822.149	3203
822.289	3264
822.429	3127
822.569	3116
822.709	3188
822.849	3032
822.99	3123
823.13	3146
823.27	3195
823.41	3123
823.55	3146
823.69	3146
823.83	3237
823.97	3093
824.11	3043
824.25	3020
824.389	3108
824.529	3116
824.669	3081
824.809	3195
824.949	3268
825.089	3207
825.228	3173
825.368	3028
825.508	2971
825.648	3005
825.787	3017
825.927	3020
826.067	2979
826.206	2994
826.346	3051
826.485	3112
826.625	3119
826.765	3283
826.904	3222
827.044	2986
827.183	2933
827.323	2872
827.462	2998
827.601	2910
827.741	2948
827.88	2982
828.02	2880
828.159	3001
828.298	3055
828.437	3104
828.577	3024
828.716	3241
828.855	3070
828.994	2925
829.134	2922
829.273	2948
829.412	2887
829.551	2910
829.69	2925
829.829	3024
829.968	3142
830.107	3062
830.246	3036
830.385	2960
830.524	2922
830.663	2845
830.802	2777
830.941	2678
831.08	2716
831.219	2781
831.357	2788
831.496	2994
831.635	2708
831.774	2621
831.913	2670
832.051	2549
832.19	2610
832.329	2705
832.467	2560
832.606	2492
832.744	2636
832.883	2590
833.022	2606
833.16	2667
833.299	2689
833.437	2708
833.576	2739
833.714	2708
833.852	2758
833.991	2773
834.129	2811
834.267	2849
834.406	2800
834.544	2861
834.682	2902
834.821	2868
834.959	3070
835.097	2910
835.235	3085
835.373	3047
835.511	3036
835.65	2952
835.788	2967
835.926	2815
836.064	2838
836.202	2845
836.34	3119
836.478	3184
836.615	3062
836.753	3142
836.891	3211
837.029	3173
837.167	3093
837.305	3085
837.443	3032
837.58	2967
837.718	3116
837.856	3093
837.993	3032
838.131	3150
838.269	3135
838.406	3131
838.544	3116
838.681	2971
838.819	2922
838.956	2800
839.094	2857
839.231	2933
839.369	3058
839.506	3382
839.643	3249
839.781	3043
839.918	2971
840.055	3039
840.193	3017
840.33	3055
840.467	3100
840.604	3138
840.742	3397
840.879	3077
841.016	3058
841.153	3142
841.29	3329
841.427	3272
841.564	3294
841.701	3329
841.838	3230
841.975	3222
842.112	3218
842.249	3074
842.385	3043
842.522	3275
842.659	3089
842.796	3062
842.933	3112
843.069	3081
843.206	3077
843.343	3199
843.479	3119
843.616	3146
843.752	2895
843.889	2899
844.025	3077
844.162	2914
844.298	3093
844.435	2960
844.571	2929
844.708	3077
844.844	3195
844.98	3211
845.117	3157
845.253	3051
845.389	3009
845.525	3116
845.661	3123
845.798	3017
845.934	3116
846.07	3093
846.206	3256
846.342	3310
846.478	3218
846.614	3093
846.75	3093
846.886	3047
847.022	3264
847.158	3165
847.294	3222
847.429	3233
847.565	3222
847.701	3477
847.837	3074
847.972	3005
848.108	3180
848.244	3169
848.379	3009
848.515	2929
848.65	2922
848.786	2986
848.921	2998
849.057	3127
849.192	3138
849.328	3062
849.463	3116
849.598	3112
849.734	3028
849.869	2994
850.004	2929
850.14	3017
850.275	2952
850.41	2845
850.545	2914
850.68	2952
850.815	3017
850.95	2967
851.085	3192
851.22	3112
851.355	3039
851.49	2986
851.625	2998
851.76	2982
851.895	2937
852.03	2952
852.165	3043
852.299	3108
852.434	3180
852.569	3146
852.703	3184
852.838	3264
852.973	3329
853.107	3325
853.242	3142
853.376	3066
853.511	3017
853.645	3047
853.78	3245
853.914	3135
854.048	3135
854.183	3089
854.317	3214
854.451	3275
854.585	3119
854.72	3089
854.854	3222
854.988	3055
855.122	3085
855.256	2982
855.39	3135
855.524	3211
855.658	3165
855.792	3123
855.926	3199
856.06	3211
856.194	3260
856.327	3161
856.461	3077
856.595	3123
856.729	3100
856.862	3222
856.996	3157
857.13	3203
857.263	3211
857.397	3245
857.53	3131
857.664	3203
857.797	3203
857.931	3268
858.064	3173
858.197	3203
858.331	3135
858.464	3081
858.597	2990
858.731	3097
858.864	3150
858.997	3116
859.13	3180
859.263	3211
859.396	3207
859.529	3104
859.662	3085
859.795	3058
859.928	3119
860.061	3310
860.194	3226
860.327	3135
860.46	3093
860.592	3260
860.725	3253
860.858	3260
860.99	3066
861.123	3032
861.256	3070
861.388	3161
861.521	3728
861.653	3013
861.786	2971
861.918	2967
862.05	3093
862.183	3104
862.315	3157
862.447	3192
862.58	3100
862.712	2937
862.844	2880
862.976	3055
863.108	3013
863.24	3325
863.372	2872
863.504	3001
863.636	2971
863.768	3028
863.9	2967
864.032	2906
864.164	2956
864.296	3024
864.428	3062
864.559	3097
864.691	3024
864.823	3055
864.954	3009
865.086	3058
865.217	2986
865.349	2952
865.48	3009
865.612	2982
865.743	3100
865.875	2975
866.006	2929
866.137	2971
866.269	2982
866.4	2971
866.531	2933
866.662	2937
866.793	2891
866.924	2880
867.055	2998
867.186	2883
867.317	2883
867.448	2853
867.579	2834
867.71	2864
867.841	2834
867.972	2887
868.103	2887
868.233	2876
868.364	2883
868.495	2891
868.625	3089
868.756	3176
868.886	2956
869.017	3036
869.147	3157
869.278	3142
869.408	3062
869.539	3017
869.669	3085
869.799	3039
869.929	3154
870.06	3116
870.19	3336
870.32	3272
870.45	3321
870.58	3313
870.71	3397
870.84	3450
870.97	3313
871.1	3253
871.23	3443
871.36	3466
871.489	3374
871.619	3393
871.749	3389
871.879	3397
872.008	3477
872.138	3359
872.267	3260
872.397	3123
872.526	3138
872.656	3001
872.785	3108
872.915	3230
873.044	3325
873.173	3249
873.303	3230
873.432	3268
873.561	3230
873.69	3169
873.819	3154
873.948	3180
874.077	3116
874.206	3032
874.335	3081
874.464	3184
874.593	3351
874.722	3241
874.851	3378
874.979	3348
875.108	3329
875.237	3188
875.365	3157
875.494	3165
875.623	3256
875.751	3085
875.88	3119
876.008	3214
876.136	3222
876.265	3378
876.393	3526
876.521	3374
876.65	3409
876.778	3332
876.906	3233
877.034	3195
877.162	3222
877.29	3169
877.418	3275
877.546	3218
877.674	3237
877.802	3245
877.93	3214
878.058	3142
878.185	3108
878.313	3195
878.441	3211
878.568	3062
878.696	3154
878.824	3233
878.951	3321
879.079	3412
879.206	3603
879.333	3469
879.461	3310
879.588	3382
879.715	3504
879.842	3584
879.97	3367
880.097	3157
880.224	3123
880.351	3161
880.478	3195
880.605	3184
880.732	3203
880.859	3507
880.986	3317
881.112	3329
881.239	3199
881.366	3097
881.493	2986
881.619	3024
881.746	3058
881.872	3112
881.999	3066
882.125	3127
882.252	3241
882.378	3272
882.505	3428
882.631	3283
882.757	3135
882.883	3192
883.01	3249
883.136	3157
883.262	3085
883.388	3081
883.514	3310
883.64	3378
883.766	3298
883.892	3195
884.018	3241
884.143	3405
884.269	3519
884.395	3207
884.52	3184
884.646	3169
884.772	3100
884.897	3085
885.023	3218
885.148	3348
885.274	3409
885.399	3351
885.524	3253
885.65	3249
885.775	3336
885.9	3298
886.025	3435
886.15	3344
886.275	3283
886.4	3214
886.525	3283
886.65	3256
886.775	3260
886.9	3477
887.025	3618
887.149	3397
887.274	3264
887.399	3192
887.523	3165
887.648	3188
887.773	3173
887.897	3389
888.021	3367
888.146	3283
888.27	3420
888.395	3542
888.519	3409
888.643	3428
888.767	3435
888.891	3272
889.015	3214
889.139	3253
889.263	3233
889.387	3393
889.511	3526
889.635	3458
889.759	3272
889.883	3302
890.006	3348
890.13	3450
890.254	3260
890.377	3344
890.501	3184
890.624	3188
890.748	3302
890.871	3131
890.995	3093
891.118	3066
891.241	3161
891.364	3226
891.488	3313
891.611	3173
891.734	3199
891.857	3291
891.98	3245
892.103	3306
892.226	3275
892.349	3211
892.471	3085
892.594	3222
892.717	3279
892.839	3249
892.962	3256
893.085	3378
893.207	3287
893.33	3161
893.452	3249
893.575	3348
893.697	3184
893.819	3450
893.941	3466
894.064	3424
894.186	3256
894.308	3253
894.43	3454
894.552	3515
894.674	3447
894.796	3233
894.918	3313
895.04	3313
895.161	3416
895.283	3416
895.405	3310
895.526	3378
895.648	3435
895.769	3416
895.891	3439
896.012	3454
896.134	3416
896.255	3393
896.376	3355
896.498	3332
896.619	3367
896.74	3351
896.861	3424
896.982	3682
897.103	3838
897.224	3557
897.345	3507
897.466	3409
897.587	3477
897.708	3618
897.828	3553
897.949	3443
898.07	3340
898.19	3412
898.311	3584
898.431	3424
898.552	3500
898.672	3625
898.792	3572
898.913	3511
899.033	3382
899.153	3275
899.273	3237
899.393	3302
899.513	3298
899.633	3344
899.753	3344
899.873	3298
899.993	3382
900.113	3336
900.232	3397
900.352	3344
900.472	3264
900.591	3195
900.711	3249
900.83	3207
900.95	3382
901.069	3473
901.189	3348
901.308	3142
901.427	3161
901.546	3195
901.665	3272
901.784	3340
901.904	3245
902.023	3112
902.141	3001
902.26	2986
902.379	3142
902.498	3066
902.617	3028
902.735	3222
902.854	3218
902.973	3180
903.091	3074
903.21	3070
903.328	3123
903.446	3066
903.565	3104
903.683	3207
903.801	3157
903.919	3249
904.038	3275
904.156	3199
904.274	3222
904.392	3233
904.51	3272
904.627	3287
904.745	3450
904.863	3500
904.981	3241
905.098	3138
905.216	3249
905.334	3298
905.451	3298
905.569	3287
905.686	3389
905.803	3409
905.921	3264
906.038	3374
906.155	3344
906.272	3249
906.389	3302
906.506	3233
906.623	3233
906.74	3264
906.857	3169
906.974	3233
907.091	3439
907.208	3561
907.324	3500
907.441	3382
907.557	3230
907.674	3230
907.79	3207
907.907	3264
908.023	3386
908.139	3405
908.256	3298
908.372	3389
908.488	3389
908.604	3279
908.72	3211
908.836	3302
908.952	3279
909.068	3317
909.184	3504
909.3	3374
909.415	3504
909.531	3458
909.647	3260
909.762	3294
909.878	3256
909.993	3336
910.108	3329
910.224	3355
910.339	3439
910.454	3325
910.57	3306
910.685	3226
910.8	3584
910.915	3515
911.03	3443
911.145	3241
911.259	3294
911.374	3294
911.489	3237
911.604	3207
911.718	3127
911.833	3169
911.947	3017
912.062	2963
912.176	3169
912.291	3230
912.405	3203
912.519	3405
912.633	3458
912.748	3336
912.862	3272
912.976	3146
913.09	3089
913.204	3142
913.318	3214
913.431	3321
913.545	3355
913.659	3397
913.772	3340
913.886	3241
914	3169
914.113	3321
914.226	3428
914.34	3355
914.453	3176
914.566	3386
914.68	3287
914.793	3291
914.906	3138
915.019	3104
915.132	3032
915.245	3184
915.358	3188
915.47	3184
915.583	3256
915.696	3283
915.809	3393
915.921	3439
916.034	3241
916.146	3287
916.259	3233
916.371	3363
916.483	3367
916.595	3253
916.708	3298
916.82	3313
916.932	3317
917.044	3332
917.156	3386
917.268	3272
917.38	3313
917.491	3279
917.603	3359
917.715	3443
917.826	3454
917.938	3363
918.049	3268
918.161	3416
918.272	3595
918.384	3568
918.495	3530
918.606	3329
918.717	3256
918.828	3401
918.939	3370
919.05	3302
919.161	3340
919.272	3169
919.383	3256
919.494	3504
919.604	3701
919.715	3466
919.826	3401
919.936	3439
920.047	3637
920.157	3564
920.267	3709
920.378	3614
920.488	3564
920.598	3766
920.708	3911
920.818	3850
920.928	3854
921.038	3991
921.148	3979
921.258	3694
921.368	3644
921.477	3584
921.587	3530
921.697	3447
921.806	3660
921.916	3469
922.025	3348
922.134	3374
922.244	3348
922.353	3412
922.462	3294
922.571	3218
922.68	3070
922.789	3028
922.898	3093
923.007	3089
923.116	3203
923.224	3150
923.333	3203
923.442	3093
923.55	3058
923.659	3135
923.767	3188
923.876	3108
923.984	3199
924.092	3123
924.201	3192
924.309	3195
924.417	3256
924.525	3169
924.633	3211
924.741	4006
924.849	3032
924.956	3268
925.064	3074
925.172	2998
925.279	3116
925.387	3135
925.494	3173
925.602	3355
925.709	3313
925.816	3154
925.924	3233
926.031	3355
926.138	3321
926.245	3367
926.352	3253
926.459	3416
926.566	3439
926.673	3325
926.779	3230
926.886	3226
926.993	3150
927.099	3150
927.206	3108
927.312	3123
927.419	3230
927.525	3230
927.631	3275
927.737	3180
927.843	3135
927.95	3017
928.056	3127
928.162	3180
928.267	3203
928.373	3861
928.479	3306
928.585	3074
928.69	3180
928.796	3260
928.901	3150
929.007	3055
929.112	3176
929.218	3188
929.323	3127
929.428	3123
929.533	3321
929.638	3085
929.743	3161
929.848	3222
929.953	3161
930.058	3146
930.163	2963
930.267	3043
930.372	3165
930.477	3036
930.581	3291
930.685	3165
930.79	3051
930.894	3123
930.998	3100
931.103	3268
931.207	2944
931.311	2906
931.415	2922
931.519	2762
931.623	2834
