Data from test_V78500241_584.txt Node
Date: Fri Mar 25 16:19:14 CST 2022
User: usil
Spectrometer: V785-0024
Trigger mode: 0
Integration Time (sec): 4.000000E-1
Scans to average: 1
Nonlinearity correction enabled: false
Boxcar width: 0
Storing dark spectrum: false
XAxis mode: Wavelengths
Number of Pixels in Spectrum: 1024
>>>>>Begin Spectral Data<<<<<
801.071	2922
801.214	2948
801.356	2788
801.499	2887
801.641	2857
801.783	2902
801.926	3024
802.068	2967
802.211	2986
802.353	2994
802.496	2956
802.638	2975
802.78	3036
802.923	3013
803.065	3001
803.208	2902
803.35	2891
803.492	2895
803.635	2906
803.777	2731
803.919	2853
804.061	3180
804.204	2963
804.346	2887
804.488	2804
804.63	3013
804.773	2876
804.915	2925
805.057	3093
805.199	2941
805.341	2963
805.483	3066
805.626	2971
805.768	2933
805.91	3009
806.052	3074
806.194	3013
806.336	3237
806.478	3020
806.62	2937
806.762	2971
806.904	3036
807.046	3135
807.188	2990
807.33	2861
807.472	3017
807.614	2876
807.756	2979
807.898	2902
808.04	2876
808.182	2948
808.324	2941
808.465	2864
808.607	2868
808.749	2773
808.891	2861
809.033	2948
809.174	3001
809.316	2857
809.458	2891
809.6	2743
809.741	2746
809.883	2754
810.025	2845
810.166	2834
810.308	2861
810.45	2864
810.591	2769
810.733	2762
810.875	2826
811.016	2769
811.158	2754
811.299	2777
811.441	2918
811.582	2883
811.724	2804
811.865	2823
812.007	2933
812.148	2880
812.29	2834
812.431	2853
812.573	2929
812.714	2982
812.855	3089
812.997	3020
813.138	3089
813.279	2986
813.421	2948
813.562	2944
813.703	2880
813.845	2899
813.986	2766
814.127	2735
814.268	2807
814.41	2815
814.551	2781
814.692	2853
814.833	2804
814.974	2861
815.115	2952
815.256	2781
815.397	2823
815.539	2853
815.68	2769
815.821	2766
815.962	2918
816.103	2906
816.244	2857
816.385	2853
816.526	3005
816.666	2899
816.807	2754
816.948	2918
817.089	2922
817.23	2845
817.371	2819
817.512	2788
817.653	2838
817.793	2861
817.934	2868
818.075	2918
818.216	2956
818.356	3024
818.497	2880
818.638	2811
818.778	2811
818.919	2788
819.06	2750
819.2	2883
819.341	2746
819.481	2807
819.622	2956
819.762	3097
819.903	3020
820.043	2883
820.184	2887
820.324	2887
820.465	2994
820.605	3032
820.746	3024
820.886	2914
821.026	3074
821.167	3176
821.307	3230
821.447	3287
821.588	3218
821.728	3214
821.868	3192
822.008	3058
822.149	3180
822.289	3222
822.429	3081
822.569	3081
822.709	3165
822.849	3017
822.99	3074
823.13	3123
823.27	3184
823.41	3112
823.55	3119
823.69	3150
823.83	3176
823.97	3112
824.11	2998
824.25	2967
824.389	3032
824.529	3104
824.669	3039
824.809	3180
824.949	3249
825.089	3226
825.228	3154
825.368	2971
825.508	2956
825.648	2982
825.787	3005
825.927	3036
826.067	2971
826.206	2941
826.346	3024
826.485	3032
826.625	3112
826.765	3279
826.904	3211
827.044	2971
827.183	2929
827.323	2887
827.462	2994
827.601	2922
827.741	2914
827.88	2944
828.02	2853
828.159	2994
828.298	2998
828.437	3138
828.577	2994
828.716	3298
828.855	3077
828.994	2952
829.134	2887
829.273	2948
829.412	2929
829.551	2864
829.69	2929
829.829	2994
829.968	3157
830.107	3017
830.246	3077
830.385	2941
830.524	2910
830.663	2826
830.802	2762
830.941	2697
831.08	2686
831.219	2811
831.357	2777
831.496	2956
831.635	2735
831.774	2693
831.913	2663
832.051	2560
832.19	2606
832.329	2724
832.467	2587
832.606	2507
832.744	2640
832.883	2663
833.022	2632
833.16	2670
833.299	2701
833.437	2712
833.576	2720
833.714	2800
833.852	2743
833.991	2815
834.129	2864
834.267	2883
834.406	2830
834.544	2880
834.682	2910
834.821	2960
834.959	3123
835.097	2971
835.235	3104
835.373	3036
835.511	3047
835.65	3039
835.788	2986
835.926	2864
836.064	2838
836.202	2872
836.34	3146
836.478	3195
836.615	3104
836.753	3169
836.891	3264
837.029	3222
837.167	3165
837.305	3085
837.443	3077
837.58	2975
837.718	3188
837.856	3097
837.993	3127
838.131	3157
838.269	3142
838.406	3119
838.544	3131
838.681	2963
838.819	2948
838.956	2887
839.094	2868
839.231	2944
839.369	3081
839.506	3401
839.643	3233
839.781	3028
839.918	2990
840.055	3036
840.193	3097
840.33	3104
840.467	3131
840.604	3218
840.742	3469
840.879	3036
841.016	3093
841.153	3146
841.29	3367
841.427	3325
841.564	3291
841.701	3306
841.838	3233
841.975	3165
842.112	3260
842.249	3074
842.385	3089
842.522	3256
842.659	3112
842.796	3081
842.933	3138
843.069	3074
843.206	3062
843.343	3226
843.479	3116
843.616	3195
843.752	2937
843.889	2902
844.025	3093
844.162	2929
844.298	3123
844.435	2975
844.571	2952
844.708	3112
844.844	3226
844.98	3264
845.117	3203
845.253	3077
845.389	3020
845.525	3142
845.661	3150
845.798	3032
845.934	3150
846.07	3051
846.206	3275
846.342	3344
846.478	3249
846.614	3100
846.75	3058
846.886	3047
847.022	3256
847.158	3157
847.294	3226
847.429	3275
847.565	3260
847.701	3545
847.837	3081
847.972	3028
848.108	3173
848.244	3173
848.379	3036
848.515	2994
848.65	2941
848.786	3013
848.921	3013
849.057	3150
849.192	3180
849.328	3112
849.463	3089
849.598	3051
849.734	3055
849.869	3013
850.004	2944
850.14	2979
850.275	2967
850.41	2876
850.545	2922
850.68	2982
850.815	2986
850.95	3005
851.085	3226
851.22	3112
851.355	3055
851.49	3017
851.625	3020
851.76	3055
851.895	2979
852.03	2941
852.165	3077
852.299	3165
852.434	3207
852.569	3173
852.703	3176
852.838	3260
852.973	3291
853.107	3336
853.242	3150
853.376	3093
853.511	2979
853.645	3081
853.78	3310
853.914	3142
854.048	3135
854.183	3135
854.317	3176
854.451	3313
854.585	3157
854.72	3127
854.854	3203
854.988	3085
855.122	3157
855.256	3001
855.39	3157
855.524	3294
855.658	3157
855.792	3165
855.926	3214
856.06	3283
856.194	3283
856.327	3192
856.461	3116
856.595	3089
856.729	3150
856.862	3237
856.996	3161
857.13	3192
857.263	3241
857.397	3298
857.53	3131
857.664	3218
857.797	3211
857.931	3294
858.064	3169
858.197	3222
858.331	3173
858.464	3150
858.597	3020
858.731	3150
858.864	3173
858.997	3142
859.13	3180
859.263	3195
859.396	3237
859.529	3089
859.662	3097
859.795	3081
859.928	3180
860.061	3317
860.194	3260
860.327	3176
860.46	3116
860.592	3275
860.725	3237
860.858	3329
860.99	3127
861.123	3070
861.256	3051
861.388	3142
861.521	3751
861.653	3009
861.786	3028
861.918	3009
862.05	3097
862.183	3123
862.315	3199
862.447	3237
862.58	3123
862.712	2994
862.844	2933
862.976	3066
863.108	3039
863.24	3462
863.372	2868
863.504	2990
863.636	2998
863.768	3066
863.9	3047
864.032	2910
864.164	2979
864.296	3047
864.428	3085
864.559	3116
864.691	3093
864.823	3062
864.954	3047
865.086	3055
865.217	3051
865.349	2986
865.48	2967
865.612	3051
865.743	3150
865.875	3020
866.006	2967
866.137	2998
866.269	2986
866.4	2948
866.531	2967
866.662	2887
866.793	2914
866.924	2925
867.055	3005
867.186	2948
867.317	2933
867.448	2883
867.579	2868
867.71	2868
867.841	2853
867.972	2922
868.103	2941
868.233	2887
868.364	2864
868.495	2941
868.625	3097
868.756	3157
868.886	3024
869.017	3077
869.147	3165
869.278	3214
869.408	3058
869.539	3077
869.669	3161
869.799	3070
869.929	3146
870.06	3142
870.19	3363
870.32	3313
870.45	3321
870.58	3382
870.71	3466
870.84	3466
870.97	3298
871.1	3279
871.23	3511
871.36	3481
871.489	3374
871.619	3431
871.749	3458
871.879	3496
872.008	3549
872.138	3393
872.267	3275
872.397	3161
872.526	3123
872.656	3028
872.785	3100
872.915	3249
873.044	3302
873.173	3264
873.303	3230
873.432	3298
873.561	3241
873.69	3188
873.819	3176
873.948	3214
874.077	3138
874.206	3062
874.335	3089
874.464	3226
874.593	3382
874.722	3249
874.851	3424
874.979	3344
875.108	3359
875.237	3218
875.365	3146
875.494	3211
875.623	3245
875.751	3157
875.88	3154
876.008	3211
876.136	3245
876.265	3389
876.393	3496
876.521	3443
876.65	3386
876.778	3367
876.906	3298
877.034	3207
877.162	3268
877.29	3157
877.418	3253
877.546	3253
877.674	3253
877.802	3260
877.93	3199
878.058	3203
878.185	3104
878.313	3241
878.441	3180
878.568	3043
878.696	3173
878.824	3298
878.951	3374
879.079	3458
879.206	3603
879.333	3473
879.461	3348
879.588	3374
879.715	3458
879.842	3557
879.97	3416
880.097	3222
880.224	3150
880.351	3218
880.478	3188
880.605	3222
880.732	3222
880.859	3523
880.986	3329
881.112	3329
881.239	3233
881.366	3112
881.493	3058
881.619	3036
881.746	3100
881.872	3100
881.999	3135
882.125	3180
882.252	3272
882.378	3313
882.505	3443
882.631	3291
882.757	3188
882.883	3214
883.01	3237
883.136	3176
883.262	3097
883.388	3131
883.514	3332
883.64	3420
883.766	3340
883.892	3180
884.018	3230
884.143	3439
884.269	3584
884.395	3237
884.52	3192
884.646	3211
884.772	3123
884.897	3169
885.023	3245
885.148	3374
885.274	3420
885.399	3363
885.524	3268
885.65	3264
885.775	3359
885.9	3264
886.025	3469
886.15	3397
886.275	3348
886.4	3241
886.525	3313
886.65	3313
886.775	3256
886.9	3504
887.025	3625
887.149	3416
887.274	3294
887.399	3195
887.523	3203
887.648	3203
887.773	3195
887.897	3401
888.021	3462
888.146	3348
888.27	3458
888.395	3526
888.519	3458
888.643	3466
888.767	3466
888.891	3306
889.015	3237
889.139	3298
889.263	3253
889.387	3401
889.511	3530
889.635	3485
889.759	3325
889.883	3302
890.006	3435
890.13	3492
890.254	3302
890.377	3340
890.501	3199
890.624	3218
890.748	3291
890.871	3214
890.995	3146
891.118	3081
891.241	3199
891.364	3268
891.488	3359
891.611	3203
891.734	3268
891.857	3302
891.98	3233
892.103	3363
892.226	3291
892.349	3222
892.471	3157
892.594	3241
892.717	3329
892.839	3329
892.962	3329
893.085	3363
893.207	3306
893.33	3131
893.452	3218
893.575	3378
893.697	3291
893.819	3473
893.941	3526
894.064	3477
894.186	3268
894.308	3253
894.43	3454
894.552	3523
894.674	3469
894.796	3298
894.918	3355
895.04	3291
895.161	3435
895.283	3420
895.405	3348
895.526	3367
895.648	3435
895.769	3424
895.891	3454
896.012	3458
896.134	3496
896.255	3382
896.376	3332
896.498	3370
896.619	3439
896.74	3367
896.861	3397
896.982	3720
897.103	3880
897.224	3568
897.345	3530
897.466	3450
897.587	3500
897.708	3614
897.828	3557
897.949	3481
898.07	3370
898.19	3412
898.311	3625
898.431	3397
898.552	3576
898.672	3580
898.792	3576
898.913	3534
899.033	3409
899.153	3272
899.273	3264
899.393	3302
899.513	3332
899.633	3351
899.753	3355
899.873	3310
899.993	3359
900.113	3355
900.232	3393
900.352	3348
900.472	3294
900.591	3203
900.711	3302
900.83	3279
900.95	3481
901.069	3507
901.189	3359
901.308	3192
901.427	3165
901.546	3222
901.665	3317
901.784	3325
901.904	3203
902.023	3142
902.141	3062
902.26	3009
902.379	3146
902.498	3062
902.617	3039
902.735	3184
902.854	3253
902.973	3237
903.091	3051
903.21	3058
903.328	3142
903.446	3097
903.565	3104
903.683	3207
903.801	3131
903.919	3256
904.038	3291
904.156	3199
904.274	3329
904.392	3241
904.51	3279
904.627	3359
904.745	3481
904.863	3496
904.981	3306
905.098	3192
905.216	3241
905.334	3313
905.451	3332
905.569	3325
905.686	3477
905.803	3488
905.921	3321
906.038	3435
906.155	3370
906.272	3291
906.389	3355
906.506	3241
906.623	3253
906.74	3294
906.857	3207
906.974	3279
907.091	3481
907.208	3568
907.324	3443
907.441	3416
907.557	3214
907.674	3287
907.79	3233
907.907	3264
908.023	3416
908.139	3389
908.256	3351
908.372	3363
908.488	3370
908.604	3287
908.72	3233
908.836	3294
908.952	3298
909.068	3340
909.184	3496
909.3	3405
909.415	3511
909.531	3458
909.647	3283
909.762	3283
909.878	3253
909.993	3348
910.108	3351
910.224	3336
910.339	3409
910.454	3363
910.57	3294
910.685	3264
910.8	3576
910.915	3553
911.03	3420
911.145	3249
911.259	3279
911.374	3283
911.489	3279
911.604	3241
911.718	3116
911.833	3184
911.947	3020
912.062	2952
912.176	3169
912.291	3211
912.405	3199
912.519	3416
912.633	3469
912.748	3355
912.862	3279
912.976	3131
913.09	3077
913.204	3135
913.318	3218
913.431	3355
913.545	3329
913.659	3435
913.772	3367
913.886	3260
914	3253
914.113	3363
914.226	3431
914.34	3382
914.453	3195
914.566	3424
914.68	3298
914.793	3325
914.906	3150
915.019	3097
915.132	3074
915.245	3169
915.358	3218
915.47	3230
915.583	3275
915.696	3302
915.809	3405
915.921	3424
916.034	3268
916.146	3279
916.259	3253
916.371	3397
916.483	3367
916.595	3260
916.708	3363
916.82	3359
916.932	3317
917.044	3363
917.156	3370
917.268	3245
917.38	3306
917.491	3279
917.603	3355
917.715	3454
917.826	3462
917.938	3374
918.049	3283
918.161	3439
918.272	3591
918.384	3599
918.495	3492
918.606	3359
918.717	3279
918.828	3393
918.939	3386
919.05	3336
919.161	3401
919.272	3142
919.383	3294
919.494	3507
919.604	3663
919.715	3500
919.826	3428
919.936	3473
920.047	3603
920.157	3557
920.267	3762
920.378	3625
920.488	3564
920.598	3774
920.708	3934
920.818	3808
920.928	3827
921.038	4002
921.148	3998
921.258	3728
921.368	3629
921.477	3557
921.587	3542
921.697	3439
921.806	3652
921.916	3519
922.025	3351
922.134	3386
922.244	3363
922.353	3443
922.462	3268
922.571	3222
922.68	3112
922.789	3108
922.898	3123
923.007	3089
923.116	3218
923.224	3165
923.333	3203
923.442	3097
923.55	3089
923.659	3165
923.767	3214
923.876	3108
923.984	3226
924.092	3123
924.201	3222
924.309	3214
924.417	3233
924.525	3207
924.633	3241
924.741	4010
924.849	3070
924.956	3249
925.064	3062
925.172	3036
925.279	3104
925.387	3195
925.494	3188
925.602	3374
925.709	3355
925.816	3180
925.924	3275
926.031	3359
926.138	3363
926.245	3367
926.352	3226
926.459	3443
926.566	3504
926.673	3306
926.779	3302
926.886	3272
926.993	3157
927.099	3127
927.206	3085
927.312	3074
927.419	3226
927.525	3218
927.631	3226
927.737	3131
927.843	3116
927.95	3017
928.056	3119
928.162	3192
928.267	3211
928.373	3793
928.479	3302
928.585	3081
928.69	3211
928.796	3264
928.901	3157
929.007	3005
929.112	3199
929.218	3188
929.323	3173
929.428	3131
929.533	3294
929.638	3131
929.743	3188
929.848	3253
929.953	3188
930.058	3131
930.163	3005
930.267	3036
930.372	3176
930.477	3036
930.581	3298
930.685	3184
930.79	3070
930.894	3150
930.998	3070
931.103	3272
931.207	2967
931.311	2918
931.415	2941
931.519	2788
931.623	2819
