Data from test_V78500241_274.txt Node
Date: Fri Mar 25 16:17:06 CST 2022
User: usil
Spectrometer: V785-0024
Trigger mode: 0
Integration Time (sec): 4.000000E-1
Scans to average: 1
Nonlinearity correction enabled: false
Boxcar width: 0
Storing dark spectrum: false
XAxis mode: Wavelengths
Number of Pixels in Spectrum: 1024
>>>>>Begin Spectral Data<<<<<
801.071	2941
801.214	2967
801.356	2910
801.499	2937
801.641	2906
801.783	2963
801.926	3066
802.068	3020
802.211	3017
802.353	3074
802.496	3005
802.638	3051
802.78	3028
802.923	3097
803.065	3024
803.208	2952
803.35	2933
803.492	2967
803.635	2952
803.777	2769
803.919	2853
804.061	3222
804.204	3009
804.346	2963
804.488	2861
804.63	3009
804.773	2933
804.915	2918
805.057	3100
805.199	2960
805.341	2963
805.483	3097
805.626	3020
805.768	2986
805.91	3150
806.052	3097
806.194	3070
806.336	3283
806.478	3005
806.62	2975
806.762	2986
806.904	3100
807.046	3195
807.188	3043
807.33	2933
807.472	2982
807.614	2899
807.756	2971
807.898	2937
808.04	2963
808.182	3020
808.324	2986
808.465	2922
808.607	2899
808.749	2800
808.891	2857
809.033	2963
809.174	2967
809.316	2906
809.458	2937
809.6	2845
809.741	2788
809.883	2807
810.025	2857
810.166	2887
810.308	2868
810.45	2857
810.591	2788
810.733	2796
810.875	2849
811.016	2800
811.158	2773
811.299	2853
811.441	2922
811.582	2937
811.724	2861
811.865	2838
812.007	2952
812.148	2906
812.29	2864
812.431	2902
812.573	2952
812.714	2982
812.855	3074
812.997	3047
813.138	3138
813.279	3020
813.421	2998
813.562	2975
813.703	2895
813.845	2891
813.986	2785
814.127	2746
814.268	2861
814.41	2849
814.551	2872
814.692	2914
814.833	2819
814.974	2902
815.115	2952
815.256	2849
815.397	2834
815.539	2872
815.68	2804
815.821	2804
815.962	2944
816.103	2956
816.244	2918
816.385	2864
816.526	2971
816.666	2956
816.807	2750
816.948	2910
817.089	2918
817.23	2868
817.371	2796
817.512	2826
817.653	2838
817.793	2842
817.934	2899
818.075	2990
818.216	2941
818.356	3039
818.497	2937
818.638	2830
818.778	2853
818.919	2792
819.06	2796
819.2	2899
819.341	2849
819.481	2857
819.622	2952
819.762	3123
819.903	3093
820.043	2982
820.184	2906
820.324	2906
820.465	3066
820.605	3051
820.746	3028
820.886	2967
821.026	3104
821.167	3192
821.307	3294
821.447	3306
821.588	3260
821.728	3222
821.868	3222
822.008	3093
822.149	3161
822.289	3268
822.429	3104
822.569	3116
822.709	3218
822.849	3074
822.99	3104
823.13	3211
823.27	3253
823.41	3119
823.55	3165
823.69	3165
823.83	3192
823.97	3127
824.11	3005
824.25	3028
824.389	3097
824.529	3138
824.669	3070
824.809	3226
824.949	3275
825.089	3260
825.228	3127
825.368	3017
825.508	2975
825.648	2998
825.787	3024
825.927	3032
826.067	2994
826.206	3013
826.346	3055
826.485	3093
826.625	3150
826.765	3241
826.904	3218
827.044	2967
827.183	2952
827.323	2861
827.462	2994
827.601	2937
827.741	2925
827.88	3013
828.02	2849
828.159	2975
828.298	3055
828.437	3127
828.577	3036
828.716	3253
828.855	3100
828.994	2914
829.134	2887
829.273	2944
829.412	2880
829.551	2849
829.69	2891
829.829	2986
829.968	3173
830.107	3058
830.246	3036
830.385	2929
830.524	2872
830.663	2838
830.802	2754
830.941	2689
831.08	2670
831.219	2762
831.357	2754
831.496	2952
831.635	2735
831.774	2655
831.913	2667
832.051	2571
832.19	2587
832.329	2689
832.467	2560
832.606	2488
832.744	2583
832.883	2575
833.022	2610
833.16	2659
833.299	2708
833.437	2720
833.576	2716
833.714	2720
833.852	2720
833.991	2811
834.129	2838
834.267	2842
834.406	2807
834.544	2902
834.682	2842
834.821	2868
834.959	3093
835.097	2902
835.235	3074
835.373	3001
835.511	3024
835.65	2963
835.788	2982
835.926	2842
836.064	2830
836.202	2861
836.34	3123
836.478	3119
836.615	3055
836.753	3146
836.891	3203
837.029	3157
837.167	3093
837.305	3112
837.443	3020
837.58	2986
837.718	3127
837.856	3081
837.993	3036
838.131	3154
838.269	3104
838.406	3138
838.544	3108
838.681	2952
838.819	2933
838.956	2849
839.094	2899
839.231	2929
839.369	3013
839.506	3355
839.643	3207
839.781	3047
839.918	2990
840.055	3032
840.193	3032
840.33	3123
840.467	3097
840.604	3135
840.742	3424
840.879	3032
841.016	3085
841.153	3104
841.29	3329
841.427	3317
841.564	3256
841.701	3329
841.838	3203
841.975	3184
842.112	3230
842.249	3119
842.385	3047
842.522	3253
842.659	3089
842.796	3093
842.933	3161
843.069	3017
843.206	3074
843.343	3199
843.479	3100
843.616	3112
843.752	2914
843.889	2891
844.025	3097
844.162	2883
844.298	3070
844.435	2906
844.571	2899
844.708	3066
844.844	3211
844.98	3264
845.117	3211
845.253	3081
845.389	2994
845.525	3097
845.661	3142
845.798	2971
845.934	3138
846.07	3077
846.206	3222
846.342	3363
846.478	3237
846.614	3081
846.75	3100
846.886	3005
847.022	3264
847.158	3150
847.294	3199
847.429	3230
847.565	3241
847.701	3511
847.837	3028
847.972	2994
848.108	3157
848.244	3135
848.379	2971
848.515	2967
848.65	2933
848.786	2979
848.921	3009
849.057	3112
849.192	3157
849.328	3055
849.463	3142
849.598	3097
849.734	3058
849.869	2971
850.004	2925
850.14	2994
850.275	2918
850.41	2845
850.545	2914
850.68	2929
850.815	2952
850.95	2971
851.085	3195
851.22	3154
851.355	3009
851.49	3001
851.625	3055
851.76	3036
851.895	2941
852.03	2906
852.165	3062
852.299	3154
852.434	3230
852.569	3131
852.703	3207
852.838	3226
852.973	3370
853.107	3359
853.242	3169
853.376	3097
853.511	2975
853.645	3074
853.78	3260
853.914	3150
854.048	3108
854.183	3081
854.317	3161
854.451	3336
854.585	3180
854.72	3112
854.854	3188
854.988	3028
855.122	3119
855.256	2956
855.39	3074
855.524	3264
855.658	3157
855.792	3154
855.926	3203
856.06	3214
856.194	3268
856.327	3176
856.461	3062
856.595	3066
856.729	3093
856.862	3226
856.996	3161
857.13	3176
857.263	3237
857.397	3260
857.53	3138
857.664	3173
857.797	3207
857.931	3241
858.064	3173
858.197	3211
858.331	3123
858.464	3100
858.597	2986
858.731	3161
858.864	3123
858.997	3089
859.13	3165
859.263	3165
859.396	3157
859.529	3108
859.662	3089
859.795	3074
859.928	3165
860.061	3298
860.194	3313
860.327	3135
860.46	3112
860.592	3233
860.725	3279
860.858	3249
860.99	3142
861.123	3024
861.256	3070
861.388	3180
861.521	3880
861.653	3020
861.786	3024
861.918	2967
862.05	3104
862.183	3116
862.315	3165
862.447	3207
862.58	3085
862.712	2971
862.844	2861
862.976	3062
863.108	2998
863.24	3359
863.372	2887
863.504	2975
863.636	2986
863.768	2998
863.9	2994
864.032	2933
864.164	2933
864.296	3036
864.428	3104
864.559	3108
864.691	3081
864.823	3051
864.954	3001
865.086	3055
865.217	3009
865.349	2967
865.48	2975
865.612	2971
865.743	3131
865.875	2994
866.006	2948
866.137	2967
866.269	2956
866.4	2906
866.531	2929
866.662	2849
866.793	2883
866.924	2922
867.055	2998
867.186	2914
867.317	2887
867.448	2838
867.579	2857
867.71	2864
867.841	2781
867.972	2914
868.103	2918
868.233	2895
868.364	2872
868.495	2883
868.625	3077
868.756	3138
868.886	3005
869.017	3020
869.147	3184
869.278	3157
869.408	3093
869.539	3013
869.669	3100
869.799	3036
869.929	3089
870.06	3104
870.19	3355
870.32	3233
870.45	3306
870.58	3355
870.71	3435
870.84	3477
870.97	3340
871.1	3214
871.23	3466
871.36	3485
871.489	3397
871.619	3378
871.749	3367
871.879	3439
872.008	3515
872.138	3332
872.267	3260
872.397	3135
872.526	3093
872.656	2982
872.785	3066
872.915	3237
873.044	3332
873.173	3237
873.303	3260
873.432	3253
873.561	3245
873.69	3154
873.819	3142
873.948	3184
874.077	3112
874.206	3017
874.335	3104
874.464	3230
874.593	3348
874.722	3195
874.851	3367
874.979	3382
875.108	3291
875.237	3195
875.365	3154
875.494	3176
875.623	3207
875.751	3066
875.88	3074
876.008	3199
876.136	3184
876.265	3393
876.393	3542
876.521	3401
876.65	3409
876.778	3313
876.906	3256
877.034	3203
877.162	3249
877.29	3222
877.418	3249
877.546	3272
877.674	3245
877.802	3256
877.93	3233
878.058	3146
878.185	3116
878.313	3218
878.441	3222
878.568	3074
878.696	3184
878.824	3230
878.951	3313
879.079	3458
879.206	3610
879.333	3485
879.461	3351
879.588	3344
879.715	3477
879.842	3610
879.97	3401
880.097	3176
880.224	3142
880.351	3180
880.478	3188
880.605	3165
880.732	3176
880.859	3466
880.986	3332
881.112	3340
881.239	3203
881.366	3081
881.493	3024
881.619	3028
881.746	3039
881.872	3074
881.999	3119
882.125	3157
882.252	3226
882.378	3313
882.505	3431
882.631	3310
882.757	3131
882.883	3192
883.01	3230
883.136	3165
883.262	3112
883.388	3116
883.514	3306
883.64	3386
883.766	3340
883.892	3184
884.018	3245
884.143	3420
884.269	3500
884.395	3230
884.52	3169
884.646	3199
884.772	3154
884.897	3119
885.023	3176
885.148	3340
885.274	3443
885.399	3378
885.524	3298
885.65	3256
885.775	3329
885.9	3302
886.025	3439
886.15	3325
886.275	3321
886.4	3245
886.525	3344
886.65	3306
886.775	3268
886.9	3492
887.025	3641
887.149	3401
887.274	3226
887.399	3188
887.523	3180
887.648	3199
887.773	3195
887.897	3386
888.021	3382
888.146	3317
888.27	3481
888.395	3545
888.519	3443
888.643	3435
888.767	3500
888.891	3313
889.015	3317
889.139	3313
889.263	3268
889.387	3435
889.511	3553
889.635	3458
889.759	3325
889.883	3294
890.006	3378
890.13	3511
890.254	3275
890.377	3351
890.501	3222
890.624	3184
890.748	3321
890.871	3195
890.995	3138
891.118	3089
891.241	3192
891.364	3214
891.488	3329
891.611	3154
891.734	3237
891.857	3291
891.98	3245
892.103	3329
892.226	3291
892.349	3237
892.471	3138
892.594	3203
892.717	3325
892.839	3256
892.962	3325
893.085	3367
893.207	3317
893.33	3154
893.452	3211
893.575	3317
893.697	3245
893.819	3443
893.941	3488
894.064	3458
894.186	3237
894.308	3272
894.43	3450
894.552	3557
894.674	3466
894.796	3260
894.918	3329
895.04	3287
895.161	3428
895.283	3405
895.405	3287
895.526	3370
895.648	3409
895.769	3439
895.891	3454
896.012	3439
896.134	3466
896.255	3382
896.376	3382
896.498	3355
896.619	3439
896.74	3374
896.861	3389
896.982	3682
897.103	3846
897.224	3561
897.345	3507
897.466	3431
897.587	3515
897.708	3618
897.828	3542
897.949	3424
898.07	3340
898.19	3424
898.311	3603
898.431	3439
898.552	3538
898.672	3576
898.792	3610
898.913	3485
899.033	3378
899.153	3294
899.273	3230
899.393	3321
899.513	3321
899.633	3313
899.753	3325
899.873	3351
899.993	3363
900.113	3332
900.232	3393
900.352	3351
900.472	3253
900.591	3150
900.711	3287
900.83	3226
900.95	3428
901.069	3515
901.189	3340
901.308	3184
901.427	3097
901.546	3241
901.665	3275
901.784	3348
901.904	3214
902.023	3150
902.141	3024
902.26	3013
902.379	3146
902.498	3089
902.617	3062
902.735	3184
902.854	3237
902.973	3199
903.091	3043
903.21	3062
903.328	3119
903.446	3138
903.565	3089
903.683	3211
903.801	3123
903.919	3230
904.038	3298
904.156	3157
904.274	3260
904.392	3302
904.51	3283
904.627	3370
904.745	3416
904.863	3504
904.981	3283
905.098	3195
905.216	3272
905.334	3317
905.451	3302
905.569	3355
905.686	3416
905.803	3492
905.921	3291
906.038	3416
906.155	3367
906.272	3264
906.389	3321
906.506	3241
906.623	3298
906.74	3310
906.857	3199
906.974	3260
907.091	3431
907.208	3584
907.324	3496
907.441	3397
907.557	3226
907.674	3214
907.79	3226
907.907	3291
908.023	3405
908.139	3409
908.256	3325
908.372	3374
908.488	3367
908.604	3287
908.72	3291
908.836	3287
908.952	3249
909.068	3367
909.184	3492
909.3	3389
909.415	3507
909.531	3462
909.647	3249
909.762	3302
909.878	3268
909.993	3382
910.108	3355
910.224	3351
910.339	3401
910.454	3344
910.57	3291
910.685	3306
910.8	3618
910.915	3564
911.03	3443
911.145	3237
911.259	3321
911.374	3332
911.489	3222
911.604	3237
911.718	3146
911.833	3157
911.947	3020
912.062	2990
912.176	3150
912.291	3207
912.405	3226
912.519	3428
912.633	3447
912.748	3321
912.862	3306
912.976	3123
913.09	3074
913.204	3100
913.318	3203
913.431	3344
913.545	3348
913.659	3431
913.772	3351
913.886	3226
914	3192
914.113	3348
914.226	3412
914.34	3348
914.453	3199
914.566	3424
914.68	3283
914.793	3325
914.906	3157
915.019	3135
915.132	3074
915.245	3173
915.358	3176
915.47	3256
915.583	3233
915.696	3317
915.809	3416
915.921	3428
916.034	3283
916.146	3241
916.259	3233
916.371	3378
916.483	3378
916.595	3256
916.708	3340
916.82	3344
916.932	3329
917.044	3340
917.156	3359
917.268	3245
917.38	3310
917.491	3325
917.603	3378
917.715	3401
917.826	3458
917.938	3382
918.049	3245
918.161	3458
918.272	3576
918.384	3530
918.495	3511
918.606	3351
918.717	3306
918.828	3359
918.939	3424
919.05	3325
919.161	3412
919.272	3150
919.383	3291
919.494	3507
919.604	3629
919.715	3481
919.826	3450
919.936	3439
920.047	3576
920.157	3526
920.267	3751
920.378	3606
920.488	3599
920.598	3759
920.708	3937
920.818	3857
920.928	3838
921.038	4017
921.148	3983
921.258	3713
921.368	3648
921.477	3549
921.587	3542
921.697	3416
921.806	3656
921.916	3561
922.025	3348
922.134	3378
922.244	3321
922.353	3416
922.462	3279
922.571	3214
922.68	3123
922.789	3085
922.898	3146
923.007	3127
923.116	3192
923.224	3154
923.333	3195
923.442	3116
923.55	3081
923.659	3165
923.767	3245
923.876	3108
923.984	3211
924.092	3058
924.201	3199
924.309	3192
924.417	3245
924.525	3173
924.633	3249
924.741	4185
924.849	3028
924.956	3264
925.064	3093
925.172	3047
925.279	3097
925.387	3195
925.494	3199
925.602	3367
925.709	3321
925.816	3150
925.924	3294
926.031	3374
926.138	3344
926.245	3382
926.352	3253
926.459	3435
926.566	3462
926.673	3317
926.779	3226
926.886	3253
926.993	3142
927.099	3093
927.206	3089
927.312	3104
927.419	3188
927.525	3192
927.631	3287
927.737	3142
927.843	3142
927.95	3013
928.056	3173
928.162	3150
928.267	3272
928.373	3861
928.479	3317
928.585	3135
928.69	3253
928.796	3256
928.901	3180
929.007	3047
929.112	3199
929.218	3199
929.323	3146
929.428	3173
929.533	3291
929.638	3108
929.743	3188
929.848	3287
929.953	3222
930.058	3157
930.163	2994
930.267	3055
930.372	3199
930.477	3081
930.581	3351
930.685	3157
930.79	3055
930.894	3119
930.998	3108
931.103	3249
931.207	2952
931.311	2952
931.415	2948
931.519	2758
931.623	2830
