Data from test_V78500241_428.txt Node
Date: Fri Mar 25 16:18:10 CST 2022
User: usil
Spectrometer: V785-0024
Trigger mode: 0
Integration Time (sec): 4.000000E-1
Scans to average: 1
Nonlinearity correction enabled: false
Boxcar width: 0
Storing dark spectrum: false
XAxis mode: Wavelengths
Number of Pixels in Spectrum: 1024
>>>>>Begin Spectral Data<<<<<
801.071	2944
801.214	3013
801.356	2891
801.499	2944
801.641	2899
801.783	2937
801.926	3089
802.068	2986
802.211	3028
802.353	3043
802.496	2986
802.638	3024
802.78	3055
802.923	3104
803.065	3062
803.208	2929
803.35	2941
803.492	2948
803.635	2990
803.777	2769
803.919	2887
804.061	3230
804.204	2986
804.346	2952
804.488	2891
804.63	3024
804.773	2872
804.915	2922
805.057	3104
805.199	2941
805.341	2994
805.483	3077
805.626	3024
805.768	2944
805.91	3112
806.052	3116
806.194	3089
806.336	3230
806.478	3066
806.62	2979
806.762	2967
806.904	3081
807.046	3207
807.188	2971
807.33	2925
807.472	3001
807.614	2960
807.756	3043
807.898	2941
808.04	2933
808.182	2979
808.324	2960
808.465	2906
808.607	2937
808.749	2788
808.891	2861
809.033	3028
809.174	2990
809.316	2910
809.458	2925
809.6	2819
809.741	2811
809.883	2777
810.025	2857
810.166	2887
810.308	2849
810.45	2872
810.591	2811
810.733	2785
810.875	2887
811.016	2758
811.158	2762
811.299	2823
811.441	2910
811.582	2868
811.724	2861
811.865	2804
812.007	2929
812.148	2910
812.29	2887
812.431	2925
812.573	2952
812.714	2982
812.855	3077
812.997	3043
813.138	3119
813.279	2994
813.421	2986
813.562	2971
813.703	2887
813.845	2933
813.986	2811
814.127	2785
814.268	2876
814.41	2823
814.551	2853
814.692	2902
814.833	2849
814.974	2906
815.115	2960
815.256	2834
815.397	2826
815.539	2864
815.68	2746
815.821	2842
815.962	2952
816.103	2902
816.244	2922
816.385	2895
816.526	2998
816.666	2967
816.807	2758
816.948	2914
817.089	2922
817.23	2861
817.371	2804
817.512	2830
817.653	2861
817.793	2830
817.934	2910
818.075	2986
818.216	2990
818.356	3032
818.497	2914
818.638	2830
818.778	2857
818.919	2807
819.06	2769
819.2	2872
819.341	2834
819.481	2838
819.622	2960
819.762	3097
819.903	3051
820.043	2925
820.184	2899
820.324	2929
820.465	3043
820.605	3043
820.746	3047
820.886	2967
821.026	3100
821.167	3184
821.307	3268
821.447	3260
821.588	3226
821.728	3214
821.868	3207
822.008	3074
822.149	3214
822.289	3230
822.429	3089
822.569	3077
822.709	3192
822.849	3062
822.99	3089
823.13	3188
823.27	3199
823.41	3127
823.55	3176
823.69	3188
823.83	3222
823.97	3123
824.11	3017
824.25	2994
824.389	3070
824.529	3146
824.669	3077
824.809	3222
824.949	3291
825.089	3253
825.228	3173
825.368	3005
825.508	2956
825.648	2998
825.787	3013
825.927	3074
826.067	2963
826.206	2941
826.346	3070
826.485	3097
826.625	3100
826.765	3291
826.904	3245
827.044	2963
827.183	2982
827.323	2883
827.462	2979
827.601	2914
827.741	2971
827.88	2941
828.02	2872
828.159	2998
828.298	3055
828.437	3146
828.577	3028
828.716	3214
828.855	3123
828.994	2937
829.134	2899
829.273	2899
829.412	2899
829.551	2872
829.69	2910
829.829	3005
829.968	3116
830.107	3024
830.246	3005
830.385	2887
830.524	2948
830.663	2811
830.802	2739
830.941	2655
831.08	2667
831.219	2781
831.357	2754
831.496	2986
831.635	2720
831.774	2655
831.913	2651
832.051	2556
832.19	2602
832.329	2689
832.467	2575
832.606	2480
832.744	2587
832.883	2602
833.022	2610
833.16	2674
833.299	2720
833.437	2708
833.576	2689
833.714	2750
833.852	2743
833.991	2750
834.129	2826
834.267	2842
834.406	2796
834.544	2895
834.682	2853
834.821	2872
834.959	3066
835.097	2918
835.235	3066
835.373	3017
835.511	3032
835.65	2948
835.788	2963
835.926	2834
836.064	2823
836.202	2823
836.34	3104
836.478	3157
836.615	3028
836.753	3146
836.891	3230
837.029	3176
837.167	3138
837.305	3066
837.443	3032
837.58	2960
837.718	3165
837.856	3074
837.993	3058
838.131	3123
838.269	3135
838.406	3123
838.544	3097
838.681	2982
838.819	2906
838.956	2826
839.094	2838
839.231	2941
839.369	3013
839.506	3405
839.643	3218
839.781	3001
839.918	2960
840.055	3055
840.193	3047
840.33	3062
840.467	3123
840.604	3157
840.742	3397
840.879	3058
841.016	3039
841.153	3097
841.29	3332
841.427	3294
841.564	3275
841.701	3321
841.838	3192
841.975	3176
842.112	3256
842.249	3085
842.385	3043
842.522	3260
842.659	3104
842.796	3055
842.933	3138
843.069	3077
843.206	3081
843.343	3214
843.479	3135
843.616	3154
843.752	2918
843.889	2880
844.025	3066
844.162	2876
844.298	3089
844.435	2975
844.571	2960
844.708	3093
844.844	3203
844.98	3233
845.117	3161
845.253	3047
845.389	2982
845.525	3093
845.661	3081
845.798	2990
845.934	3108
846.07	3066
846.206	3165
846.342	3340
846.478	3233
846.614	3062
846.75	3051
846.886	3001
847.022	3283
847.158	3142
847.294	3214
847.429	3260
847.565	3214
847.701	3488
847.837	3051
847.972	3013
848.108	3169
848.244	3142
848.379	3013
848.515	2937
848.65	2925
848.786	2944
848.921	3032
849.057	3100
849.192	3108
849.328	3055
849.463	3081
849.598	3062
849.734	3077
849.869	2994
850.004	2914
850.14	2948
850.275	2944
850.41	2845
850.545	2910
850.68	2933
850.815	2944
850.95	2971
851.085	3161
851.22	3108
851.355	3058
851.49	2994
851.625	3017
851.76	3032
851.895	2918
852.03	2914
852.165	3017
852.299	3089
852.434	3165
852.569	3150
852.703	3165
852.838	3249
852.973	3348
853.107	3359
853.242	3169
853.376	3062
853.511	2960
853.645	3066
853.78	3230
853.914	3116
854.048	3123
854.183	3081
854.317	3116
854.451	3279
854.585	3127
854.72	3108
854.854	3169
854.988	3051
855.122	3104
855.256	2941
855.39	3112
855.524	3253
855.658	3188
855.792	3135
855.926	3184
856.06	3245
856.194	3298
856.327	3157
856.461	3085
856.595	3066
856.729	3127
856.862	3218
856.996	3199
857.13	3180
857.263	3260
857.397	3279
857.53	3100
857.664	3199
857.797	3211
857.931	3253
858.064	3142
858.197	3226
858.331	3127
858.464	3066
858.597	2998
858.731	3116
858.864	3116
858.997	3108
859.13	3138
859.263	3184
859.396	3207
859.529	3131
859.662	3051
859.795	3051
859.928	3123
860.061	3298
860.194	3306
860.327	3100
860.46	3116
860.592	3245
860.725	3249
860.858	3241
860.99	3081
861.123	3039
861.256	3036
861.388	3146
861.521	3975
861.653	3020
861.786	3001
861.918	3001
862.05	3055
862.183	3089
862.315	3150
862.447	3218
862.58	3081
862.712	2933
862.844	2864
862.976	3017
863.108	3001
863.24	3435
863.372	2906
863.504	2952
863.636	2979
863.768	3009
863.9	3005
864.032	2914
864.164	2944
864.296	2979
864.428	3062
864.559	3051
864.691	3127
864.823	3055
864.954	3013
865.086	3070
865.217	2982
865.349	2937
865.48	2982
865.612	2986
865.743	3119
865.875	2994
866.006	2952
866.137	2975
866.269	2963
866.4	2952
866.531	2925
866.662	2902
866.793	2883
866.924	2895
867.055	2925
867.186	2891
867.317	2868
867.448	2861
867.579	2864
867.71	2834
867.841	2811
867.972	2895
868.103	2914
868.233	2929
868.364	2872
868.495	2872
868.625	3062
868.756	3157
868.886	2971
869.017	3028
869.147	3165
869.278	3150
869.408	3047
869.539	3009
869.669	3104
869.799	3020
869.929	3173
870.06	3066
870.19	3332
870.32	3279
870.45	3317
870.58	3340
870.71	3466
870.84	3424
870.97	3253
871.1	3264
871.23	3469
871.36	3473
871.489	3374
871.619	3378
871.749	3401
871.879	3439
872.008	3443
872.138	3359
872.267	3249
872.397	3135
872.526	3081
872.656	3009
872.785	3077
872.915	3256
873.044	3321
873.173	3249
873.303	3260
873.432	3226
873.561	3249
873.69	3131
873.819	3188
873.948	3218
874.077	3058
874.206	3043
874.335	3085
874.464	3211
874.593	3355
874.722	3230
874.851	3378
874.979	3321
875.108	3359
875.237	3203
875.365	3169
875.494	3169
875.623	3218
875.751	3062
875.88	3127
876.008	3218
876.136	3226
876.265	3351
876.393	3530
876.521	3409
876.65	3382
876.778	3336
876.906	3241
877.034	3211
877.162	3253
877.29	3176
877.418	3230
877.546	3253
877.674	3279
877.802	3256
877.93	3233
878.058	3188
878.185	3116
878.313	3199
878.441	3214
878.568	3017
878.696	3116
878.824	3256
878.951	3321
879.079	3405
879.206	3641
879.333	3431
879.461	3317
879.588	3344
879.715	3488
879.842	3595
879.97	3325
880.097	3146
880.224	3108
880.351	3188
880.478	3241
880.605	3184
880.732	3173
880.859	3549
880.986	3317
881.112	3310
881.239	3230
881.366	3116
881.493	3043
881.619	2994
881.746	3097
881.872	3055
881.999	3108
882.125	3150
882.252	3207
882.378	3287
882.505	3428
882.631	3298
882.757	3135
882.883	3184
883.01	3222
883.136	3161
883.262	3089
883.388	3127
883.514	3325
883.64	3363
883.766	3348
883.892	3207
884.018	3272
884.143	3382
884.269	3564
884.395	3207
884.52	3180
884.646	3199
884.772	3062
884.897	3089
885.023	3218
885.148	3332
885.274	3389
885.399	3332
885.524	3291
885.65	3256
885.775	3306
885.9	3279
886.025	3420
886.15	3363
886.275	3302
886.4	3268
886.525	3291
886.65	3275
886.775	3260
886.9	3492
887.025	3595
887.149	3386
887.274	3264
887.399	3188
887.523	3211
887.648	3154
887.773	3184
887.897	3355
888.021	3431
888.146	3294
888.27	3412
888.395	3557
888.519	3443
888.643	3424
888.767	3454
888.891	3287
889.015	3222
889.139	3268
889.263	3203
889.387	3420
889.511	3492
889.635	3420
889.759	3287
889.883	3321
890.006	3409
890.13	3526
890.254	3306
890.377	3332
890.501	3226
890.624	3203
890.748	3325
890.871	3180
890.995	3104
891.118	3062
891.241	3173
891.364	3218
891.488	3340
891.611	3176
891.734	3199
891.857	3279
891.98	3203
892.103	3325
892.226	3291
892.349	3180
892.471	3123
892.594	3226
892.717	3344
892.839	3294
892.962	3287
893.085	3359
893.207	3313
893.33	3135
893.452	3211
893.575	3340
893.697	3260
893.819	3405
893.941	3526
894.064	3443
894.186	3264
894.308	3256
894.43	3401
894.552	3534
894.674	3447
894.796	3260
894.918	3302
895.04	3302
895.161	3462
895.283	3401
895.405	3317
895.526	3363
895.648	3462
895.769	3420
895.891	3450
896.012	3492
896.134	3485
896.255	3386
896.376	3370
896.498	3367
896.619	3416
896.74	3351
896.861	3401
896.982	3641
897.103	3827
897.224	3606
897.345	3526
897.466	3424
897.587	3496
897.708	3618
897.828	3553
897.949	3447
898.07	3310
898.19	3389
898.311	3595
898.431	3473
898.552	3511
898.672	3629
898.792	3576
898.913	3515
899.033	3447
899.153	3253
899.273	3253
899.393	3298
899.513	3298
899.633	3351
899.753	3355
899.873	3283
899.993	3363
900.113	3306
900.232	3367
900.352	3359
900.472	3294
900.591	3199
900.711	3279
900.83	3256
900.95	3443
901.069	3481
901.189	3321
901.308	3169
901.427	3100
901.546	3188
901.665	3260
901.784	3306
901.904	3188
902.023	3161
902.141	2986
902.26	2986
902.379	3157
902.498	3085
902.617	3097
902.735	3233
902.854	3199
902.973	3207
903.091	3043
903.21	3051
903.328	3161
903.446	3119
903.565	3097
903.683	3180
903.801	3127
903.919	3195
904.038	3268
904.156	3150
904.274	3294
904.392	3256
904.51	3317
904.627	3332
904.745	3443
904.863	3545
904.981	3245
905.098	3169
905.216	3214
905.334	3264
905.451	3348
905.569	3291
905.686	3420
905.803	3428
905.921	3287
906.038	3431
906.155	3359
906.272	3253
906.389	3336
906.506	3226
906.623	3256
906.74	3275
906.857	3188
906.974	3245
907.091	3424
907.208	3599
907.324	3477
907.441	3389
907.557	3199
907.674	3256
907.79	3230
907.907	3272
908.023	3374
908.139	3367
908.256	3317
908.372	3386
908.488	3363
908.604	3264
908.72	3184
908.836	3298
908.952	3302
909.068	3351
909.184	3462
909.3	3367
909.415	3530
909.531	3485
909.647	3268
909.762	3291
909.878	3249
909.993	3340
910.108	3367
910.224	3355
910.339	3416
910.454	3294
910.57	3287
910.685	3253
910.8	3622
910.915	3545
911.03	3416
911.145	3302
911.259	3283
911.374	3317
911.489	3230
911.604	3230
911.718	3127
911.833	3169
911.947	3013
912.062	2952
912.176	3154
912.291	3188
912.405	3157
912.519	3401
912.633	3454
912.748	3313
912.862	3253
912.976	3165
913.09	3062
913.204	3131
913.318	3214
913.431	3336
913.545	3298
913.659	3405
913.772	3355
913.886	3222
914	3192
914.113	3374
914.226	3409
914.34	3336
914.453	3222
914.566	3405
914.68	3283
914.793	3313
914.906	3127
915.019	3077
915.132	3077
915.245	3154
915.358	3226
915.47	3253
915.583	3253
915.696	3245
915.809	3412
915.921	3405
916.034	3245
916.146	3241
916.259	3226
916.371	3405
916.483	3370
916.595	3253
916.708	3355
916.82	3348
916.932	3340
917.044	3317
917.156	3340
917.268	3272
917.38	3321
917.491	3313
917.603	3386
917.715	3424
917.826	3485
917.938	3393
918.049	3272
918.161	3409
918.272	3545
918.384	3538
918.495	3473
918.606	3351
918.717	3256
918.828	3378
918.939	3420
919.05	3287
919.161	3329
919.272	3169
919.383	3275
919.494	3466
919.604	3701
919.715	3515
919.826	3420
919.936	3447
920.047	3568
920.157	3549
920.267	3778
920.378	3606
920.488	3572
920.598	3770
920.708	3975
920.818	3857
920.928	3854
921.038	4044
921.148	3987
921.258	3705
921.368	3625
921.477	3614
921.587	3542
921.697	3424
921.806	3633
921.916	3485
922.025	3363
922.134	3367
922.244	3344
922.353	3469
922.462	3245
922.571	3222
922.68	3112
922.789	3055
922.898	3135
923.007	3077
923.116	3237
923.224	3169
923.333	3192
923.442	3085
923.55	3081
923.659	3127
923.767	3188
923.876	3123
923.984	3253
924.092	3077
924.201	3203
924.309	3184
924.417	3302
924.525	3207
924.633	3237
924.741	4158
924.849	3062
924.956	3237
925.064	3108
925.172	3020
925.279	3032
925.387	3218
925.494	3176
925.602	3355
925.709	3313
925.816	3203
925.924	3283
926.031	3344
926.138	3363
926.245	3367
926.352	3249
926.459	3412
926.566	3477
926.673	3294
926.779	3245
926.886	3241
926.993	3169
927.099	3135
927.206	3062
927.312	3093
927.419	3211
927.525	3173
927.631	3287
927.737	3154
927.843	3089
927.95	3024
928.056	3081
928.162	3169
928.267	3230
928.373	3884
928.479	3317
928.585	3032
928.69	3218
928.796	3272
928.901	3150
929.007	3017
929.112	3203
929.218	3188
929.323	3165
929.428	3142
929.533	3298
929.638	3112
929.743	3161
929.848	3287
929.953	3195
930.058	3150
930.163	2963
930.267	3066
930.372	3180
930.477	3032
930.581	3321
930.685	3199
930.79	3043
930.894	3097
930.998	3116
931.103	3272
931.207	2956
931.311	2952
931.415	2944
931.519	2792
931.623	2842
