Data from test_V78500241_1237.txt Node
Date: Fri Mar 25 16:23:46 CST 2022
User: usil
Spectrometer: V785-0024
Trigger mode: 0
Integration Time (sec): 4.000000E-1
Scans to average: 1
Nonlinearity correction enabled: false
Boxcar width: 0
Storing dark spectrum: false
XAxis mode: Wavelengths
Number of Pixels in Spectrum: 1024
>>>>>Begin Spectral Data<<<<<
801.071	2891
801.214	2963
801.356	2868
801.499	2906
801.641	2902
801.783	2933
801.926	3024
802.068	2967
802.211	3047
802.353	3043
802.496	2967
802.638	2990
802.78	3062
802.923	3066
803.065	2956
803.208	2902
803.35	2937
803.492	2956
803.635	2922
803.777	2746
803.919	2868
804.061	3218
804.204	2971
804.346	2906
804.488	2842
804.63	2982
804.773	2880
804.915	2899
805.057	3074
805.199	2914
805.341	2979
805.483	3066
805.626	3020
805.768	2998
805.91	3070
806.052	3138
806.194	3036
806.336	3207
806.478	3039
806.62	2967
806.762	2956
806.904	3066
807.046	3161
807.188	2994
807.33	2925
807.472	3020
807.614	2887
807.756	3005
807.898	2929
808.04	2918
808.182	2994
808.324	2971
808.465	2899
808.607	2880
808.749	2807
808.891	2857
809.033	2971
809.174	2982
809.316	2864
809.458	2883
809.6	2781
809.741	2777
809.883	2773
810.025	2861
810.166	2891
810.308	2811
810.45	2845
810.591	2766
810.733	2735
810.875	2834
811.016	2777
811.158	2785
811.299	2804
811.441	2922
811.582	2887
811.724	2857
811.865	2819
812.007	2891
812.148	2880
812.29	2838
812.431	2895
812.573	2963
812.714	2956
812.855	3017
812.997	3085
813.138	3093
813.279	3005
813.421	2994
813.562	2963
813.703	2872
813.845	2876
813.986	2769
814.127	2720
814.268	2826
814.41	2845
814.551	2807
814.692	2883
814.833	2830
814.974	2902
815.115	2967
815.256	2838
815.397	2819
815.539	2876
815.68	2750
815.821	2807
815.962	2941
816.103	2948
816.244	2902
816.385	2880
816.526	2971
816.666	2929
816.807	2750
816.948	2918
817.089	2906
817.23	2876
817.371	2769
817.512	2819
817.653	2811
817.793	2792
817.934	2922
818.075	2982
818.216	2982
818.356	3020
818.497	2849
818.638	2796
818.778	2823
818.919	2804
819.06	2769
819.2	2902
819.341	2853
819.481	2807
819.622	2952
819.762	3104
819.903	3036
820.043	2925
820.184	2868
820.324	2891
820.465	3001
820.605	3039
820.746	3024
820.886	2944
821.026	3112
821.167	3180
821.307	3264
821.447	3264
821.588	3230
821.728	3195
821.868	3173
822.008	3100
822.149	3161
822.289	3218
822.429	3043
822.569	3074
822.709	3180
822.849	3020
822.99	3062
823.13	3195
823.27	3173
823.41	3097
823.55	3138
823.69	3157
823.83	3230
823.97	3108
824.11	2979
824.25	2982
824.389	3051
824.529	3127
824.669	3066
824.809	3192
824.949	3233
825.089	3211
825.228	3154
825.368	2990
825.508	2982
825.648	3017
825.787	3013
825.927	3036
826.067	2971
826.206	2986
826.346	3032
826.485	3081
826.625	3089
826.765	3256
826.904	3214
827.044	3005
827.183	2933
827.323	2857
827.462	3017
827.601	2941
827.741	2906
827.88	2944
828.02	2853
828.159	2982
828.298	3055
828.437	3104
828.577	3058
828.716	3245
828.855	3085
828.994	2914
829.134	2864
829.273	2906
829.412	2872
829.551	2861
829.69	2887
829.829	3009
829.968	3108
830.107	3036
830.246	3020
830.385	2937
830.524	2845
830.663	2830
830.802	2746
830.941	2682
831.08	2655
831.219	2724
831.357	2769
831.496	2941
831.635	2724
831.774	2667
831.913	2663
832.051	2533
832.19	2575
832.329	2689
832.467	2537
832.606	2514
832.744	2560
832.883	2590
833.022	2613
833.16	2636
833.299	2686
833.437	2705
833.576	2701
833.714	2724
833.852	2743
833.991	2735
834.129	2826
834.267	2811
834.406	2766
834.544	2857
834.682	2857
834.821	2876
834.959	3039
835.097	2929
835.235	3051
835.373	3009
835.511	3055
835.65	2925
835.788	2994
835.926	2823
836.064	2811
836.202	2830
836.34	3070
836.478	3138
836.615	3058
836.753	3157
836.891	3226
837.029	3154
837.167	3097
837.305	3066
837.443	3024
837.58	2956
837.718	3127
837.856	3066
837.993	3047
838.131	3123
838.269	3138
838.406	3062
838.544	3081
838.681	2944
838.819	2887
838.956	2823
839.094	2804
839.231	2891
839.369	3043
839.506	3378
839.643	3207
839.781	2986
839.918	2979
840.055	3066
840.193	3036
840.33	3036
840.467	3085
840.604	3161
840.742	3386
840.879	3036
841.016	3047
841.153	3123
841.29	3329
841.427	3287
841.564	3291
841.701	3302
841.838	3180
841.975	3176
842.112	3192
842.249	3097
842.385	3009
842.522	3214
842.659	3093
842.796	3077
842.933	3085
843.069	3077
843.206	3005
843.343	3154
843.479	3085
843.616	3154
843.752	2876
843.889	2849
844.025	3066
844.162	2906
844.298	3051
844.435	2979
844.571	2880
844.708	3093
844.844	3192
844.98	3176
845.117	3222
845.253	3062
845.389	2979
845.525	3089
845.661	3032
845.798	2982
845.934	3100
846.07	3017
846.206	3226
846.342	3275
846.478	3230
846.614	3085
846.75	3036
846.886	2986
847.022	3241
847.158	3116
847.294	3211
847.429	3241
847.565	3199
847.701	3500
847.837	3047
847.972	2971
848.108	3150
848.244	3131
848.379	2941
848.515	2906
848.65	2902
848.786	2960
848.921	3028
849.057	3070
849.192	3085
849.328	3043
849.463	3116
849.598	3089
849.734	3043
849.869	2986
850.004	2925
850.14	2960
850.275	2880
850.41	2819
850.545	2887
850.68	2883
850.815	2956
850.95	2960
851.085	3184
851.22	3089
851.355	3017
851.49	2967
851.625	2998
851.76	2975
851.895	2925
852.03	2922
852.165	2998
852.299	3135
852.434	3157
852.569	3135
852.703	3195
852.838	3176
852.973	3336
853.107	3317
853.242	3131
853.376	3051
853.511	2998
853.645	3009
853.78	3230
853.914	3100
854.048	3108
854.183	3093
854.317	3150
854.451	3325
854.585	3123
854.72	3077
854.854	3184
854.988	3058
855.122	3081
855.256	2960
855.39	3123
855.524	3233
855.658	3199
855.792	3142
855.926	3180
856.06	3207
856.194	3230
856.327	3089
856.461	3070
856.595	3081
856.729	3062
856.862	3230
856.996	3173
857.13	3180
857.263	3218
857.397	3279
857.53	3123
857.664	3176
857.797	3211
857.931	3241
858.064	3165
858.197	3233
858.331	3119
858.464	3093
858.597	3017
858.731	3043
858.864	3127
858.997	3058
859.13	3108
859.263	3116
859.396	3195
859.529	3047
859.662	3066
859.795	3028
859.928	3150
860.061	3256
860.194	3214
860.327	3100
860.46	3051
860.592	3199
860.725	3241
860.858	3230
860.99	3104
861.123	3043
861.256	3005
861.388	3108
861.521	3724
861.653	3051
861.786	2986
861.918	3009
862.05	3043
862.183	3104
862.315	3127
862.447	3211
862.58	3085
862.712	2899
862.844	2857
862.976	2994
863.108	3017
863.24	3298
863.372	2849
863.504	2979
863.636	2937
863.768	3039
863.9	2990
864.032	2937
864.164	2925
864.296	2998
864.428	3097
864.559	3074
864.691	3100
864.823	3062
864.954	3036
865.086	3066
865.217	3001
865.349	2944
865.48	2986
865.612	3009
865.743	3127
865.875	2986
866.006	2925
866.137	2982
866.269	2948
866.4	2960
866.531	2925
866.662	2891
866.793	2906
866.924	2883
867.055	2952
867.186	2906
867.317	2864
867.448	2872
867.579	2845
867.71	2857
867.841	2815
867.972	2902
868.103	2899
868.233	2883
868.364	2864
868.495	2872
868.625	3093
868.756	3150
868.886	2994
869.017	3013
869.147	3142
869.278	3169
869.408	3051
869.539	3013
869.669	3138
869.799	3005
869.929	3127
870.06	3097
870.19	3359
870.32	3275
870.45	3279
870.58	3378
870.71	3420
870.84	3439
870.97	3317
871.1	3264
871.23	3500
871.36	3454
871.489	3310
871.619	3424
871.749	3393
871.879	3420
872.008	3485
872.138	3382
872.267	3272
872.397	3119
872.526	3055
872.656	2971
872.785	3116
872.915	3264
873.044	3332
873.173	3214
873.303	3226
873.432	3291
873.561	3245
873.69	3150
873.819	3150
873.948	3184
874.077	3070
874.206	3055
874.335	3085
874.464	3207
874.593	3336
874.722	3249
874.851	3382
874.979	3370
875.108	3332
875.237	3226
875.365	3131
875.494	3157
875.623	3230
875.751	3093
875.88	3093
876.008	3184
876.136	3230
876.265	3336
876.393	3504
876.521	3401
876.65	3389
876.778	3317
876.906	3245
877.034	3218
877.162	3237
877.29	3154
877.418	3291
877.546	3237
877.674	3214
877.802	3207
877.93	3218
878.058	3116
878.185	3108
878.313	3241
878.441	3184
878.568	3085
878.696	3119
878.824	3233
878.951	3317
879.079	3412
879.206	3625
879.333	3412
879.461	3355
879.588	3325
879.715	3477
879.842	3561
879.97	3386
880.097	3199
880.224	3138
880.351	3165
880.478	3203
880.605	3192
880.732	3188
880.859	3466
880.986	3332
881.112	3313
881.239	3207
881.366	3085
881.493	3028
881.619	3009
881.746	3036
881.872	3085
881.999	3085
882.125	3112
882.252	3192
882.378	3264
882.505	3443
882.631	3260
882.757	3146
882.883	3180
883.01	3237
883.136	3135
883.262	3074
883.388	3108
883.514	3325
883.64	3351
883.766	3298
883.892	3192
884.018	3256
884.143	3370
884.269	3549
884.395	3199
884.52	3142
884.646	3157
884.772	3104
884.897	3097
885.023	3188
885.148	3302
885.274	3378
885.399	3374
885.524	3260
885.65	3233
885.775	3264
885.9	3325
886.025	3443
886.15	3386
886.275	3313
886.4	3241
886.525	3302
886.65	3268
886.775	3245
886.9	3477
887.025	3652
887.149	3424
887.274	3218
887.399	3138
887.523	3203
887.648	3192
887.773	3184
887.897	3382
888.021	3412
888.146	3249
888.27	3477
888.395	3496
888.519	3428
888.643	3424
888.767	3477
888.891	3306
889.015	3237
889.139	3321
889.263	3233
889.387	3370
889.511	3530
889.635	3450
889.759	3264
889.883	3287
890.006	3359
890.13	3530
890.254	3275
890.377	3359
890.501	3203
890.624	3180
890.748	3268
890.871	3150
890.995	3116
891.118	3058
891.241	3184
891.364	3233
891.488	3302
891.611	3165
891.734	3214
891.857	3302
891.98	3283
892.103	3287
892.226	3268
892.349	3165
892.471	3089
892.594	3245
892.717	3325
892.839	3298
892.962	3268
893.085	3359
893.207	3298
893.33	3154
893.452	3214
893.575	3310
893.697	3226
893.819	3458
893.941	3511
894.064	3420
894.186	3272
894.308	3264
894.43	3435
894.552	3523
894.674	3466
894.796	3264
894.918	3302
895.04	3283
895.161	3393
895.283	3367
895.405	3310
895.526	3313
895.648	3412
895.769	3424
895.891	3450
896.012	3466
896.134	3454
896.255	3401
896.376	3397
896.498	3370
896.619	3397
896.74	3336
896.861	3386
896.982	3660
897.103	3846
897.224	3587
897.345	3511
897.466	3386
897.587	3485
897.708	3591
897.828	3576
897.949	3477
898.07	3359
898.19	3401
898.311	3622
898.431	3462
898.552	3519
898.672	3580
898.792	3553
898.913	3538
899.033	3420
899.153	3310
899.273	3230
899.393	3287
899.513	3306
899.633	3321
899.753	3351
899.873	3329
899.993	3397
900.113	3302
900.232	3382
900.352	3348
900.472	3294
900.591	3188
900.711	3306
900.83	3268
900.95	3439
901.069	3496
901.189	3336
901.308	3173
901.427	3146
901.546	3222
901.665	3283
901.784	3382
901.904	3245
902.023	3135
902.141	3024
902.26	3005
902.379	3165
902.498	3074
902.617	3039
902.735	3188
902.854	3256
902.973	3207
903.091	3013
903.21	3055
903.328	3131
903.446	3070
903.565	3077
903.683	3180
903.801	3116
903.919	3237
904.038	3283
904.156	3142
904.274	3241
904.392	3226
904.51	3283
904.627	3313
904.745	3412
904.863	3496
904.981	3249
905.098	3161
905.216	3245
905.334	3256
905.451	3283
905.569	3287
905.686	3405
905.803	3428
905.921	3291
906.038	3420
906.155	3348
906.272	3317
906.389	3363
906.506	3237
906.623	3245
906.74	3275
906.857	3176
906.974	3241
907.091	3447
907.208	3534
907.324	3473
907.441	3378
907.557	3188
907.674	3203
907.79	3199
907.907	3253
908.023	3420
908.139	3374
908.256	3321
908.372	3420
908.488	3359
908.604	3256
908.72	3275
908.836	3302
908.952	3302
909.068	3348
909.184	3500
909.3	3397
909.415	3496
909.531	3447
909.647	3302
909.762	3268
909.878	3230
909.993	3348
910.108	3329
910.224	3310
910.339	3428
910.454	3351
910.57	3283
910.685	3256
910.8	3545
910.915	3466
911.03	3401
911.145	3241
911.259	3260
911.374	3306
911.489	3218
911.604	3237
911.718	3081
911.833	3131
911.947	2998
912.062	2960
912.176	3169
912.291	3184
912.405	3230
912.519	3428
912.633	3443
912.748	3306
912.862	3264
912.976	3180
913.09	3089
913.204	3154
913.318	3249
913.431	3332
913.545	3336
913.659	3370
913.772	3294
913.886	3214
914	3199
914.113	3401
914.226	3420
914.34	3370
914.453	3222
914.566	3389
914.68	3287
914.793	3287
914.906	3173
915.019	3100
915.132	3104
915.245	3180
915.358	3195
915.47	3249
915.583	3272
915.696	3302
915.809	3389
915.921	3389
916.034	3241
916.146	3233
916.259	3211
916.371	3405
916.483	3409
916.595	3253
916.708	3310
916.82	3291
916.932	3340
917.044	3336
917.156	3348
917.268	3279
917.38	3321
917.491	3275
917.603	3355
917.715	3454
917.826	3393
917.938	3393
918.049	3230
918.161	3382
918.272	3568
918.384	3606
918.495	3462
918.606	3336
918.717	3268
918.828	3336
918.939	3382
919.05	3275
919.161	3386
919.272	3165
919.383	3264
919.494	3534
919.604	3690
919.715	3500
919.826	3405
919.936	3412
920.047	3580
920.157	3534
920.267	3770
920.378	3610
920.488	3561
920.598	3762
920.708	3953
920.818	3812
920.928	3819
921.038	4013
921.148	4010
921.258	3686
921.368	3637
921.477	3584
921.587	3584
921.697	3435
921.806	3648
921.916	3500
922.025	3340
922.134	3313
922.244	3306
922.353	3412
922.462	3279
922.571	3233
922.68	3104
922.789	3074
922.898	3146
923.007	3085
923.116	3230
923.224	3150
923.333	3154
923.442	3112
923.55	3116
923.659	3165
923.767	3222
923.876	3108
923.984	3256
924.092	3100
924.201	3192
924.309	3226
924.417	3264
924.525	3161
924.633	3233
924.741	4036
924.849	3032
924.956	3283
925.064	3150
925.172	3036
925.279	3085
925.387	3218
925.494	3203
925.602	3313
925.709	3344
925.816	3173
925.924	3298
926.031	3359
926.138	3310
926.245	3332
926.352	3249
926.459	3443
926.566	3447
926.673	3321
926.779	3249
926.886	3237
926.993	3135
927.099	3112
927.206	3077
927.312	3131
927.419	3218
927.525	3169
927.631	3283
927.737	3142
927.843	3127
927.95	3013
928.056	3146
928.162	3146
928.267	3237
928.373	3876
928.479	3340
928.585	3036
928.69	3195
928.796	3317
928.901	3173
929.007	3039
929.112	3207
929.218	3184
929.323	3127
929.428	3131
929.533	3325
929.638	3104
929.743	3123
929.848	3226
929.953	3218
930.058	3211
930.163	3009
930.267	3058
930.372	3192
930.477	3036
930.581	3260
930.685	3161
930.79	3077
930.894	3108
930.998	3047
931.103	3306
931.207	2956
931.311	2967
931.415	2902
931.519	2788
931.623	2788
