Data from test_V78500241_1391.txt Node
Date: Fri Mar 25 16:24:50 CST 2022
User: usil
Spectrometer: V785-0024
Trigger mode: 0
Integration Time (sec): 4.000000E-1
Scans to average: 1
Nonlinearity correction enabled: false
Boxcar width: 0
Storing dark spectrum: false
XAxis mode: Wavelengths
Number of Pixels in Spectrum: 1024
>>>>>Begin Spectral Data<<<<<
801.071	2887
801.214	2941
801.356	2857
801.499	2906
801.641	2864
801.783	2922
801.926	3066
802.068	2948
802.211	2994
802.353	3020
802.496	2937
802.638	3028
802.78	3028
802.923	3077
803.065	2982
803.208	2895
803.35	2925
803.492	2918
803.635	2929
803.777	2746
803.919	2849
804.061	3192
804.204	2937
804.346	2872
804.488	2838
804.63	2952
804.773	2838
804.915	2914
805.057	3119
805.199	2929
805.341	2998
805.483	3020
805.626	2998
805.768	2967
805.91	3131
806.052	3112
806.194	3047
806.336	3226
806.478	3024
806.62	2963
806.762	2990
806.904	3032
807.046	3142
807.188	2998
807.33	2941
807.472	2990
807.614	2910
807.756	2975
807.898	2902
808.04	2895
808.182	2956
808.324	2944
808.465	2845
808.607	2872
808.749	2781
808.891	2819
809.033	2971
809.174	2994
809.316	2880
809.458	2883
809.6	2773
809.741	2754
809.883	2777
810.025	2830
810.166	2845
810.308	2834
810.45	2838
810.591	2792
810.733	2788
810.875	2845
811.016	2785
811.158	2746
811.299	2826
811.441	2941
811.582	2899
811.724	2796
811.865	2834
812.007	2918
812.148	2842
812.29	2880
812.431	2906
812.573	2963
812.714	2952
812.855	3005
812.997	3085
813.138	3131
813.279	3013
813.421	2941
813.562	2941
813.703	2887
813.845	2880
813.986	2758
814.127	2739
814.268	2815
814.41	2849
814.551	2815
814.692	2857
814.833	2792
814.974	2887
815.115	2963
815.256	2819
815.397	2796
815.539	2872
815.68	2746
815.821	2766
815.962	2952
816.103	2899
816.244	2891
816.385	2861
816.526	2937
816.666	2887
816.807	2766
816.948	2868
817.089	2918
817.23	2861
817.371	2796
817.512	2804
817.653	2800
817.793	2830
817.934	2872
818.075	2952
818.216	2956
818.356	3024
818.497	2872
818.638	2766
818.778	2834
818.919	2746
819.06	2720
819.2	2895
819.341	2792
819.481	2811
819.622	2956
819.762	3093
819.903	3028
820.043	2944
820.184	2918
820.324	2887
820.465	2998
820.605	3020
820.746	3001
820.886	2960
821.026	3108
821.167	3150
821.307	3256
821.447	3268
821.588	3241
821.728	3188
821.868	3214
822.008	3055
822.149	3180
822.289	3230
822.429	3116
822.569	3104
822.709	3188
822.849	3013
822.99	3062
823.13	3138
823.27	3180
823.41	3062
823.55	3123
823.69	3135
823.83	3180
823.97	3093
824.11	2994
824.25	3013
824.389	3085
824.529	3104
824.669	3085
824.809	3169
824.949	3260
825.089	3214
825.228	3138
825.368	2963
825.508	2941
825.648	2975
825.787	2990
825.927	3009
826.067	2979
826.206	2967
826.346	3039
826.485	3032
826.625	3112
826.765	3253
826.904	3176
827.044	2998
827.183	2925
827.323	2880
827.462	3017
827.601	2922
827.741	2895
827.88	2914
828.02	2876
828.159	2998
828.298	3058
828.437	3108
828.577	3020
828.716	3211
828.855	3093
828.994	2899
829.134	2876
829.273	2960
829.412	2857
829.551	2876
829.69	2895
829.829	2994
829.968	3093
830.107	3009
830.246	3005
830.385	2906
830.524	2876
830.663	2849
830.802	2731
830.941	2651
831.08	2610
831.219	2754
831.357	2758
831.496	2952
831.635	2731
831.774	2632
831.913	2644
832.051	2568
832.19	2514
832.329	2659
832.467	2579
832.606	2511
832.744	2606
832.883	2583
833.022	2560
833.16	2667
833.299	2648
833.437	2712
833.576	2682
833.714	2727
833.852	2735
833.991	2769
834.129	2830
834.267	2807
834.406	2777
834.544	2861
834.682	2883
834.821	2876
834.959	3051
835.097	2883
835.235	3062
835.373	2994
835.511	3032
835.65	2971
835.788	2975
835.926	2823
836.064	2811
836.202	2845
836.34	3074
836.478	3150
836.615	3043
836.753	3116
836.891	3222
837.029	3195
837.167	3112
837.305	3051
837.443	3055
837.58	2963
837.718	3127
837.856	3089
837.993	3055
838.131	3085
838.269	3108
838.406	3074
838.544	3081
838.681	2922
838.819	2895
838.956	2807
839.094	2849
839.231	2906
839.369	3001
839.506	3374
839.643	3195
839.781	3058
839.918	2929
840.055	3005
840.193	3039
840.33	3039
840.467	3100
840.604	3146
840.742	3359
840.879	3043
841.016	3036
841.153	3112
841.29	3317
841.427	3294
841.564	3264
841.701	3275
841.838	3180
841.975	3157
842.112	3176
842.249	3055
842.385	3028
842.522	3241
842.659	3112
842.796	3055
842.933	3108
843.069	3017
843.206	3020
843.343	3176
843.479	3085
843.616	3119
843.752	2887
843.889	2842
844.025	3077
844.162	2861
844.298	3062
844.435	2952
844.571	2914
844.708	3032
844.844	3214
844.98	3260
845.117	3131
845.253	3051
845.389	3032
845.525	3089
845.661	3097
845.798	3028
845.934	3112
846.07	3051
846.206	3211
846.342	3310
846.478	3211
846.614	3066
846.75	3058
846.886	2967
847.022	3249
847.158	3123
847.294	3195
847.429	3260
847.565	3176
847.701	3488
847.837	3051
847.972	3020
848.108	3157
848.244	3138
848.379	2994
848.515	2963
848.65	2925
848.786	2960
848.921	3032
849.057	3104
849.192	3146
849.328	3043
849.463	3116
849.598	3081
849.734	2998
849.869	2998
850.004	2933
850.14	2990
850.275	2902
850.41	2849
850.545	2864
850.68	2929
850.815	2952
850.95	2929
851.085	3150
851.22	3077
851.355	3017
851.49	2986
851.625	3013
851.76	3005
851.895	2914
852.03	2902
852.165	2982
852.299	3112
852.434	3165
852.569	3150
852.703	3157
852.838	3214
852.973	3340
853.107	3317
853.242	3127
853.376	3108
853.511	2956
853.645	3036
853.78	3226
853.914	3135
854.048	3093
854.183	3081
854.317	3123
854.451	3287
854.585	3116
854.72	3062
854.854	3214
854.988	3017
855.122	3051
855.256	2982
855.39	3116
855.524	3222
855.658	3169
855.792	3150
855.926	3192
856.06	3222
856.194	3211
856.327	3165
856.461	3032
856.595	3070
856.729	3089
856.862	3211
856.996	3104
857.13	3199
857.263	3241
857.397	3233
857.53	3119
857.664	3226
857.797	3195
857.931	3249
858.064	3127
858.197	3188
858.331	3131
858.464	3100
858.597	3017
858.731	3100
858.864	3127
858.997	3058
859.13	3169
859.263	3203
859.396	3195
859.529	3070
859.662	3055
859.795	3020
859.928	3131
860.061	3230
860.194	3302
860.327	3150
860.46	3081
860.592	3249
860.725	3203
860.858	3249
860.99	3077
861.123	3051
861.256	3024
861.388	3169
861.521	3743
861.653	2998
861.786	2952
861.918	3013
862.05	3055
862.183	3100
862.315	3169
862.447	3184
862.58	3100
862.712	2967
862.844	2857
862.976	3020
863.108	2998
863.24	3302
863.372	2876
863.504	2944
863.636	2960
863.768	3005
863.9	3055
864.032	2914
864.164	2910
864.296	2975
864.428	3077
864.559	3093
864.691	3097
864.823	3043
864.954	3077
865.086	3028
865.217	2982
865.349	2956
865.48	2967
865.612	3032
865.743	3131
865.875	2948
866.006	2952
866.137	2960
866.269	2941
866.4	2922
866.531	2902
866.662	2914
866.793	2857
866.924	2887
867.055	2986
867.186	2914
867.317	2853
867.448	2842
867.579	2845
867.71	2834
867.841	2800
867.972	2902
868.103	2918
868.233	2887
868.364	2880
868.495	2891
868.625	3097
868.756	3116
868.886	2952
869.017	3013
869.147	3192
869.278	3157
869.408	3020
869.539	3005
869.669	3085
869.799	3032
869.929	3127
870.06	3142
870.19	3291
870.32	3268
870.45	3260
870.58	3340
870.71	3466
870.84	3450
870.97	3302
871.1	3203
871.23	3473
871.36	3409
871.489	3317
871.619	3397
871.749	3420
871.879	3416
872.008	3424
872.138	3344
872.267	3260
872.397	3142
872.526	3085
872.656	3043
872.785	3077
872.915	3233
873.044	3321
873.173	3230
873.303	3226
873.432	3226
873.561	3218
873.69	3165
873.819	3123
873.948	3199
874.077	3085
874.206	2982
874.335	3066
874.464	3214
874.593	3317
874.722	3222
874.851	3393
874.979	3310
875.108	3317
875.237	3138
875.365	3157
875.494	3173
875.623	3226
875.751	3036
875.88	3123
876.008	3184
876.136	3237
876.265	3382
876.393	3496
876.521	3424
876.65	3378
876.778	3313
876.906	3249
877.034	3203
877.162	3230
877.29	3161
877.418	3260
877.546	3241
877.674	3207
877.802	3249
877.93	3245
878.058	3097
878.185	3093
878.313	3157
878.441	3203
878.568	3062
878.696	3169
878.824	3237
878.951	3306
879.079	3466
879.206	3618
879.333	3439
879.461	3317
879.588	3374
879.715	3454
879.842	3610
879.97	3355
880.097	3173
880.224	3146
880.351	3176
880.478	3192
880.605	3180
880.732	3165
880.859	3485
880.986	3275
881.112	3306
881.239	3203
881.366	3066
881.493	3043
881.619	2975
881.746	3047
881.872	3077
881.999	3085
882.125	3119
882.252	3237
882.378	3275
882.505	3443
882.631	3279
882.757	3135
882.883	3203
883.01	3207
883.136	3176
883.262	3077
883.388	3085
883.514	3317
883.64	3370
883.766	3287
883.892	3241
884.018	3218
884.143	3386
884.269	3519
884.395	3176
884.52	3157
884.646	3184
884.772	3081
884.897	3097
885.023	3188
885.148	3344
885.274	3462
885.399	3367
885.524	3260
885.65	3253
885.775	3329
885.9	3298
886.025	3405
886.15	3386
886.275	3275
886.4	3230
886.525	3291
886.65	3241
886.775	3249
886.9	3466
887.025	3652
887.149	3405
887.274	3264
887.399	3146
887.523	3184
887.648	3142
887.773	3169
887.897	3332
888.021	3397
888.146	3313
888.27	3405
888.395	3542
888.519	3397
888.643	3450
888.767	3458
888.891	3313
889.015	3214
889.139	3268
889.263	3226
889.387	3405
889.511	3481
889.635	3405
889.759	3268
889.883	3275
890.006	3351
890.13	3485
890.254	3287
890.377	3332
890.501	3207
890.624	3173
890.748	3321
890.871	3169
890.995	3081
891.118	3058
891.241	3176
891.364	3230
891.488	3272
891.611	3165
891.734	3165
891.857	3241
891.98	3245
892.103	3317
892.226	3245
892.349	3211
892.471	3093
892.594	3214
892.717	3275
892.839	3253
892.962	3264
893.085	3378
893.207	3283
893.33	3165
893.452	3203
893.575	3332
893.697	3253
893.819	3462
893.941	3504
894.064	3450
894.186	3268
894.308	3245
894.43	3450
894.552	3553
894.674	3416
894.796	3279
894.918	3329
895.04	3287
895.161	3405
895.283	3382
895.405	3291
895.526	3344
895.648	3367
895.769	3386
895.891	3397
896.012	3458
896.134	3466
896.255	3428
896.376	3370
896.498	3370
896.619	3416
896.74	3378
896.861	3405
896.982	3667
897.103	3831
897.224	3591
897.345	3462
897.466	3405
897.587	3519
897.708	3584
897.828	3519
897.949	3439
898.07	3321
898.19	3428
898.311	3614
898.431	3469
898.552	3485
898.672	3648
898.792	3564
898.913	3511
899.033	3374
899.153	3332
899.273	3207
899.393	3275
899.513	3321
899.633	3325
899.753	3344
899.873	3329
899.993	3325
900.113	3310
900.232	3405
900.352	3382
900.472	3264
900.591	3230
900.711	3287
900.83	3249
900.95	3450
901.069	3504
901.189	3344
901.308	3173
901.427	3135
901.546	3195
901.665	3272
901.784	3367
901.904	3195
902.023	3176
902.141	3013
902.26	2944
902.379	3100
902.498	3062
902.617	3062
902.735	3184
902.854	3268
902.973	3176
903.091	3047
903.21	3058
903.328	3112
903.446	3112
903.565	3097
903.683	3237
903.801	3104
903.919	3214
904.038	3268
904.156	3173
904.274	3256
904.392	3241
904.51	3253
904.627	3291
904.745	3443
904.863	3477
904.981	3233
905.098	3195
905.216	3218
905.334	3226
905.451	3291
905.569	3329
905.686	3431
905.803	3424
905.921	3275
906.038	3363
906.155	3351
906.272	3275
906.389	3325
906.506	3214
906.623	3188
906.74	3245
906.857	3192
906.974	3264
907.091	3416
907.208	3557
907.324	3523
907.441	3355
907.557	3249
907.674	3249
907.79	3241
907.907	3279
908.023	3386
908.139	3348
908.256	3351
908.372	3344
908.488	3351
908.604	3272
908.72	3230
908.836	3279
908.952	3313
909.068	3287
909.184	3485
909.3	3397
909.415	3462
909.531	3439
909.647	3275
909.762	3279
909.878	3272
909.993	3351
910.108	3332
910.224	3332
910.339	3386
910.454	3332
910.57	3291
910.685	3218
910.8	3610
910.915	3504
911.03	3458
911.145	3310
911.259	3287
911.374	3332
911.489	3249
911.604	3256
911.718	3123
911.833	3146
911.947	3039
912.062	2998
912.176	3146
912.291	3184
912.405	3195
912.519	3416
912.633	3450
912.748	3332
912.862	3283
912.976	3211
913.09	3051
913.204	3131
913.318	3230
913.431	3298
913.545	3298
913.659	3424
913.772	3344
913.886	3211
914	3233
914.113	3355
914.226	3431
914.34	3321
914.453	3199
914.566	3401
914.68	3275
914.793	3344
914.906	3131
915.019	3123
915.132	3039
915.245	3161
915.358	3203
915.47	3233
915.583	3272
915.696	3245
915.809	3363
915.921	3424
916.034	3245
916.146	3245
916.259	3192
916.371	3386
916.483	3378
916.595	3268
916.708	3336
916.82	3332
916.932	3321
917.044	3317
917.156	3275
917.268	3272
917.38	3313
917.491	3268
917.603	3355
917.715	3462
917.826	3458
917.938	3397
918.049	3306
918.161	3386
918.272	3584
918.384	3553
918.495	3504
918.606	3321
918.717	3245
918.828	3409
918.939	3374
919.05	3332
919.161	3363
919.272	3154
919.383	3287
919.494	3488
919.604	3701
919.715	3492
919.826	3416
919.936	3405
920.047	3519
920.157	3568
920.267	3808
920.378	3606
920.488	3568
920.598	3762
920.708	3953
920.818	3797
920.928	3835
921.038	4032
921.148	3998
921.258	3724
921.368	3648
921.477	3580
921.587	3526
921.697	3435
921.806	3614
921.916	3526
922.025	3367
922.134	3393
922.244	3329
922.353	3428
922.462	3264
922.571	3218
922.68	3127
922.789	3089
922.898	3142
923.007	3074
923.116	3146
923.224	3176
923.333	3161
923.442	3112
923.55	3089
923.659	3146
923.767	3207
923.876	3116
923.984	3249
924.092	3100
924.201	3199
924.309	3218
924.417	3211
924.525	3146
924.633	3275
924.741	3987
924.849	3047
924.956	3253
925.064	3062
925.172	3039
925.279	3077
925.387	3199
925.494	3222
925.602	3332
925.709	3332
925.816	3157
925.924	3298
926.031	3351
926.138	3310
926.245	3344
926.352	3253
926.459	3416
926.566	3458
926.673	3329
926.779	3260
926.886	3226
926.993	3150
927.099	3142
927.206	3097
927.312	3127
927.419	3211
927.525	3203
927.631	3253
927.737	3127
927.843	3146
927.95	3032
928.056	3146
928.162	3138
928.267	3222
928.373	3884
928.479	3294
928.585	3024
928.69	3180
928.796	3249
928.901	3188
929.007	3058
929.112	3195
929.218	3184
929.323	3150
929.428	3127
929.533	3302
929.638	3127
929.743	3165
929.848	3226
929.953	3214
930.058	3161
930.163	2975
930.267	3020
930.372	3184
930.477	3070
930.581	3291
930.685	3138
930.79	3062
930.894	3142
930.998	3077
931.103	3268
931.207	2952
931.311	2963
931.415	2906
931.519	2788
931.623	2773
