Data from test_V78500241_346.txt Node
Date: Fri Mar 25 16:17:36 CST 2022
User: usil
Spectrometer: V785-0024
Trigger mode: 0
Integration Time (sec): 4.000000E-1
Scans to average: 1
Nonlinearity correction enabled: false
Boxcar width: 0
Storing dark spectrum: false
XAxis mode: Wavelengths
Number of Pixels in Spectrum: 1024
>>>>>Begin Spectral Data<<<<<
801.071	2929
801.214	2975
801.356	2845
801.499	2887
801.641	2883
801.783	2948
801.926	3055
802.068	2986
802.211	2982
802.353	3043
802.496	2933
802.638	3001
802.78	3028
802.923	3058
803.065	2986
803.208	2868
803.35	2929
803.492	2971
803.635	2910
803.777	2746
803.919	2876
804.061	3195
804.204	2948
804.346	2918
804.488	2842
804.63	3009
804.773	2880
804.915	2914
805.057	3081
805.199	2922
805.341	2975
805.483	3017
805.626	3028
805.768	2929
805.91	3051
806.052	3119
806.194	3032
806.336	3222
806.478	3009
806.62	2967
806.762	2982
806.904	3017
807.046	3161
807.188	2918
807.33	2887
807.472	2963
807.614	2902
807.756	2979
807.898	2929
808.04	2883
808.182	2933
808.324	2963
808.465	2880
808.607	2883
808.749	2811
808.891	2849
809.033	3005
809.174	2967
809.316	2883
809.458	2876
809.6	2750
809.741	2746
809.883	2758
810.025	2868
810.166	2842
810.308	2864
810.45	2838
810.591	2773
810.733	2746
810.875	2834
811.016	2746
811.158	2754
811.299	2819
811.441	2952
811.582	2902
811.724	2796
811.865	2819
812.007	2887
812.148	2876
812.29	2872
812.431	2902
812.573	2922
812.714	2956
812.855	3043
812.997	3009
813.138	3112
813.279	2994
813.421	2963
813.562	2933
813.703	2853
813.845	2914
813.986	2750
814.127	2716
814.268	2792
814.41	2834
814.551	2823
814.692	2876
814.833	2792
814.974	2872
815.115	2948
815.256	2842
815.397	2785
815.539	2861
815.68	2750
815.821	2777
815.962	2952
816.103	2895
816.244	2883
816.385	2914
816.526	2952
816.666	2922
816.807	2746
816.948	2880
817.089	2906
817.23	2853
817.371	2811
817.512	2769
817.653	2845
817.793	2800
817.934	2895
818.075	2986
818.216	2963
818.356	3001
818.497	2876
818.638	2773
818.778	2823
818.919	2773
819.06	2735
819.2	2883
819.341	2823
819.481	2792
819.622	2910
819.762	3062
819.903	3036
820.043	2880
820.184	2887
820.324	2967
820.465	3001
820.605	3017
820.746	3020
820.886	2914
821.026	3104
821.167	3176
821.307	3245
821.447	3283
821.588	3241
821.728	3180
821.868	3138
822.008	3089
822.149	3211
822.289	3214
822.429	3085
822.569	3135
822.709	3188
822.849	2998
822.99	3066
823.13	3150
823.27	3131
823.41	3077
823.55	3161
823.69	3135
823.83	3180
823.97	3108
824.11	2971
824.25	3005
824.389	3055
824.529	3131
824.669	3047
824.809	3176
824.949	3241
825.089	3237
825.228	3180
825.368	2967
825.508	2986
825.648	2956
825.787	3013
825.927	2998
826.067	2960
826.206	2941
826.346	3051
826.485	3074
826.625	3135
826.765	3245
826.904	3199
827.044	2998
827.183	2933
827.323	2891
827.462	2986
827.601	2929
827.741	2876
827.88	2918
828.02	2811
828.159	2986
828.298	3043
828.437	3119
828.577	3005
828.716	3245
828.855	3097
828.994	2891
829.134	2861
829.273	2933
829.412	2857
829.551	2861
829.69	2880
829.829	2975
829.968	3135
830.107	3017
830.246	3020
830.385	2933
830.524	2887
830.663	2785
830.802	2716
830.941	2678
831.08	2663
831.219	2708
831.357	2781
831.496	2918
831.635	2708
831.774	2610
831.913	2655
832.051	2552
832.19	2568
832.329	2716
832.467	2537
832.606	2473
832.744	2583
832.883	2629
833.022	2594
833.16	2670
833.299	2674
833.437	2705
833.576	2705
833.714	2705
833.852	2750
833.991	2754
834.129	2819
834.267	2815
834.406	2796
834.544	2861
834.682	2883
834.821	2838
834.959	3036
835.097	2868
835.235	3051
835.373	3013
835.511	2994
835.65	2971
835.788	2948
835.926	2800
836.064	2830
836.202	2807
836.34	3055
836.478	3135
836.615	3058
836.753	3116
836.891	3214
837.029	3165
837.167	3131
837.305	3062
837.443	3028
837.58	2967
837.718	3104
837.856	3032
837.993	3001
838.131	3116
838.269	3116
838.406	3043
838.544	3081
838.681	2914
838.819	2887
838.956	2796
839.094	2834
839.231	2956
839.369	2986
839.506	3389
839.643	3203
839.781	3024
839.918	2952
840.055	3058
840.193	3039
840.33	3081
840.467	3074
840.604	3142
840.742	3386
840.879	3028
841.016	3039
841.153	3093
841.29	3310
841.427	3302
841.564	3268
841.701	3329
841.838	3180
841.975	3176
842.112	3214
842.249	3081
842.385	3020
842.522	3245
842.659	3093
842.796	3058
842.933	3089
843.069	3020
843.206	3005
843.343	3192
843.479	3089
843.616	3100
843.752	2902
843.889	2861
844.025	3081
844.162	2876
844.298	3074
844.435	2933
844.571	2914
844.708	3066
844.844	3173
844.98	3241
845.117	3207
845.253	3039
845.389	3005
845.525	3097
845.661	3062
845.798	2998
845.934	3093
846.07	3032
846.206	3226
846.342	3325
846.478	3253
846.614	3116
846.75	3009
846.886	2990
847.022	3245
847.158	3104
847.294	3184
847.429	3233
847.565	3195
847.701	3450
847.837	3039
847.972	2986
848.108	3154
848.244	3135
848.379	2967
848.515	2933
848.65	2948
848.786	2967
848.921	2956
849.057	3119
849.192	3165
849.328	3066
849.463	3100
849.598	3055
849.734	3043
849.869	2979
850.004	2929
850.14	2952
850.275	2876
850.41	2815
850.545	2876
850.68	2960
850.815	2922
850.95	2929
851.085	3169
851.22	3100
851.355	3024
851.49	2994
851.625	2998
851.76	2986
851.895	2929
852.03	2891
852.165	3039
852.299	3066
852.434	3180
852.569	3138
852.703	3146
852.838	3268
852.973	3329
853.107	3272
853.242	3165
853.376	3085
853.511	2986
853.645	3051
853.78	3237
853.914	3119
854.048	3142
854.183	3131
854.317	3123
854.451	3310
854.585	3116
854.72	3097
854.854	3203
854.988	3028
855.122	3097
855.256	3009
855.39	3131
855.524	3241
855.658	3192
855.792	3165
855.926	3150
856.06	3199
856.194	3230
856.327	3119
856.461	3077
856.595	3066
856.729	3047
856.862	3222
856.996	3135
857.13	3192
857.263	3199
857.397	3283
857.53	3074
857.664	3203
857.797	3237
857.931	3249
858.064	3165
858.197	3203
858.331	3100
858.464	3070
858.597	2975
858.731	3100
858.864	3116
858.997	3081
859.13	3150
859.263	3142
859.396	3192
859.529	3100
859.662	3077
859.795	3043
859.928	3127
860.061	3260
860.194	3279
860.327	3097
860.46	3070
860.592	3218
860.725	3256
860.858	3256
860.99	3097
861.123	3032
861.256	3070
861.388	3142
861.521	3740
861.653	3013
861.786	2956
861.918	2994
862.05	3051
862.183	3085
862.315	3184
862.447	3192
862.58	3093
862.712	2956
862.844	2872
862.976	3009
863.108	2979
863.24	3355
863.372	2883
863.504	2963
863.636	2963
863.768	3028
863.9	2982
864.032	2929
864.164	2952
864.296	2982
864.428	3070
864.559	3097
864.691	3081
864.823	3062
864.954	3062
865.086	3024
865.217	2956
865.349	2937
865.48	2979
865.612	3017
865.743	3142
865.875	2979
866.006	2929
866.137	2960
866.269	2918
866.4	2944
866.531	2929
866.662	2876
866.793	2906
866.924	2887
867.055	3005
867.186	2925
867.317	2853
867.448	2842
867.579	2823
867.71	2853
867.841	2792
867.972	2891
868.103	2883
868.233	2883
868.364	2887
868.495	2902
868.625	3066
868.756	3157
868.886	2948
869.017	3005
869.147	3146
869.278	3116
869.408	3062
869.539	3047
869.669	3085
869.799	3039
869.929	3081
870.06	3097
870.19	3287
870.32	3294
870.45	3291
870.58	3359
870.71	3401
870.84	3435
870.97	3260
871.1	3237
871.23	3481
871.36	3447
871.489	3332
871.619	3344
871.749	3424
871.879	3401
872.008	3424
872.138	3340
872.267	3249
872.397	3131
872.526	3093
872.656	3009
872.785	3077
872.915	3195
873.044	3302
873.173	3188
873.303	3283
873.432	3207
873.561	3222
873.69	3123
873.819	3119
873.948	3203
874.077	3127
874.206	3036
874.335	3070
874.464	3211
874.593	3344
874.722	3268
874.851	3397
874.979	3332
875.108	3313
875.237	3211
875.365	3161
875.494	3150
875.623	3233
875.751	3112
875.88	3116
876.008	3192
876.136	3222
876.265	3363
876.393	3549
876.521	3439
876.65	3401
876.778	3332
876.906	3272
877.034	3184
877.162	3241
877.29	3214
877.418	3298
877.546	3268
877.674	3275
877.802	3241
877.93	3283
878.058	3161
878.185	3161
878.313	3253
878.441	3291
878.568	3047
878.696	3180
878.824	3283
878.951	3321
879.079	3496
879.206	3610
879.333	3462
879.461	3386
879.588	3386
879.715	3530
879.842	3572
879.97	3447
880.097	3226
880.224	3154
880.351	3222
880.478	3279
880.605	3245
880.732	3188
880.859	3515
880.986	3321
881.112	3374
881.239	3249
881.366	3123
881.493	3074
881.619	3062
881.746	3112
881.872	3104
881.999	3135
882.125	3165
882.252	3291
882.378	3306
882.505	3473
882.631	3348
882.757	3195
882.883	3237
883.01	3249
883.136	3222
883.262	3157
883.388	3165
883.514	3355
883.64	3363
883.766	3374
883.892	3264
884.018	3264
884.143	3462
884.269	3591
884.395	3275
884.52	3218
884.646	3237
884.772	3173
884.897	3154
885.023	3218
885.148	3340
885.274	3431
885.399	3454
885.524	3329
885.65	3336
885.775	3355
885.9	3317
886.025	3485
886.15	3431
886.275	3294
886.4	3260
886.525	3359
886.65	3332
886.775	3313
886.9	3538
887.025	3648
887.149	3443
887.274	3268
887.399	3184
887.523	3226
887.648	3199
887.773	3256
887.897	3428
888.021	3473
888.146	3321
888.27	3447
888.395	3542
888.519	3466
888.643	3496
888.767	3496
888.891	3332
889.015	3317
889.139	3355
889.263	3245
889.387	3439
889.511	3530
889.635	3496
889.759	3306
889.883	3332
890.006	3389
890.13	3530
890.254	3306
890.377	3382
890.501	3237
890.624	3233
890.748	3329
890.871	3218
890.995	3176
891.118	3123
891.241	3188
891.364	3256
891.488	3340
891.611	3233
891.734	3256
891.857	3348
891.98	3291
892.103	3363
892.226	3306
892.349	3245
892.471	3131
892.594	3298
892.717	3306
892.839	3272
892.962	3325
893.085	3389
893.207	3272
893.33	3180
893.452	3233
893.575	3393
893.697	3249
893.819	3454
893.941	3488
894.064	3519
894.186	3283
894.308	3268
894.43	3466
894.552	3553
894.674	3477
894.796	3253
894.918	3332
895.04	3329
895.161	3435
895.283	3409
895.405	3348
895.526	3405
895.648	3466
895.769	3500
895.891	3523
896.012	3519
896.134	3488
896.255	3447
896.376	3416
896.498	3420
896.619	3469
896.74	3389
896.861	3416
896.982	3724
897.103	3865
897.224	3641
897.345	3561
897.466	3462
897.587	3515
897.708	3648
897.828	3595
897.949	3466
898.07	3344
898.19	3454
898.311	3648
898.431	3504
898.552	3542
898.672	3618
898.792	3606
898.913	3507
899.033	3435
899.153	3294
899.273	3253
899.393	3363
899.513	3336
899.633	3367
899.753	3405
899.873	3355
899.993	3416
900.113	3382
900.232	3428
900.352	3412
900.472	3321
900.591	3195
900.711	3321
900.83	3313
900.95	3424
901.069	3534
901.189	3424
901.308	3253
901.427	3135
901.546	3192
901.665	3298
901.784	3382
901.904	3249
902.023	3192
902.141	3051
902.26	3036
902.379	3131
902.498	3108
902.617	3058
902.735	3233
902.854	3249
902.973	3237
903.091	3097
903.21	3112
903.328	3180
903.446	3127
903.565	3142
903.683	3233
903.801	3207
903.919	3253
904.038	3302
904.156	3214
904.274	3298
904.392	3313
904.51	3275
904.627	3359
904.745	3469
904.863	3542
904.981	3302
905.098	3199
905.216	3260
905.334	3310
905.451	3348
905.569	3355
905.686	3458
905.803	3488
905.921	3302
906.038	3450
906.155	3374
906.272	3336
906.389	3329
906.506	3241
906.623	3245
906.74	3329
906.857	3233
906.974	3279
907.091	3496
907.208	3587
907.324	3496
907.441	3450
907.557	3302
907.674	3245
907.79	3256
907.907	3306
908.023	3378
908.139	3409
908.256	3401
908.372	3386
908.488	3359
908.604	3260
908.72	3237
908.836	3310
908.952	3302
909.068	3355
909.184	3519
909.3	3378
909.415	3519
909.531	3496
909.647	3321
909.762	3348
909.878	3264
909.993	3401
910.108	3386
910.224	3367
910.339	3401
910.454	3386
910.57	3325
910.685	3302
910.8	3614
910.915	3553
911.03	3485
911.145	3287
911.259	3329
911.374	3370
911.489	3291
911.604	3241
911.718	3138
911.833	3214
911.947	3074
912.062	3001
912.176	3207
912.291	3195
912.405	3268
912.519	3473
912.633	3500
912.748	3340
912.862	3302
912.976	3245
913.09	3058
913.204	3154
913.318	3230
913.431	3378
913.545	3386
913.659	3409
913.772	3393
913.886	3253
914	3218
914.113	3378
914.226	3458
914.34	3389
914.453	3256
914.566	3412
914.68	3302
914.793	3351
914.906	3165
915.019	3165
915.132	3112
915.245	3176
915.358	3226
915.47	3260
915.583	3275
915.696	3344
915.809	3439
915.921	3435
916.034	3287
916.146	3291
916.259	3233
916.371	3435
916.483	3401
916.595	3287
916.708	3359
916.82	3393
916.932	3348
917.044	3412
917.156	3359
917.268	3275
917.38	3321
917.491	3344
917.603	3386
917.715	3466
917.826	3500
917.938	3386
918.049	3279
918.161	3450
918.272	3618
918.384	3572
918.495	3469
918.606	3321
918.717	3313
918.828	3409
918.939	3431
919.05	3340
919.161	3409
919.272	3222
919.383	3279
919.494	3542
919.604	3694
919.715	3496
919.826	3439
919.936	3462
920.047	3557
920.157	3564
920.267	3823
920.378	3633
920.488	3595
920.598	3819
920.708	3960
920.818	3827
920.928	3865
921.038	4067
921.148	4032
921.258	3751
921.368	3656
921.477	3599
921.587	3568
921.697	3496
921.806	3667
921.916	3557
922.025	3378
922.134	3397
922.244	3321
922.353	3473
922.462	3321
922.571	3275
922.68	3142
922.789	3081
922.898	3199
923.007	3104
923.116	3233
923.224	3184
923.333	3195
923.442	3085
923.55	3104
923.659	3131
923.767	3287
923.876	3135
923.984	3272
924.092	3161
924.201	3207
924.309	3245
924.417	3287
924.525	3214
924.633	3260
924.741	4230
924.849	3097
924.956	3275
925.064	3127
925.172	3051
925.279	3154
925.387	3241
925.494	3226
925.602	3363
925.709	3359
925.816	3222
925.924	3325
926.031	3439
926.138	3294
926.245	3344
926.352	3241
926.459	3409
926.566	3439
926.673	3344
926.779	3249
926.886	3272
926.993	3146
927.099	3104
927.206	3112
927.312	3116
927.419	3249
927.525	3184
927.631	3272
927.737	3142
927.843	3146
927.95	3047
928.056	3104
928.162	3195
928.267	3268
928.373	3892
928.479	3275
928.585	3093
928.69	3233
928.796	3264
928.901	3199
929.007	3074
929.112	3237
929.218	3180
929.323	3154
929.428	3150
929.533	3344
929.638	3135
929.743	3176
929.848	3268
929.953	3275
930.058	3188
930.163	3005
930.267	3066
930.372	3199
930.477	3070
930.581	3306
930.685	3199
930.79	3062
930.894	3146
930.998	3085
931.103	3283
931.207	2956
931.311	2960
931.415	2914
931.519	2796
931.623	2845
