Data from test_V78500241_10.txt Node
Date: Fri Mar 25 16:15:16 CST 2022
User: usil
Spectrometer: V785-0024
Trigger mode: 0
Integration Time (sec): 4.000000E-1
Scans to average: 1
Nonlinearity correction enabled: false
Boxcar width: 0
Storing dark spectrum: false
XAxis mode: Wavelengths
Number of Pixels in Spectrum: 1024
>>>>>Begin Spectral Data<<<<<
801.071	2933
801.214	2967
801.356	2925
801.499	2956
801.641	2880
801.783	2967
801.926	3104
802.068	3039
802.211	3051
802.353	3039
802.496	3032
802.638	3024
802.78	3081
802.923	3089
803.065	3032
803.208	2971
803.35	2963
803.492	2971
803.635	2990
803.777	2788
803.919	2906
804.061	3241
804.204	3001
804.346	2914
804.488	2876
804.63	3055
804.773	2929
804.915	2975
805.057	3154
805.199	3009
805.341	3055
805.483	3089
805.626	3039
805.768	3017
805.91	3093
806.052	3116
806.194	3112
806.336	3249
806.478	3077
806.62	3005
806.762	3020
806.904	3104
807.046	3211
807.188	3055
807.33	2956
807.472	3047
807.614	2967
807.756	3036
807.898	2982
808.04	2918
808.182	3024
808.324	3043
808.465	2899
808.607	2902
808.749	2811
808.891	2922
809.033	3009
809.174	3032
809.316	2899
809.458	2971
809.6	2823
809.741	2826
809.883	2800
810.025	2918
810.166	2883
810.308	2910
810.45	2910
810.591	2800
810.733	2834
810.875	2918
811.016	2800
811.158	2823
811.299	2849
811.441	2975
811.582	2944
811.724	2853
811.865	2906
812.007	2933
812.148	2922
812.29	2902
812.431	2948
812.573	3001
812.714	3028
812.855	3116
812.997	3104
813.138	3157
813.279	3093
813.421	3028
813.562	3028
813.703	2902
813.845	2937
813.986	2830
814.127	2769
814.268	2823
814.41	2891
814.551	2838
814.692	2899
814.833	2853
814.974	2982
815.115	2975
815.256	2876
815.397	2849
815.539	2922
815.68	2811
815.821	2807
815.962	2998
816.103	2963
816.244	2872
816.385	2910
816.526	3039
816.666	2960
816.807	2777
816.948	2956
817.089	2944
817.23	2914
817.371	2792
817.512	2834
817.653	2887
817.793	2876
817.934	2979
818.075	2998
818.216	3028
818.356	3081
818.497	2914
818.638	2857
818.778	2872
818.919	2853
819.06	2769
819.2	2895
819.341	2864
819.481	2868
819.622	2971
819.762	3138
819.903	3112
820.043	2948
820.184	2975
820.324	2971
820.465	3085
820.605	3081
820.746	3020
820.886	2948
821.026	3154
821.167	3222
821.307	3340
821.447	3329
821.588	3302
821.728	3268
821.868	3199
822.008	3119
822.149	3245
822.289	3245
822.429	3138
822.569	3119
822.709	3226
822.849	3062
822.99	3104
823.13	3222
823.27	3233
823.41	3176
823.55	3192
823.69	3199
823.83	3268
823.97	3119
824.11	3017
824.25	3043
824.389	3119
824.529	3169
824.669	3119
824.809	3260
824.949	3336
825.089	3275
825.228	3203
825.368	3051
825.508	2979
825.648	3013
825.787	3036
825.927	3058
826.067	3009
826.206	2998
826.346	3097
826.485	3131
826.625	3173
826.765	3317
826.904	3264
827.044	3081
827.183	2979
827.323	2880
827.462	3024
827.601	2975
827.741	2960
827.88	3020
828.02	2937
828.159	3032
828.298	3062
828.437	3161
828.577	3097
828.716	3298
828.855	3119
828.994	3009
829.134	2990
829.273	2975
829.412	2895
829.551	2864
829.69	2918
829.829	3043
829.968	3199
830.107	3047
830.246	3058
830.385	3009
830.524	2895
830.663	2861
830.802	2762
830.941	2693
831.08	2686
831.219	2804
831.357	2785
831.496	2967
831.635	2766
831.774	2686
831.913	2716
832.051	2575
832.19	2617
832.329	2739
832.467	2568
832.606	2526
832.744	2632
832.883	2606
833.022	2629
833.16	2720
833.299	2720
833.437	2716
833.576	2743
833.714	2762
833.852	2750
833.991	2815
834.129	2887
834.267	2872
834.406	2861
834.544	2925
834.682	2925
834.821	2902
834.959	3123
835.097	2937
835.235	3104
835.373	3036
835.511	3077
835.65	2982
835.788	3009
835.926	2868
836.064	2891
836.202	2914
836.34	3165
836.478	3245
836.615	3089
836.753	3226
836.891	3249
837.029	3192
837.167	3195
837.305	3123
837.443	3116
837.58	2994
837.718	3173
837.856	3127
837.993	3104
838.131	3146
838.269	3131
838.406	3173
838.544	3131
838.681	2967
838.819	2960
838.956	2811
839.094	2887
839.231	2944
839.369	3051
839.506	3389
839.643	3256
839.781	3070
839.918	2967
840.055	3108
840.193	3116
840.33	3112
840.467	3165
840.604	3184
840.742	3439
840.879	3104
841.016	3097
841.153	3142
841.29	3412
841.427	3363
841.564	3359
841.701	3405
841.838	3241
841.975	3199
842.112	3298
842.249	3108
842.385	3100
842.522	3310
842.659	3150
842.796	3127
842.933	3157
843.069	3131
843.206	3089
843.343	3230
843.479	3157
843.616	3218
843.752	2941
843.889	2914
844.025	3116
844.162	2960
844.298	3123
844.435	3001
844.571	2937
844.708	3100
844.844	3245
844.98	3268
845.117	3294
845.253	3089
845.389	3055
845.525	3135
845.661	3142
845.798	3005
845.934	3184
846.07	3108
846.206	3279
846.342	3389
846.478	3279
846.614	3135
846.75	3116
846.886	3100
847.022	3310
847.158	3146
847.294	3173
847.429	3321
847.565	3275
847.701	3561
847.837	3074
847.972	3039
848.108	3211
848.244	3192
848.379	3036
848.515	2994
848.65	2982
848.786	3001
848.921	3043
849.057	3142
849.192	3237
849.328	3070
849.463	3188
849.598	3062
849.734	3074
849.869	3036
850.004	2948
850.14	2982
850.275	2960
850.41	2868
850.545	2918
850.68	2952
850.815	3009
850.95	3009
851.085	3272
851.22	3146
851.355	3081
851.49	3036
851.625	3032
851.76	3032
851.895	2994
852.03	2948
852.165	3085
852.299	3161
852.434	3241
852.569	3211
852.703	3241
852.838	3294
852.973	3397
853.107	3439
853.242	3184
853.376	3119
853.511	3043
853.645	3051
853.78	3291
853.914	3184
854.048	3138
854.183	3154
854.317	3237
854.451	3401
854.585	3165
854.72	3138
854.854	3272
854.988	3097
855.122	3161
855.256	3009
855.39	3169
855.524	3325
855.658	3222
855.792	3253
855.926	3249
856.06	3245
856.194	3329
856.327	3214
856.461	3150
856.595	3165
856.729	3131
856.862	3268
856.996	3222
857.13	3226
857.263	3302
857.397	3351
857.53	3157
857.664	3253
857.797	3283
857.931	3325
858.064	3218
858.197	3249
858.331	3188
858.464	3146
858.597	3066
858.731	3173
858.864	3192
858.997	3116
859.13	3237
859.263	3275
859.396	3230
859.529	3146
859.662	3066
859.795	3093
859.928	3207
860.061	3294
860.194	3325
860.327	3203
860.46	3119
860.592	3302
860.725	3313
860.858	3321
860.99	3138
861.123	3138
861.256	3150
861.388	3173
861.521	3736
861.653	3070
861.786	3009
861.918	3028
862.05	3097
862.183	3135
862.315	3226
862.447	3241
862.58	3116
862.712	2979
862.844	2929
862.976	3062
863.108	3066
863.24	3450
863.372	2922
863.504	2994
863.636	3017
863.768	3066
863.9	3055
864.032	2948
864.164	2975
864.296	3074
864.428	3161
864.559	3146
864.691	3112
864.823	3108
864.954	3077
865.086	3093
865.217	3039
865.349	3001
865.48	3085
865.612	3093
865.743	3249
865.875	3055
866.006	3020
866.137	2975
866.269	3020
866.4	2994
866.531	2979
866.662	2937
866.793	2914
866.924	2929
867.055	3017
867.186	2979
867.317	2944
867.448	2834
867.579	2891
867.71	2910
867.841	2872
867.972	2960
868.103	2975
868.233	2937
868.364	2902
868.495	2937
868.625	3123
868.756	3230
868.886	3074
869.017	3066
869.147	3214
869.278	3218
869.408	3093
869.539	3047
869.669	3138
869.799	3074
869.929	3199
870.06	3150
870.19	3412
870.32	3325
870.45	3336
870.58	3428
870.71	3515
870.84	3504
870.97	3336
871.1	3272
871.23	3538
871.36	3504
871.489	3405
871.619	3454
871.749	3485
871.879	3519
872.008	3542
872.138	3443
872.267	3340
872.397	3176
872.526	3180
872.656	3058
872.785	3165
872.915	3237
873.044	3321
873.173	3268
873.303	3313
873.432	3275
873.561	3287
873.69	3199
873.819	3218
873.948	3268
874.077	3165
874.206	3093
874.335	3142
874.464	3245
874.593	3409
874.722	3237
874.851	3405
874.979	3386
875.108	3382
875.237	3256
875.365	3188
875.494	3233
875.623	3241
875.751	3108
875.88	3184
876.008	3249
876.136	3260
876.265	3439
876.393	3568
876.521	3477
876.65	3416
876.778	3412
876.906	3302
877.034	3249
877.162	3275
877.29	3226
877.418	3336
877.546	3294
877.674	3260
877.802	3344
877.93	3241
878.058	3230
878.185	3142
878.313	3275
878.441	3279
878.568	3081
878.696	3184
878.824	3287
878.951	3363
879.079	3530
879.206	3679
879.333	3504
879.461	3405
879.588	3428
879.715	3526
879.842	3641
879.97	3443
880.097	3237
880.224	3150
880.351	3256
880.478	3283
880.605	3268
880.732	3241
880.859	3564
880.986	3348
881.112	3363
881.239	3245
881.366	3138
881.493	3112
881.619	3108
881.746	3123
881.872	3142
881.999	3199
882.125	3230
882.252	3294
882.378	3351
882.505	3485
882.631	3302
882.757	3222
882.883	3249
883.01	3302
883.136	3214
883.262	3161
883.388	3184
883.514	3386
883.64	3481
883.766	3389
883.892	3203
884.018	3294
884.143	3458
884.269	3633
884.395	3275
884.52	3214
884.646	3253
884.772	3180
884.897	3211
885.023	3249
885.148	3382
885.274	3492
885.399	3378
885.524	3325
885.65	3325
885.775	3382
885.9	3340
886.025	3473
886.15	3409
886.275	3340
886.4	3268
886.525	3310
886.65	3306
886.775	3336
886.9	3572
887.025	3675
887.149	3488
887.274	3340
887.399	3241
887.523	3256
887.648	3226
887.773	3222
887.897	3420
888.021	3435
888.146	3374
888.27	3507
888.395	3610
888.519	3492
888.643	3519
888.767	3526
888.891	3386
889.015	3283
889.139	3325
889.263	3310
889.387	3466
889.511	3549
889.635	3557
889.759	3374
889.883	3382
890.006	3420
890.13	3595
890.254	3359
890.377	3389
890.501	3260
890.624	3226
890.748	3363
890.871	3268
890.995	3188
891.118	3135
891.241	3245
891.364	3317
891.488	3382
891.611	3241
891.734	3249
891.857	3344
891.98	3279
892.103	3359
892.226	3298
892.349	3237
892.471	3192
892.594	3272
892.717	3306
892.839	3313
892.962	3332
893.085	3439
893.207	3344
893.33	3184
893.452	3256
893.575	3428
893.697	3317
893.819	3515
893.941	3576
894.064	3504
894.186	3294
894.308	3321
894.43	3519
894.552	3591
894.674	3538
894.796	3348
894.918	3355
895.04	3313
895.161	3473
895.283	3439
895.405	3378
895.526	3416
895.648	3488
895.769	3485
895.891	3515
896.012	3511
896.134	3564
896.255	3458
896.376	3447
896.498	3397
896.619	3511
896.74	3409
896.861	3447
896.982	3751
897.103	3926
897.224	3644
897.345	3580
897.466	3485
897.587	3515
897.708	3705
897.828	3629
897.949	3443
898.07	3416
898.19	3473
898.311	3637
898.431	3549
898.552	3591
898.672	3698
898.792	3618
898.913	3542
899.033	3443
899.153	3351
899.273	3306
899.393	3329
899.513	3382
899.633	3393
899.753	3405
899.873	3363
899.993	3431
900.113	3416
900.232	3424
900.352	3401
900.472	3348
900.591	3291
900.711	3370
900.83	3313
900.95	3450
901.069	3530
901.189	3389
901.308	3230
901.427	3138
901.546	3253
901.665	3298
901.784	3397
901.904	3245
902.023	3245
902.141	3062
902.26	3055
902.379	3195
902.498	3138
902.617	3097
902.735	3249
902.854	3313
902.973	3226
903.091	3119
903.21	3142
903.328	3184
903.446	3142
903.565	3150
903.683	3214
903.801	3203
903.919	3317
904.038	3374
904.156	3230
904.274	3351
904.392	3317
904.51	3363
904.627	3424
904.745	3485
904.863	3595
904.981	3332
905.098	3218
905.216	3306
905.334	3355
905.451	3401
905.569	3389
905.686	3481
905.803	3492
905.921	3370
906.038	3492
906.155	3409
906.272	3363
906.389	3382
906.506	3275
906.623	3325
906.74	3291
906.857	3279
906.974	3279
907.091	3515
907.208	3660
907.324	3526
907.441	3473
907.557	3291
907.674	3241
907.79	3287
907.907	3329
908.023	3435
908.139	3469
908.256	3409
908.372	3393
908.488	3424
908.604	3332
908.72	3287
908.836	3367
908.952	3348
909.068	3382
909.184	3553
909.3	3458
909.415	3580
909.531	3538
909.647	3298
909.762	3355
909.878	3306
909.993	3401
910.108	3393
910.224	3378
910.339	3462
910.454	3378
910.57	3359
910.685	3298
910.8	3644
910.915	3584
911.03	3519
911.145	3340
911.259	3317
911.374	3378
911.489	3329
911.604	3313
911.718	3154
911.833	3207
911.947	3089
912.062	3024
912.176	3256
912.291	3241
912.405	3230
912.519	3500
912.633	3504
912.748	3378
912.862	3310
912.976	3211
913.09	3112
913.204	3165
913.318	3260
913.431	3370
913.545	3363
913.659	3450
913.772	3374
913.886	3268
914	3283
914.113	3439
914.226	3481
914.34	3412
914.453	3313
914.566	3469
914.68	3370
914.793	3359
914.906	3233
915.019	3146
915.132	3123
915.245	3218
915.358	3279
915.47	3287
915.583	3332
915.696	3386
915.809	3473
915.921	3462
916.034	3306
916.146	3298
916.259	3283
916.371	3401
916.483	3405
916.595	3348
916.708	3420
916.82	3363
916.932	3378
917.044	3409
917.156	3420
917.268	3317
917.38	3321
917.491	3336
917.603	3439
917.715	3496
917.826	3564
917.938	3450
918.049	3348
918.161	3485
918.272	3618
918.384	3652
918.495	3568
918.606	3378
918.717	3329
918.828	3416
918.939	3500
919.05	3389
919.161	3401
919.272	3226
919.383	3348
919.494	3568
919.604	3743
919.715	3530
919.826	3450
919.936	3515
920.047	3629
920.157	3614
920.267	3827
920.378	3667
920.488	3618
920.598	3797
920.708	4040
920.818	3880
920.928	3926
921.038	4086
921.148	4063
921.258	3762
921.368	3675
921.477	3656
921.587	3591
921.697	3511
921.806	3698
921.916	3553
922.025	3416
922.134	3389
922.244	3401
922.353	3488
922.462	3306
922.571	3291
922.68	3157
922.789	3119
922.898	3180
923.007	3157
923.116	3253
923.224	3245
923.333	3207
923.442	3135
923.55	3142
923.659	3188
923.767	3260
923.876	3135
923.984	3245
924.092	3176
924.201	3222
924.309	3260
924.417	3253
924.525	3218
924.633	3287
924.741	4268
924.849	3066
924.956	3306
925.064	3184
925.172	3074
925.279	3195
925.387	3253
925.494	3253
925.602	3412
925.709	3386
925.816	3256
925.924	3348
926.031	3454
926.138	3355
926.245	3439
926.352	3310
926.459	3473
926.566	3542
926.673	3355
926.779	3321
926.886	3275
926.993	3207
927.099	3218
927.206	3184
927.312	3157
927.419	3275
927.525	3260
927.631	3325
927.737	3184
927.843	3161
927.95	3085
928.056	3169
928.162	3214
928.267	3302
928.373	3861
928.479	3382
928.585	3150
928.69	3279
928.796	3317
928.901	3211
929.007	3089
929.112	3268
929.218	3226
929.323	3203
929.428	3192
929.533	3386
929.638	3169
929.743	3184
929.848	3313
929.953	3245
930.058	3154
930.163	3047
930.267	3047
930.372	3272
930.477	3070
930.581	3378
930.685	3222
930.79	3116
930.894	3199
930.998	3154
931.103	3332
931.207	3005
931.311	3001
931.415	2956
931.519	2796
931.623	2849
