Data from test_V78500241_95.txt Node
Date: Fri Mar 25 16:15:51 CST 2022
User: usil
Spectrometer: V785-0024
Trigger mode: 0
Integration Time (sec): 4.000000E-1
Scans to average: 1
Nonlinearity correction enabled: false
Boxcar width: 0
Storing dark spectrum: false
XAxis mode: Wavelengths
Number of Pixels in Spectrum: 1024
>>>>>Begin Spectral Data<<<<<
801.071	2975
801.214	3005
801.356	2895
801.499	2944
801.641	2967
801.783	2979
801.926	3138
802.068	3039
802.211	3062
802.353	3081
802.496	2990
802.638	3081
802.78	3058
802.923	3119
803.065	3055
803.208	2990
803.35	2960
803.492	3005
803.635	2990
803.777	2800
803.919	2876
804.061	3264
804.204	3043
804.346	2960
804.488	2857
804.63	3036
804.773	2910
804.915	2960
805.057	3138
805.199	2956
805.341	3058
805.483	3051
805.626	3024
805.768	3001
805.91	3150
806.052	3176
806.194	3085
806.336	3256
806.478	3081
806.62	3036
806.762	3013
806.904	3074
807.046	3203
807.188	3001
807.33	2986
807.472	3058
807.614	2918
807.756	3036
807.898	2979
808.04	2929
808.182	3020
808.324	2960
808.465	2910
808.607	2929
808.749	2830
808.891	2910
809.033	2994
809.174	2979
809.316	2925
809.458	2929
809.6	2826
809.741	2823
809.883	2853
810.025	2899
810.166	2925
810.308	2864
810.45	2914
810.591	2811
810.733	2815
810.875	2872
811.016	2796
811.158	2815
811.299	2845
811.441	2929
811.582	2937
811.724	2861
811.865	2838
812.007	2944
812.148	2933
812.29	2883
812.431	2944
812.573	2986
812.714	3001
812.855	3081
812.997	3070
813.138	3176
813.279	3074
813.421	3039
813.562	2982
813.703	2914
813.845	2925
813.986	2811
814.127	2773
814.268	2876
814.41	2914
814.551	2830
814.692	2929
814.833	2861
814.974	2922
815.115	2986
815.256	2864
815.397	2842
815.539	2914
815.68	2804
815.821	2853
815.962	2982
816.103	2960
816.244	2895
816.385	2887
816.526	2998
816.666	2986
816.807	2769
816.948	2910
817.089	2990
817.23	2902
817.371	2823
817.512	2845
817.653	2868
817.793	2895
817.934	2876
818.075	2986
818.216	2975
818.356	3074
818.497	2937
818.638	2823
818.778	2857
818.919	2819
819.06	2788
819.2	2902
819.341	2861
819.481	2826
819.622	2967
819.762	3154
819.903	3081
820.043	2956
820.184	2948
820.324	2941
820.465	3077
820.605	3074
820.746	3032
820.886	3001
821.026	3104
821.167	3195
821.307	3298
821.447	3348
821.588	3313
821.728	3245
821.868	3214
822.008	3161
822.149	3214
822.289	3268
822.429	3154
822.569	3146
822.709	3180
822.849	3055
822.99	3119
823.13	3176
823.27	3233
823.41	3161
823.55	3192
823.69	3199
823.83	3211
823.97	3154
824.11	3062
824.25	3043
824.389	3093
824.529	3161
824.669	3119
824.809	3237
824.949	3275
825.089	3226
825.228	3184
825.368	3051
825.508	2998
825.648	2982
825.787	3058
825.927	3024
826.067	2979
826.206	2990
826.346	3070
826.485	3119
826.625	3131
826.765	3294
826.904	3253
827.044	3017
827.183	2967
827.323	2929
827.462	2971
827.601	2933
827.741	2979
827.88	2975
828.02	2887
828.159	3020
828.298	3085
828.437	3154
828.577	3074
828.716	3317
828.855	3116
828.994	2963
829.134	2925
829.273	2994
829.412	2883
829.551	2925
829.69	2918
829.829	3032
829.968	3161
830.107	3066
830.246	3043
830.385	2994
830.524	2899
830.663	2819
830.802	2758
830.941	2651
831.08	2720
831.219	2781
831.357	2796
831.496	2952
831.635	2746
831.774	2674
831.913	2693
832.051	2575
832.19	2602
832.329	2697
832.467	2579
832.606	2526
832.744	2621
832.883	2625
833.022	2590
833.16	2659
833.299	2693
833.437	2739
833.576	2743
833.714	2766
833.852	2750
833.991	2750
834.129	2883
834.267	2853
834.406	2853
834.544	2929
834.682	2891
834.821	2868
834.959	3093
835.097	2906
835.235	3097
835.373	2998
835.511	3043
835.65	3005
835.788	3039
835.926	2861
836.064	2823
836.202	2883
836.34	3104
836.478	3165
836.615	3081
836.753	3199
836.891	3230
837.029	3180
837.167	3142
837.305	3104
837.443	3081
837.58	2990
837.718	3138
837.856	3077
837.993	3055
838.131	3154
838.269	3116
838.406	3119
838.544	3081
838.681	2967
838.819	2967
838.956	2845
839.094	2883
839.231	2925
839.369	3055
839.506	3450
839.643	3256
839.781	3074
839.918	3017
840.055	3089
840.193	3062
840.33	3104
840.467	3173
840.604	3173
840.742	3416
840.879	3089
841.016	3104
841.153	3165
841.29	3348
841.427	3348
841.564	3340
841.701	3389
841.838	3214
841.975	3245
842.112	3245
842.249	3112
842.385	3062
842.522	3279
842.659	3135
842.796	3066
842.933	3142
843.069	3089
843.206	3100
843.343	3203
843.479	3116
843.616	3157
843.752	2941
843.889	2872
844.025	3081
844.162	2895
844.298	3100
844.435	2967
844.571	2941
844.708	3097
844.844	3237
844.98	3279
845.117	3211
845.253	3051
845.389	3039
845.525	3116
845.661	3104
845.798	3020
845.934	3161
846.07	3093
846.206	3230
846.342	3344
846.478	3241
846.614	3146
846.75	3051
846.886	3058
847.022	3275
847.158	3165
847.294	3256
847.429	3298
847.565	3268
847.701	3538
847.837	3077
847.972	3009
848.108	3211
848.244	3154
848.379	2998
848.515	2963
848.65	2960
848.786	2990
848.921	3047
849.057	3089
849.192	3203
849.328	3093
849.463	3127
849.598	3093
849.734	3093
849.869	3001
850.004	2925
850.14	2994
850.275	2922
850.41	2861
850.545	2922
850.68	2948
850.815	2982
850.95	3020
851.085	3222
851.22	3157
851.355	3039
851.49	3009
851.625	3020
851.76	3036
851.895	2948
852.03	2929
852.165	3074
852.299	3173
852.434	3173
852.569	3192
852.703	3180
852.838	3279
852.973	3378
853.107	3348
853.242	3169
853.376	3100
853.511	3020
853.645	3089
853.78	3253
853.914	3157
854.048	3135
854.183	3085
854.317	3199
854.451	3287
854.585	3150
854.72	3127
854.854	3264
854.988	3085
855.122	3085
855.256	2979
855.39	3138
855.524	3291
855.658	3211
855.792	3203
855.926	3260
856.06	3253
856.194	3298
856.327	3180
856.461	3097
856.595	3112
856.729	3108
856.862	3279
856.996	3142
857.13	3245
857.263	3207
857.397	3275
857.53	3180
857.664	3203
857.797	3275
857.931	3283
858.064	3176
858.197	3260
858.331	3165
858.464	3131
858.597	3036
858.731	3135
858.864	3188
858.997	3138
859.13	3173
859.263	3207
859.396	3199
859.529	3085
859.662	3093
859.795	3047
859.928	3188
860.061	3287
860.194	3310
860.327	3154
860.46	3138
860.592	3249
860.725	3302
860.858	3260
860.99	3150
861.123	3077
861.256	3074
861.388	3173
861.521	3747
861.653	2994
861.786	3020
861.918	3043
862.05	3097
862.183	3112
862.315	3142
862.447	3230
862.58	3104
862.712	2948
862.844	2891
862.976	3024
863.108	3047
863.24	3462
863.372	2929
863.504	3020
863.636	3001
863.768	3066
863.9	3013
864.032	2910
864.164	2975
864.296	3047
864.428	3112
864.559	3135
864.691	3077
864.823	3123
864.954	3039
865.086	3062
865.217	2998
865.349	2994
865.48	3013
865.612	3020
865.743	3154
865.875	3013
866.006	2967
866.137	3001
866.269	3005
866.4	2937
866.531	2929
866.662	2914
866.793	2937
866.924	2933
867.055	3009
867.186	2944
867.317	2941
867.448	2838
867.579	2906
867.71	2842
867.841	2849
867.972	2925
868.103	2910
868.233	2925
868.364	2925
868.495	2937
868.625	3131
868.756	3195
868.886	3032
869.017	2994
869.147	3195
869.278	3173
869.408	3051
869.539	3036
869.669	3119
869.799	3047
869.929	3131
870.06	3138
870.19	3302
870.32	3355
870.45	3344
870.58	3401
870.71	3488
870.84	3462
870.97	3313
871.1	3268
871.23	3488
871.36	3511
871.489	3409
871.619	3435
871.749	3454
871.879	3443
872.008	3519
872.138	3370
872.267	3283
872.397	3142
872.526	3116
872.656	3017
872.785	3142
872.915	3264
873.044	3359
873.173	3264
873.303	3272
873.432	3275
873.561	3275
873.69	3188
873.819	3154
873.948	3253
874.077	3142
874.206	3081
874.335	3138
874.464	3249
874.593	3389
874.722	3275
874.851	3409
874.979	3382
875.108	3363
875.237	3199
875.365	3180
875.494	3180
875.623	3256
875.751	3097
875.88	3127
876.008	3214
876.136	3275
876.265	3393
876.393	3542
876.521	3439
876.65	3454
876.778	3374
876.906	3253
877.034	3195
877.162	3237
877.29	3260
877.418	3283
877.546	3245
877.674	3253
877.802	3268
877.93	3211
878.058	3169
878.185	3112
878.313	3256
878.441	3256
878.568	3070
878.696	3176
878.824	3306
878.951	3325
879.079	3469
879.206	3614
879.333	3485
879.461	3370
879.588	3348
879.715	3515
879.842	3625
879.97	3412
880.097	3169
880.224	3161
880.351	3233
880.478	3241
880.605	3233
880.732	3268
880.859	3507
880.986	3317
881.112	3355
881.239	3184
881.366	3135
881.493	3077
881.619	3047
881.746	3070
881.872	3108
881.999	3123
882.125	3211
882.252	3253
882.378	3351
882.505	3462
882.631	3291
882.757	3211
882.883	3222
883.01	3279
883.136	3218
883.262	3116
883.388	3112
883.514	3336
883.64	3450
883.766	3351
883.892	3256
884.018	3279
884.143	3447
884.269	3564
884.395	3245
884.52	3207
884.646	3214
884.772	3119
884.897	3104
885.023	3226
885.148	3367
885.274	3439
885.399	3409
885.524	3298
885.65	3313
885.775	3306
885.9	3332
886.025	3466
886.15	3412
886.275	3367
886.4	3249
886.525	3340
886.65	3294
886.775	3351
886.9	3492
887.025	3641
887.149	3447
887.274	3294
887.399	3203
887.523	3226
887.648	3222
887.773	3237
887.897	3397
888.021	3428
888.146	3348
888.27	3443
888.395	3584
888.519	3473
888.643	3496
888.767	3477
888.891	3329
889.015	3260
889.139	3348
889.263	3245
889.387	3454
889.511	3530
889.635	3439
889.759	3272
889.883	3306
890.006	3393
890.13	3496
890.254	3310
890.377	3348
890.501	3249
890.624	3188
890.748	3340
890.871	3203
890.995	3165
891.118	3116
891.241	3195
891.364	3249
891.488	3325
891.611	3192
891.734	3222
891.857	3344
891.98	3260
892.103	3363
892.226	3310
892.349	3256
892.471	3123
892.594	3275
892.717	3302
892.839	3287
892.962	3336
893.085	3397
893.207	3317
893.33	3161
893.452	3256
893.575	3367
893.697	3256
893.819	3507
893.941	3515
894.064	3450
894.186	3283
894.308	3317
894.43	3462
894.552	3591
894.674	3496
894.796	3241
894.918	3332
895.04	3310
895.161	3466
895.283	3443
895.405	3351
895.526	3386
895.648	3443
895.769	3477
895.891	3435
896.012	3500
896.134	3534
896.255	3447
896.376	3435
896.498	3363
896.619	3420
896.74	3370
896.861	3416
896.982	3740
897.103	3880
897.224	3614
897.345	3507
897.466	3462
897.587	3542
897.708	3629
897.828	3580
897.949	3447
898.07	3374
898.19	3454
898.311	3610
898.431	3462
898.552	3553
898.672	3648
898.792	3591
898.913	3553
899.033	3416
899.153	3351
899.273	3253
899.393	3329
899.513	3332
899.633	3351
899.753	3355
899.873	3340
899.993	3412
900.113	3367
900.232	3447
900.352	3378
900.472	3287
900.591	3230
900.711	3351
900.83	3272
900.95	3481
901.069	3534
901.189	3397
901.308	3218
901.427	3138
901.546	3233
901.665	3302
901.784	3401
901.904	3260
902.023	3161
902.141	3055
902.26	3051
902.379	3169
902.498	3104
902.617	3116
902.735	3260
902.854	3226
902.973	3203
903.091	3066
903.21	3097
903.328	3123
903.446	3138
903.565	3138
903.683	3230
903.801	3195
903.919	3230
904.038	3302
904.156	3169
904.274	3298
904.392	3306
904.51	3302
904.627	3351
904.745	3477
904.863	3526
904.981	3325
905.098	3241
905.216	3272
905.334	3306
905.451	3355
905.569	3332
905.686	3454
905.803	3439
905.921	3336
906.038	3435
906.155	3412
906.272	3306
906.389	3348
906.506	3214
906.623	3313
906.74	3294
906.857	3226
906.974	3283
907.091	3473
907.208	3633
907.324	3500
907.441	3447
907.557	3287
907.674	3249
907.79	3268
907.907	3336
908.023	3428
908.139	3389
908.256	3359
908.372	3359
908.488	3378
908.604	3294
908.72	3253
908.836	3306
908.952	3321
909.068	3393
909.184	3511
909.3	3435
909.415	3564
909.531	3530
909.647	3256
909.762	3332
909.878	3264
909.993	3386
910.108	3355
910.224	3382
910.339	3447
910.454	3351
910.57	3294
910.685	3291
910.8	3584
910.915	3591
911.03	3469
911.145	3294
911.259	3310
911.374	3405
911.489	3264
911.604	3253
911.718	3142
911.833	3135
911.947	3077
912.062	3017
912.176	3157
912.291	3195
912.405	3256
912.519	3477
912.633	3492
912.748	3340
912.862	3321
912.976	3184
913.09	3074
913.204	3176
913.318	3253
913.431	3306
913.545	3367
913.659	3412
913.772	3332
913.886	3230
914	3222
914.113	3420
914.226	3450
914.34	3405
914.453	3294
914.566	3424
914.68	3348
914.793	3363
914.906	3150
915.019	3173
915.132	3100
915.245	3230
915.358	3233
915.47	3260
915.583	3313
915.696	3363
915.809	3416
915.921	3469
916.034	3268
916.146	3279
916.259	3260
916.371	3405
916.483	3363
916.595	3298
916.708	3348
916.82	3344
916.932	3374
917.044	3393
917.156	3382
917.268	3264
917.38	3336
917.491	3306
917.603	3409
917.715	3473
917.826	3511
917.938	3409
918.049	3291
918.161	3458
918.272	3584
918.384	3603
918.495	3545
918.606	3344
918.717	3283
918.828	3393
918.939	3481
919.05	3340
919.161	3378
919.272	3218
919.383	3317
919.494	3523
919.604	3720
919.715	3507
919.826	3401
919.936	3492
920.047	3614
920.157	3553
920.267	3846
920.378	3637
920.488	3625
920.598	3804
920.708	3979
920.818	3869
920.928	3873
921.038	4086
921.148	3998
921.258	3728
921.368	3679
921.477	3652
921.587	3549
921.697	3473
921.806	3610
921.916	3587
922.025	3367
922.134	3382
922.244	3332
922.353	3462
922.462	3249
922.571	3268
922.68	3127
922.789	3097
922.898	3195
923.007	3119
923.116	3237
923.224	3180
923.333	3176
923.442	3116
923.55	3112
923.659	3192
923.767	3245
923.876	3142
923.984	3256
924.092	3142
924.201	3222
924.309	3253
924.417	3306
924.525	3199
924.633	3264
924.741	4192
924.849	3077
924.956	3298
925.064	3150
925.172	3089
925.279	3127
925.387	3192
925.494	3245
925.602	3393
925.709	3386
925.816	3211
925.924	3306
926.031	3363
926.138	3344
926.245	3351
926.352	3294
926.459	3450
926.566	3466
926.673	3382
926.779	3253
926.886	3283
926.993	3195
927.099	3165
927.206	3146
927.312	3154
927.419	3291
927.525	3256
927.631	3294
927.737	3184
927.843	3146
927.95	3024
928.056	3116
928.162	3214
928.267	3253
928.373	3812
928.479	3348
928.585	3070
928.69	3233
928.796	3348
928.901	3176
929.007	3081
929.112	3218
929.218	3226
929.323	3138
929.428	3157
929.533	3344
929.638	3116
929.743	3203
929.848	3306
929.953	3222
930.058	3169
930.163	3020
930.267	3058
930.372	3214
930.477	3028
930.581	3325
930.685	3245
930.79	3055
930.894	3161
930.998	3135
931.103	3321
931.207	3009
931.311	2982
931.415	2891
931.519	2807
931.623	2872
