Data from test_V78500241_1505.txt Node
Date: Fri Mar 25 16:25:37 CST 2022
User: usil
Spectrometer: V785-0024
Trigger mode: 0
Integration Time (sec): 4.000000E-1
Scans to average: 1
Nonlinearity correction enabled: false
Boxcar width: 0
Storing dark spectrum: false
XAxis mode: Wavelengths
Number of Pixels in Spectrum: 1024
>>>>>Begin Spectral Data<<<<<
801.071	2952
801.214	2963
801.356	2872
801.499	2876
801.641	2895
801.783	2941
801.926	3070
802.068	2994
802.211	3055
802.353	3039
802.496	2975
802.638	3013
802.78	3047
802.923	3138
803.065	3051
803.208	2941
803.35	2933
803.492	2963
803.635	2971
803.777	2800
803.919	2861
804.061	3256
804.204	2975
804.346	2925
804.488	2880
804.63	3017
804.773	2887
804.915	2937
805.057	3104
805.199	2929
805.341	2967
805.483	3055
805.626	2979
805.768	2998
805.91	3089
806.052	3108
806.194	3043
806.336	3260
806.478	3039
806.62	2937
806.762	3013
806.904	3062
807.046	3188
807.188	3009
807.33	2891
807.472	2967
807.614	2914
807.756	2971
807.898	2937
808.04	2922
808.182	2971
808.324	2941
808.465	2880
808.607	2872
808.749	2785
808.891	2857
809.033	2941
809.174	3001
809.316	2910
809.458	2895
809.6	2777
809.741	2766
809.883	2773
810.025	2853
810.166	2853
810.308	2834
810.45	2868
810.591	2773
810.733	2777
810.875	2788
811.016	2785
811.158	2777
811.299	2804
811.441	2902
811.582	2948
811.724	2823
811.865	2826
812.007	2937
812.148	2887
812.29	2914
812.431	2880
812.573	2952
812.714	2956
812.855	3036
812.997	3074
813.138	3085
813.279	3013
813.421	3009
813.562	2986
813.703	2868
813.845	2922
813.986	2777
814.127	2758
814.268	2861
814.41	2826
814.551	2796
814.692	2876
814.833	2815
814.974	2895
815.115	2944
815.256	2830
815.397	2781
815.539	2815
815.68	2777
815.821	2781
815.962	2918
816.103	2925
816.244	2887
816.385	2899
816.526	2967
816.666	2925
816.807	2724
816.948	2880
817.089	2906
817.23	2849
817.371	2796
817.512	2788
817.653	2815
817.793	2807
817.934	2883
818.075	2941
818.216	2998
818.356	3066
818.497	2864
818.638	2807
818.778	2830
818.919	2773
819.06	2758
819.2	2876
819.341	2823
819.481	2777
819.622	2906
819.762	3081
819.903	3047
820.043	2929
820.184	2880
820.324	2918
820.465	3020
820.605	2998
820.746	3036
820.886	2914
821.026	3100
821.167	3135
821.307	3256
821.447	3256
821.588	3211
821.728	3226
821.868	3184
822.008	3081
822.149	3157
822.289	3184
822.429	3093
822.569	3081
822.709	3150
822.849	3028
822.99	3081
823.13	3154
823.27	3230
823.41	3154
823.55	3127
823.69	3173
823.83	3165
823.97	3146
824.11	3005
824.25	2979
824.389	3077
824.529	3123
824.669	3055
824.809	3214
824.949	3264
825.089	3249
825.228	3192
825.368	3055
825.508	2967
825.648	3017
825.787	3055
825.927	3036
826.067	2979
826.206	2998
826.346	3097
826.485	3116
826.625	3138
826.765	3336
826.904	3291
827.044	3024
827.183	2948
827.323	2925
827.462	2998
827.601	2933
827.741	2979
827.88	2971
828.02	2876
828.159	3039
828.298	3089
828.437	3199
828.577	3058
828.716	3272
828.855	3097
828.994	2975
829.134	2895
829.273	2986
829.412	2906
829.551	2937
829.69	2922
829.829	3039
829.968	3165
830.107	3066
830.246	3074
830.385	2960
830.524	2906
830.663	2815
830.802	2785
830.941	2689
831.08	2670
831.219	2826
831.357	2819
831.496	2948
831.635	2762
831.774	2712
831.913	2708
832.051	2610
832.19	2625
832.329	2697
832.467	2598
832.606	2514
832.744	2640
832.883	2625
833.022	2594
833.16	2716
833.299	2754
833.437	2701
833.576	2750
833.714	2766
833.852	2781
833.991	2815
834.129	2899
834.267	2887
834.406	2842
834.544	2906
834.682	2925
834.821	2883
834.959	3104
835.097	2956
835.235	3135
835.373	3043
835.511	3039
835.65	2982
835.788	2967
835.926	2853
836.064	2857
836.202	2876
836.34	3100
836.478	3184
836.615	3081
836.753	3146
836.891	3230
837.029	3192
837.167	3165
837.305	3093
837.443	3039
837.58	2941
837.718	3161
837.856	3093
837.993	3066
838.131	3138
838.269	3176
838.406	3123
838.544	3108
838.681	2933
838.819	2975
838.956	2864
839.094	2899
839.231	2944
839.369	3062
839.506	3428
839.643	3260
839.781	3062
839.918	2986
840.055	3093
840.193	3093
840.33	3089
840.467	3127
840.604	3184
840.742	3386
840.879	3104
841.016	3077
841.153	3150
841.29	3393
841.427	3317
841.564	3291
841.701	3325
841.838	3222
841.975	3180
842.112	3275
842.249	3104
842.385	3074
842.522	3268
842.659	3112
842.796	3097
842.933	3154
843.069	3100
843.206	3051
843.343	3214
843.479	3180
843.616	3173
843.752	2887
843.889	2880
844.025	3116
844.162	2914
844.298	3097
844.435	2994
844.571	2937
844.708	3116
844.844	3195
844.98	3291
845.117	3233
845.253	3062
845.389	3020
845.525	3138
845.661	3127
845.798	3047
845.934	3195
846.07	3058
846.206	3233
846.342	3355
846.478	3253
846.614	3104
846.75	3066
846.886	3055
847.022	3260
847.158	3169
847.294	3230
847.429	3272
847.565	3279
847.701	3481
847.837	3077
847.972	2998
848.108	3214
848.244	3188
848.379	3028
848.515	2990
848.65	3001
848.786	2982
848.921	3017
849.057	3100
849.192	3173
849.328	3089
849.463	3112
849.598	3097
849.734	3028
849.869	2986
850.004	2933
850.14	2994
850.275	2967
850.41	2887
850.545	2883
850.68	2998
850.815	2963
850.95	3047
851.085	3237
851.22	3173
851.355	3039
851.49	3028
851.625	3066
851.76	3051
851.895	2944
852.03	2902
852.165	3024
852.299	3146
852.434	3222
852.569	3188
852.703	3207
852.838	3294
852.973	3348
853.107	3313
853.242	3165
853.376	3138
853.511	3009
853.645	3017
853.78	3249
853.914	3176
854.048	3142
854.183	3081
854.317	3184
854.451	3332
854.585	3157
854.72	3142
854.854	3214
854.988	3108
855.122	3108
855.256	2986
855.39	3142
855.524	3283
855.658	3256
855.792	3176
855.926	3230
856.06	3230
856.194	3272
856.327	3214
856.461	3108
856.595	3150
856.729	3138
856.862	3241
856.996	3192
857.13	3207
857.263	3233
857.397	3317
857.53	3154
857.664	3264
857.797	3249
857.931	3264
858.064	3203
858.197	3211
858.331	3146
858.464	3131
858.597	3047
858.731	3150
858.864	3146
858.997	3131
859.13	3169
859.263	3222
859.396	3203
859.529	3131
859.662	3112
859.795	3077
859.928	3188
860.061	3332
860.194	3306
860.327	3127
860.46	3142
860.592	3241
860.725	3302
860.858	3287
860.99	3138
861.123	3081
861.256	3100
861.388	3192
861.521	3831
861.653	3047
861.786	2982
861.918	3032
862.05	3070
862.183	3104
862.315	3131
862.447	3226
862.58	3123
862.712	2937
862.844	2906
862.976	3020
863.108	3024
863.24	3332
863.372	2880
863.504	3005
863.636	2982
863.768	3047
863.9	3001
864.032	2948
864.164	2979
864.296	3043
864.428	3135
864.559	3116
864.691	3093
864.823	3085
864.954	3081
865.086	3108
865.217	3024
865.349	2994
865.48	3028
865.612	3017
865.743	3176
865.875	3024
866.006	2933
866.137	3028
866.269	2998
866.4	2975
866.531	2971
866.662	2933
866.793	2929
866.924	2906
867.055	2982
867.186	2925
867.317	2902
867.448	2857
867.579	2876
867.71	2857
867.841	2864
867.972	2925
868.103	2876
868.233	2906
868.364	2895
868.495	2891
868.625	3097
868.756	3192
868.886	3013
869.017	3051
869.147	3188
869.278	3192
869.408	3085
869.539	3036
869.669	3100
869.799	3085
869.929	3169
870.06	3123
870.19	3329
870.32	3332
870.45	3298
870.58	3370
870.71	3492
870.84	3435
870.97	3310
871.1	3245
871.23	3523
871.36	3485
871.489	3405
871.619	3439
871.749	3420
871.879	3435
872.008	3462
872.138	3367
872.267	3294
872.397	3207
872.526	3116
872.656	3039
872.785	3123
872.915	3249
873.044	3310
873.173	3241
873.303	3283
873.432	3237
873.561	3272
873.69	3180
873.819	3150
873.948	3256
874.077	3135
874.206	3058
874.335	3089
874.464	3264
874.593	3374
874.722	3317
874.851	3420
874.979	3355
875.108	3351
875.237	3226
875.365	3192
875.494	3192
875.623	3233
875.751	3112
875.88	3119
876.008	3222
876.136	3245
876.265	3405
876.393	3542
876.521	3439
876.65	3447
876.778	3359
876.906	3279
877.034	3203
877.162	3230
877.29	3176
877.418	3268
877.546	3253
877.674	3268
877.802	3283
877.93	3256
878.058	3188
878.185	3123
878.313	3199
878.441	3230
878.568	3074
878.696	3173
878.824	3260
878.951	3294
879.079	3450
879.206	3644
879.333	3454
879.461	3363
879.588	3409
879.715	3496
879.842	3606
879.97	3416
880.097	3199
880.224	3146
880.351	3226
880.478	3253
880.605	3260
880.732	3211
880.859	3496
880.986	3283
881.112	3332
881.239	3218
881.366	3070
881.493	3017
881.619	3020
881.746	3074
881.872	3112
881.999	3085
882.125	3165
882.252	3275
882.378	3298
882.505	3473
882.631	3264
882.757	3176
882.883	3230
883.01	3279
883.136	3199
883.262	3146
883.388	3112
883.514	3332
883.64	3363
883.766	3317
883.892	3218
884.018	3245
884.143	3420
884.269	3545
884.395	3245
884.52	3195
884.646	3192
884.772	3165
884.897	3131
885.023	3226
885.148	3355
885.274	3454
885.399	3359
885.524	3260
885.65	3279
885.775	3310
885.9	3313
886.025	3458
886.15	3359
886.275	3283
886.4	3272
886.525	3310
886.65	3268
886.775	3275
886.9	3530
887.025	3637
887.149	3412
887.274	3279
887.399	3207
887.523	3222
887.648	3222
887.773	3237
887.897	3401
888.021	3378
888.146	3329
888.27	3428
888.395	3530
888.519	3450
888.643	3447
888.767	3466
888.891	3351
889.015	3218
889.139	3306
889.263	3279
889.387	3424
889.511	3496
889.635	3469
889.759	3272
889.883	3298
890.006	3386
890.13	3492
890.254	3272
890.377	3351
890.501	3211
890.624	3188
890.748	3321
890.871	3207
890.995	3135
891.118	3081
891.241	3199
891.364	3180
891.488	3336
891.611	3195
891.734	3222
891.857	3268
891.98	3279
892.103	3382
892.226	3279
892.349	3214
892.471	3127
892.594	3245
892.717	3294
892.839	3294
892.962	3313
893.085	3409
893.207	3291
893.33	3150
893.452	3218
893.575	3355
893.697	3245
893.819	3469
893.941	3477
894.064	3447
894.186	3264
894.308	3226
894.43	3447
894.552	3561
894.674	3458
894.796	3279
894.918	3306
895.04	3275
895.161	3397
895.283	3450
895.405	3317
895.526	3386
895.648	3447
895.769	3431
895.891	3428
896.012	3481
896.134	3466
896.255	3412
896.376	3405
896.498	3359
896.619	3409
896.74	3370
896.861	3405
896.982	3667
897.103	3850
897.224	3587
897.345	3534
897.466	3450
897.587	3504
897.708	3629
897.828	3561
897.949	3412
898.07	3321
898.19	3420
898.311	3641
898.431	3458
898.552	3504
898.672	3614
898.792	3580
898.913	3477
899.033	3401
899.153	3332
899.273	3180
899.393	3310
899.513	3355
899.633	3302
899.753	3329
899.873	3313
899.993	3424
900.113	3317
900.232	3405
900.352	3336
900.472	3260
900.591	3218
900.711	3306
900.83	3230
900.95	3428
901.069	3507
901.189	3359
901.308	3188
901.427	3112
901.546	3161
901.665	3310
901.784	3363
901.904	3218
902.023	3123
902.141	3058
902.26	3024
902.379	3146
902.498	3108
902.617	3039
902.735	3214
902.854	3230
902.973	3207
903.091	3043
903.21	3055
903.328	3123
903.446	3123
903.565	3097
903.683	3184
903.801	3138
903.919	3272
904.038	3298
904.156	3176
904.274	3287
904.392	3260
904.51	3313
904.627	3321
904.745	3458
904.863	3515
904.981	3279
905.098	3192
905.216	3230
905.334	3287
905.451	3302
905.569	3313
905.686	3431
905.803	3439
905.921	3332
906.038	3450
906.155	3359
906.272	3279
906.389	3336
906.506	3214
906.623	3241
906.74	3272
906.857	3207
906.974	3291
907.091	3439
907.208	3557
907.324	3496
907.441	3393
907.557	3256
907.674	3233
907.79	3222
907.907	3260
908.023	3424
908.139	3355
908.256	3344
908.372	3389
908.488	3401
908.604	3283
908.72	3218
908.836	3272
908.952	3283
909.068	3348
909.184	3424
909.3	3397
909.415	3545
909.531	3481
909.647	3272
909.762	3348
909.878	3294
909.993	3370
910.108	3336
910.224	3374
910.339	3439
910.454	3302
910.57	3287
910.685	3287
910.8	3641
910.915	3519
911.03	3435
911.145	3306
911.259	3287
911.374	3321
911.489	3264
911.604	3253
911.718	3119
911.833	3142
911.947	3020
912.062	2975
912.176	3157
912.291	3230
912.405	3207
912.519	3462
912.633	3469
912.748	3310
912.862	3256
912.976	3203
913.09	3066
913.204	3154
913.318	3222
913.431	3378
913.545	3367
913.659	3409
913.772	3351
913.886	3260
914	3214
914.113	3351
914.226	3332
914.34	3374
914.453	3237
914.566	3416
914.68	3279
914.793	3340
914.906	3150
915.019	3146
915.132	3066
915.245	3207
915.358	3249
915.47	3256
915.583	3245
915.696	3298
915.809	3439
915.921	3424
916.034	3298
916.146	3245
916.259	3245
916.371	3416
916.483	3382
916.595	3283
916.708	3348
916.82	3329
916.932	3340
917.044	3298
917.156	3344
917.268	3268
917.38	3306
917.491	3291
917.603	3378
917.715	3458
917.826	3469
917.938	3393
918.049	3233
918.161	3466
918.272	3564
918.384	3564
918.495	3473
918.606	3340
918.717	3256
918.828	3367
918.939	3428
919.05	3283
919.161	3424
919.272	3188
919.383	3336
919.494	3469
919.604	3694
919.715	3545
919.826	3454
919.936	3477
920.047	3576
920.157	3534
920.267	3724
920.378	3625
920.488	3606
920.598	3781
920.708	3956
920.818	3823
920.928	3800
921.038	4071
921.148	3968
921.258	3705
921.368	3618
921.477	3584
921.587	3534
921.697	3469
921.806	3606
921.916	3530
922.025	3363
922.134	3355
922.244	3310
922.353	3447
922.462	3279
922.571	3199
922.68	3089
922.789	3047
922.898	3157
923.007	3135
923.116	3214
923.224	3199
923.333	3165
923.442	3081
923.55	3093
923.659	3165
923.767	3214
923.876	3127
923.984	3214
924.092	3077
924.201	3199
924.309	3207
924.417	3241
924.525	3199
924.633	3241
924.741	4150
924.849	3051
924.956	3245
925.064	3093
925.172	3024
925.279	3058
925.387	3233
925.494	3230
925.602	3351
925.709	3351
925.816	3184
925.924	3298
926.031	3355
926.138	3298
926.245	3367
926.352	3268
926.459	3435
926.566	3443
926.673	3332
926.779	3268
926.886	3245
926.993	3135
927.099	3135
927.206	3104
927.312	3097
927.419	3226
927.525	3169
927.631	3260
927.737	3142
927.843	3161
927.95	3005
928.056	3142
928.162	3192
928.267	3253
928.373	3781
928.479	3359
928.585	3081
928.69	3230
928.796	3260
928.901	3146
929.007	3058
929.112	3199
929.218	3146
929.323	3119
929.428	3135
929.533	3325
929.638	3116
929.743	3161
929.848	3241
929.953	3211
930.058	3165
930.163	3009
930.267	3032
930.372	3237
930.477	3043
930.581	3329
930.685	3207
930.79	3066
930.894	3146
930.998	3089
931.103	3272
931.207	2982
931.311	2952
931.415	2960
931.519	2785
931.623	2800
