Data from test_V78500241_1666.txt Node
Date: Fri Mar 25 16:26:44 CST 2022
User: usil
Spectrometer: V785-0024
Trigger mode: 0
Integration Time (sec): 4.000000E-1
Scans to average: 1
Nonlinearity correction enabled: false
Boxcar width: 0
Storing dark spectrum: false
XAxis mode: Wavelengths
Number of Pixels in Spectrum: 1024
>>>>>Begin Spectral Data<<<<<
801.071	2918
801.214	2952
801.356	2842
801.499	2899
801.641	2868
801.783	2937
801.926	3028
802.068	2941
802.211	3017
802.353	3055
802.496	2971
802.638	2994
802.78	3001
802.923	3058
803.065	2982
803.208	2883
803.35	2952
803.492	2937
803.635	2902
803.777	2750
803.919	2868
804.061	3199
804.204	2937
804.346	2887
804.488	2880
804.63	2982
804.773	2868
804.915	2918
805.057	3062
805.199	2925
805.341	2975
805.483	3047
805.626	2979
805.768	2944
805.91	3074
806.052	3070
806.194	3043
806.336	3249
806.478	3043
806.62	2933
806.762	2967
806.904	3043
807.046	3199
807.188	2963
807.33	2960
807.472	2982
807.614	2918
807.756	2990
807.898	2914
808.04	2864
808.182	2944
808.324	2956
808.465	2876
808.607	2918
808.749	2830
808.891	2864
809.033	2952
809.174	2944
809.316	2849
809.458	2861
809.6	2750
809.741	2769
809.883	2766
810.025	2849
810.166	2853
810.308	2815
810.45	2842
810.591	2773
810.733	2758
810.875	2811
811.016	2777
811.158	2777
811.299	2800
811.441	2967
811.582	2918
811.724	2849
811.865	2826
812.007	2899
812.148	2861
812.29	2845
812.431	2853
812.573	2910
812.714	2941
812.855	3036
812.997	3051
813.138	3085
813.279	3005
813.421	3005
813.562	2941
813.703	2868
813.845	2861
813.986	2773
814.127	2754
814.268	2826
814.41	2845
814.551	2826
814.692	2861
814.833	2830
814.974	2933
815.115	2952
815.256	2819
815.397	2804
815.539	2880
815.68	2781
815.821	2781
815.962	2948
816.103	2906
816.244	2883
816.385	2876
816.526	2998
816.666	2944
816.807	2735
816.948	2899
817.089	2922
817.23	2853
817.371	2739
817.512	2800
817.653	2849
817.793	2830
817.934	2883
818.075	2982
818.216	2963
818.356	3055
818.497	2876
818.638	2800
818.778	2807
818.919	2766
819.06	2762
819.2	2861
819.341	2819
819.481	2826
819.622	2941
819.762	3097
819.903	3047
820.043	2963
820.184	2902
820.324	2906
820.465	2986
820.605	3013
820.746	3005
820.886	2937
821.026	3081
821.167	3135
821.307	3241
821.447	3268
821.588	3211
821.728	3180
821.868	3195
822.008	3062
822.149	3169
822.289	3230
822.429	3093
822.569	3077
822.709	3207
822.849	3039
822.99	3077
823.13	3161
823.27	3222
823.41	3104
823.55	3119
823.69	3176
823.83	3195
823.97	3074
824.11	2994
824.25	2998
824.389	3066
824.529	3112
824.669	3077
824.809	3199
824.949	3260
825.089	3173
825.228	3165
825.368	3009
825.508	2941
825.648	2975
825.787	3013
825.927	3017
826.067	2963
826.206	2967
826.346	3024
826.485	3043
826.625	3066
826.765	3272
826.904	3214
827.044	2956
827.183	2914
827.323	2876
827.462	3024
827.601	2922
827.741	2922
827.88	3005
828.02	2857
828.159	2956
828.298	3043
828.437	3142
828.577	3058
828.716	3226
828.855	3100
828.994	2922
829.134	2876
829.273	2899
829.412	2868
829.551	2796
829.69	2861
829.829	2960
829.968	3104
830.107	3058
830.246	2998
830.385	2925
830.524	2842
830.663	2785
830.802	2758
830.941	2629
831.08	2659
831.219	2762
831.357	2758
831.496	2944
831.635	2735
831.774	2629
831.913	2583
832.051	2545
832.19	2526
832.329	2678
832.467	2514
832.606	2492
832.744	2560
832.883	2587
833.022	2606
833.16	2655
833.299	2674
833.437	2697
833.576	2708
833.714	2750
833.852	2720
833.991	2766
834.129	2807
834.267	2823
834.406	2758
834.544	2845
834.682	2914
834.821	2864
834.959	3028
835.097	2899
835.235	3077
835.373	3013
835.511	3005
835.65	2941
835.788	2944
835.926	2785
836.064	2796
836.202	2853
836.34	3039
836.478	3146
836.615	3013
836.753	3081
836.891	3169
837.029	3165
837.167	3104
837.305	3066
837.443	3062
837.58	2952
837.718	3127
837.856	3047
837.993	3024
838.131	3116
838.269	3062
838.406	3081
838.544	3062
838.681	2982
838.819	2914
838.956	2819
839.094	2826
839.231	2857
839.369	3017
839.506	3340
839.643	3211
839.781	3013
839.918	2944
840.055	3032
840.193	3017
840.33	3001
840.467	3085
840.604	3119
840.742	3367
840.879	3074
841.016	3024
841.153	3131
841.29	3325
841.427	3298
841.564	3275
841.701	3306
841.838	3176
841.975	3154
842.112	3195
842.249	3070
842.385	2998
842.522	3275
842.659	3112
842.796	3066
842.933	3089
843.069	3024
843.206	3028
843.343	3161
843.479	3055
843.616	3093
843.752	2918
843.889	2830
844.025	3100
844.162	2902
844.298	3055
844.435	2948
844.571	2937
844.708	3043
844.844	3214
844.98	3249
845.117	3203
845.253	3047
845.389	3009
845.525	3081
845.661	3116
845.798	3036
845.934	3146
846.07	3039
846.206	3188
846.342	3298
846.478	3222
846.614	3051
846.75	3043
846.886	3020
847.022	3230
847.158	3131
847.294	3188
847.429	3230
847.565	3203
847.701	3500
847.837	3051
847.972	2975
848.108	3161
848.244	3180
848.379	2998
848.515	2918
848.65	2922
848.786	2941
848.921	2990
849.057	3131
849.192	3146
849.328	3070
849.463	3123
849.598	3077
849.734	3020
849.869	2960
850.004	2872
850.14	2971
850.275	2872
850.41	2815
850.545	2880
850.68	2887
850.815	2956
850.95	2941
851.085	3207
851.22	3097
851.355	3036
851.49	2971
851.625	2990
851.76	3020
851.895	2941
852.03	2902
852.165	3028
852.299	3081
852.434	3184
852.569	3108
852.703	3195
852.838	3253
852.973	3317
853.107	3287
853.242	3146
853.376	3074
853.511	2944
853.645	3074
853.78	3203
853.914	3093
854.048	3104
854.183	3089
854.317	3173
854.451	3287
854.585	3104
854.72	3093
854.854	3211
854.988	3062
855.122	3085
855.256	2990
855.39	3093
855.524	3230
855.658	3165
855.792	3131
855.926	3161
856.06	3188
856.194	3222
856.327	3138
856.461	3089
856.595	3089
856.729	3051
856.862	3199
856.996	3154
857.13	3176
857.263	3256
857.397	3241
857.53	3112
857.664	3146
857.797	3241
857.931	3222
858.064	3157
858.197	3222
858.331	3116
858.464	3062
858.597	3009
858.731	3119
858.864	3173
858.997	3093
859.13	3142
859.263	3146
859.396	3195
859.529	3093
859.662	3077
859.795	3005
859.928	3131
860.061	3253
860.194	3283
860.327	3104
860.46	3119
860.592	3253
860.725	3260
860.858	3226
860.99	3108
861.123	3051
861.256	3047
861.388	3135
861.521	3873
861.653	3024
861.786	2990
861.918	3028
862.05	3077
862.183	3116
862.315	3146
862.447	3188
862.58	3051
862.712	2925
862.844	2883
862.976	3036
863.108	2967
863.24	3409
863.372	2857
863.504	2998
863.636	2960
863.768	2998
863.9	2956
864.032	2880
864.164	2918
864.296	3051
864.428	3085
864.559	3074
864.691	3032
864.823	3036
864.954	2998
865.086	3009
865.217	3001
865.349	2899
865.48	2975
865.612	3001
865.743	3135
865.875	2979
866.006	2944
866.137	2975
866.269	2925
866.4	2922
866.531	2902
866.662	2845
866.793	2872
866.924	2883
867.055	2986
867.186	2899
867.317	2887
867.448	2800
867.579	2830
867.71	2868
867.841	2807
867.972	2910
868.103	2887
868.233	2906
868.364	2823
868.495	2895
868.625	3070
868.756	3165
868.886	2975
869.017	3013
869.147	3165
869.278	3146
869.408	3020
869.539	3024
869.669	3058
869.799	3051
869.929	3123
870.06	3081
870.19	3298
870.32	3245
870.45	3302
870.58	3374
870.71	3420
870.84	3462
870.97	3256
871.1	3203
871.23	3469
871.36	3466
871.489	3420
871.619	3382
871.749	3428
871.879	3462
872.008	3458
872.138	3378
872.267	3279
872.397	3116
872.526	3104
872.656	2990
872.785	3085
872.915	3260
873.044	3325
873.173	3233
873.303	3253
873.432	3211
873.561	3237
873.69	3138
873.819	3161
873.948	3207
874.077	3112
874.206	3020
874.335	3077
874.464	3207
874.593	3355
874.722	3207
874.851	3386
874.979	3351
875.108	3351
875.237	3195
875.365	3180
875.494	3192
875.623	3230
875.751	3066
875.88	3097
876.008	3207
876.136	3188
876.265	3351
876.393	3538
876.521	3431
876.65	3393
876.778	3340
876.906	3253
877.034	3226
877.162	3211
877.29	3218
877.418	3260
877.546	3237
877.674	3279
877.802	3211
877.93	3237
878.058	3154
878.185	3081
878.313	3218
878.441	3230
878.568	3081
878.696	3135
878.824	3268
878.951	3325
879.079	3428
879.206	3622
879.333	3458
879.461	3325
879.588	3370
879.715	3458
879.842	3603
879.97	3332
880.097	3169
880.224	3085
880.351	3180
880.478	3222
880.605	3176
880.732	3230
880.859	3488
880.986	3313
881.112	3291
881.239	3222
881.366	3074
881.493	3051
881.619	3005
881.746	3074
881.872	3055
881.999	3085
882.125	3135
882.252	3207
882.378	3287
882.505	3401
882.631	3272
882.757	3154
882.883	3199
883.01	3203
883.136	3176
883.262	3119
883.388	3108
883.514	3325
883.64	3363
883.766	3313
883.892	3173
884.018	3253
884.143	3431
884.269	3500
884.395	3218
884.52	3138
884.646	3184
884.772	3116
884.897	3085
885.023	3218
885.148	3313
885.274	3462
885.399	3374
885.524	3283
885.65	3260
885.775	3310
885.9	3272
886.025	3431
886.15	3363
886.275	3279
886.4	3207
886.525	3317
886.65	3294
886.775	3245
886.9	3504
887.025	3629
887.149	3416
887.274	3253
887.399	3203
887.523	3199
887.648	3192
887.773	3222
887.897	3344
888.021	3374
888.146	3302
888.27	3412
888.395	3549
888.519	3443
888.643	3412
888.767	3443
888.891	3313
889.015	3256
889.139	3256
889.263	3237
889.387	3351
889.511	3515
889.635	3439
889.759	3253
889.883	3283
890.006	3382
890.13	3481
890.254	3230
890.377	3313
890.501	3188
890.624	3184
890.748	3283
890.871	3184
890.995	3097
891.118	3058
891.241	3188
891.364	3199
891.488	3275
891.611	3180
891.734	3184
891.857	3302
891.98	3214
892.103	3340
892.226	3241
892.349	3203
892.471	3070
892.594	3253
892.717	3268
892.839	3268
892.962	3298
893.085	3359
893.207	3302
893.33	3146
893.452	3199
893.575	3317
893.697	3226
893.819	3462
893.941	3469
894.064	3409
894.186	3245
894.308	3237
894.43	3405
894.552	3526
894.674	3447
894.796	3245
894.918	3313
895.04	3291
895.161	3386
895.283	3317
895.405	3283
895.526	3363
895.648	3439
895.769	3416
895.891	3458
896.012	3462
896.134	3447
896.255	3397
896.376	3389
896.498	3344
896.619	3439
896.74	3355
896.861	3439
896.982	3690
897.103	3831
897.224	3606
897.345	3504
897.466	3435
897.587	3504
897.708	3625
897.828	3580
897.949	3450
898.07	3294
898.19	3454
898.311	3561
898.431	3412
898.552	3542
898.672	3637
898.792	3595
898.913	3549
899.033	3382
899.153	3291
899.273	3211
899.393	3268
899.513	3340
899.633	3291
899.753	3325
899.873	3306
899.993	3382
900.113	3321
900.232	3378
900.352	3332
900.472	3287
900.591	3218
900.711	3329
900.83	3233
900.95	3374
901.069	3443
901.189	3367
901.308	3180
901.427	3142
901.546	3173
901.665	3264
901.784	3313
901.904	3249
902.023	3173
902.141	3024
902.26	2994
902.379	3097
902.498	3089
902.617	3047
902.735	3214
902.854	3203
902.973	3226
903.091	3055
903.21	3066
903.328	3157
903.446	3100
903.565	3089
903.683	3222
903.801	3119
903.919	3237
904.038	3294
904.156	3173
904.274	3291
904.392	3233
904.51	3272
904.627	3332
904.745	3420
904.863	3504
904.981	3237
905.098	3173
905.216	3237
905.334	3279
905.451	3317
905.569	3287
905.686	3401
905.803	3447
905.921	3332
906.038	3431
906.155	3325
906.272	3272
906.389	3321
906.506	3207
906.623	3264
906.74	3264
906.857	3203
906.974	3214
907.091	3420
907.208	3545
907.324	3435
907.441	3386
907.557	3195
907.674	3192
907.79	3207
907.907	3253
908.023	3359
908.139	3344
908.256	3294
908.372	3367
908.488	3321
908.604	3256
908.72	3237
908.836	3298
908.952	3294
909.068	3298
909.184	3443
909.3	3431
909.415	3526
909.531	3466
909.647	3283
909.762	3302
909.878	3313
909.993	3370
910.108	3370
910.224	3363
910.339	3397
910.454	3336
910.57	3294
910.685	3207
910.8	3576
910.915	3542
911.03	3431
911.145	3260
911.259	3233
911.374	3268
911.489	3237
911.604	3192
911.718	3104
911.833	3195
911.947	3036
912.062	2971
912.176	3146
912.291	3184
912.405	3176
912.519	3450
912.633	3462
912.748	3317
912.862	3302
912.976	3180
913.09	3024
913.204	3119
913.318	3207
913.431	3359
913.545	3317
913.659	3409
913.772	3287
913.886	3195
914	3211
914.113	3367
914.226	3428
914.34	3374
914.453	3222
914.566	3435
914.68	3256
914.793	3298
914.906	3131
915.019	3104
915.132	3039
915.245	3135
915.358	3214
915.47	3199
915.583	3264
915.696	3287
915.809	3412
915.921	3412
916.034	3233
916.146	3253
916.259	3214
916.371	3386
916.483	3393
916.595	3245
916.708	3344
916.82	3287
916.932	3332
917.044	3321
917.156	3302
917.268	3279
917.38	3321
917.491	3310
917.603	3340
917.715	3443
917.826	3447
917.938	3393
918.049	3218
918.161	3439
918.272	3584
918.384	3610
918.495	3477
918.606	3344
918.717	3260
918.828	3393
918.939	3416
919.05	3291
919.161	3344
919.272	3203
919.383	3253
919.494	3481
919.604	3690
919.715	3443
919.826	3420
919.936	3469
920.047	3599
920.157	3545
920.267	3751
920.378	3587
920.488	3542
920.598	3793
920.708	3991
920.818	3816
920.928	3793
921.038	4044
921.148	3972
921.258	3652
921.368	3625
921.477	3587
921.587	3534
921.697	3481
921.806	3637
921.916	3534
922.025	3374
922.134	3321
922.244	3283
922.353	3439
922.462	3279
922.571	3249
922.68	3108
922.789	3093
922.898	3097
923.007	3081
923.116	3230
923.224	3165
923.333	3195
923.442	3104
923.55	3077
923.659	3138
923.767	3214
923.876	3081
923.984	3264
924.092	3074
924.201	3138
924.309	3237
924.417	3233
924.525	3176
924.633	3211
924.741	4234
924.849	3024
924.956	3287
925.064	3077
925.172	3055
925.279	3093
925.387	3161
925.494	3203
925.602	3329
925.709	3329
925.816	3188
925.924	3279
926.031	3412
926.138	3302
926.245	3393
926.352	3249
926.459	3389
926.566	3424
926.673	3317
926.779	3211
926.886	3226
926.993	3154
927.099	3146
927.206	3097
927.312	3108
927.419	3233
927.525	3226
927.631	3249
927.737	3157
927.843	3108
927.95	3032
928.056	3104
928.162	3192
928.267	3230
928.373	3774
928.479	3298
928.585	3039
928.69	3207
928.796	3260
928.901	3173
929.007	3036
929.112	3214
929.218	3188
929.323	3135
929.428	3184
929.533	3302
929.638	3077
929.743	3142
929.848	3253
929.953	3180
930.058	3154
930.163	2998
930.267	3039
930.372	3165
930.477	3013
930.581	3302
930.685	3157
930.79	3036
930.894	3135
930.998	3055
931.103	3233
931.207	2922
931.311	2963
931.415	2956
931.519	2800
931.623	2804
