Data from test_V78500241_105.txt Node
Date: Fri Mar 25 16:15:55 CST 2022
User: usil
Spectrometer: V785-0024
Trigger mode: 0
Integration Time (sec): 4.000000E-1
Scans to average: 1
Nonlinearity correction enabled: false
Boxcar width: 0
Storing dark spectrum: false
XAxis mode: Wavelengths
Number of Pixels in Spectrum: 1024
>>>>>Begin Spectral Data<<<<<
801.071	2948
801.214	2982
801.356	2864
801.499	2933
801.641	2906
801.783	2933
801.926	3062
802.068	3013
802.211	2998
802.353	3036
802.496	3017
802.638	3051
802.78	3055
802.923	3112
803.065	3043
803.208	2944
803.35	2963
803.492	2982
803.635	2918
803.777	2766
803.919	2872
804.061	3222
804.204	3017
804.346	2902
804.488	2868
804.63	2979
804.773	2883
804.915	2967
805.057	3119
805.199	2925
805.341	3017
805.483	3077
805.626	3051
805.768	3005
805.91	3089
806.052	3138
806.194	3047
806.336	3260
806.478	3047
806.62	2990
806.762	3013
806.904	3051
807.046	3233
807.188	3032
807.33	2960
807.472	2998
807.614	2944
807.756	3005
807.898	2948
808.04	2933
808.182	3009
808.324	2990
808.465	2891
808.607	2906
808.749	2830
808.891	2845
809.033	2986
809.174	2998
809.316	2914
809.458	2902
809.6	2830
809.741	2815
809.883	2796
810.025	2887
810.166	2868
810.308	2857
810.45	2880
810.591	2781
810.733	2807
810.875	2880
811.016	2823
811.158	2781
811.299	2838
811.441	2952
811.582	2906
811.724	2861
811.865	2838
812.007	2952
812.148	2918
812.29	2868
812.431	2891
812.573	2960
812.714	3013
812.855	3089
812.997	3077
813.138	3150
813.279	3051
813.421	2986
813.562	2982
813.703	2891
813.845	2922
813.986	2823
814.127	2773
814.268	2853
814.41	2845
814.551	2842
814.692	2864
814.833	2842
814.974	2960
815.115	2990
815.256	2868
815.397	2830
815.539	2922
815.68	2800
815.821	2788
815.962	2941
816.103	2971
816.244	2910
816.385	2918
816.526	3009
816.666	2941
816.807	2777
816.948	2902
817.089	2922
817.23	2918
817.371	2785
817.512	2777
817.653	2842
817.793	2838
817.934	2925
818.075	2998
818.216	3024
818.356	3055
818.497	2918
818.638	2811
818.778	2861
818.919	2804
819.06	2727
819.2	2876
819.341	2823
819.481	2845
819.622	2982
819.762	3146
819.903	3097
820.043	2948
820.184	2902
820.324	2918
820.465	3036
820.605	3058
820.746	3020
820.886	2944
821.026	3081
821.167	3184
821.307	3325
821.447	3302
821.588	3260
821.728	3253
821.868	3237
822.008	3108
822.149	3180
822.289	3226
822.429	3112
822.569	3089
822.709	3173
822.849	3062
822.99	3089
823.13	3199
823.27	3237
823.41	3169
823.55	3165
823.69	3165
823.83	3211
823.97	3127
824.11	3043
824.25	3013
824.389	3093
824.529	3093
824.669	3074
824.809	3176
824.949	3272
825.089	3256
825.228	3150
825.368	3024
825.508	2956
825.648	2990
825.787	3005
825.927	3039
826.067	2967
826.206	3001
826.346	3051
826.485	3089
826.625	3142
826.765	3272
826.904	3222
827.044	3043
827.183	2960
827.323	2880
827.462	2998
827.601	2902
827.741	2918
827.88	2986
828.02	2868
828.159	2975
828.298	3070
828.437	3104
828.577	3077
828.716	3260
828.855	3097
828.994	2880
829.134	2872
829.273	2937
829.412	2902
829.551	2902
829.69	2933
829.829	3017
829.968	3135
830.107	3032
830.246	3055
830.385	2952
830.524	2906
830.663	2853
830.802	2750
830.941	2644
831.08	2655
831.219	2769
831.357	2796
831.496	2975
831.635	2705
831.774	2655
831.913	2670
832.051	2537
832.19	2632
832.329	2655
832.467	2571
832.606	2511
832.744	2598
832.883	2590
833.022	2594
833.16	2659
833.299	2724
833.437	2716
833.576	2693
833.714	2724
833.852	2777
833.991	2792
834.129	2849
834.267	2861
834.406	2796
834.544	2872
834.682	2902
834.821	2868
834.959	3081
835.097	2895
835.235	3100
835.373	3036
835.511	3051
835.65	3005
835.788	3024
835.926	2838
836.064	2823
836.202	2872
836.34	3089
836.478	3154
836.615	3074
836.753	3154
836.891	3222
837.029	3192
837.167	3138
837.305	3089
837.443	3089
837.58	3017
837.718	3112
837.856	3051
837.993	3058
838.131	3131
838.269	3119
838.406	3131
838.544	3119
838.681	2990
838.819	2937
838.956	2849
839.094	2845
839.231	2933
839.369	3058
839.506	3401
839.643	3218
839.781	3062
839.918	3017
840.055	3070
840.193	3119
840.33	3062
840.467	3119
840.604	3184
840.742	3447
840.879	3138
841.016	3093
841.153	3135
841.29	3359
841.427	3310
841.564	3306
841.701	3313
841.838	3241
841.975	3214
842.112	3260
842.249	3077
842.385	3077
842.522	3279
842.659	3127
842.796	3112
842.933	3135
843.069	3081
843.206	3036
843.343	3264
843.479	3176
843.616	3150
843.752	2937
843.889	2887
844.025	3116
844.162	2876
844.298	3051
844.435	2933
844.571	2944
844.708	3062
844.844	3214
844.98	3253
845.117	3256
845.253	3039
845.389	3043
845.525	3131
845.661	3093
845.798	3047
845.934	3116
846.07	3070
846.206	3233
846.342	3321
846.478	3222
846.614	3100
846.75	3089
846.886	3077
847.022	3287
847.158	3142
847.294	3214
847.429	3279
847.565	3249
847.701	3469
847.837	3058
847.972	3017
848.108	3180
848.244	3142
848.379	3013
848.515	2956
848.65	2937
848.786	2982
848.921	3024
849.057	3146
849.192	3108
849.328	3085
849.463	3116
849.598	3112
849.734	3051
849.869	2994
850.004	2948
850.14	3009
850.275	2902
850.41	2861
850.545	2918
850.68	2982
850.815	2998
850.95	2979
851.085	3207
851.22	3100
851.355	3085
851.49	3009
851.625	3005
851.76	3013
851.895	2982
852.03	2956
852.165	3047
852.299	3123
852.434	3233
852.569	3188
852.703	3230
852.838	3253
852.973	3321
853.107	3325
853.242	3154
853.376	3142
853.511	3009
853.645	3020
853.78	3283
853.914	3127
854.048	3112
854.183	3100
854.317	3180
854.451	3291
854.585	3165
854.72	3123
854.854	3203
854.988	3081
855.122	3116
855.256	3047
855.39	3150
855.524	3264
855.658	3180
855.792	3161
855.926	3207
856.06	3268
856.194	3260
856.327	3135
856.461	3116
856.595	3100
856.729	3074
856.862	3241
856.996	3180
857.13	3214
857.263	3256
857.397	3275
857.53	3173
857.664	3222
857.797	3245
857.931	3298
858.064	3192
858.197	3249
858.331	3180
858.464	3112
858.597	3043
858.731	3146
858.864	3169
858.997	3123
859.13	3165
859.263	3199
859.396	3222
859.529	3108
859.662	3135
859.795	3093
859.928	3169
860.061	3294
860.194	3298
860.327	3142
860.46	3097
860.592	3287
860.725	3298
860.858	3245
860.99	3093
861.123	3062
861.256	3093
861.388	3211
861.521	3709
861.653	3009
861.786	3005
861.918	3039
862.05	3123
862.183	3116
862.315	3176
862.447	3195
862.58	3085
862.712	2910
862.844	2899
862.976	3020
863.108	3032
863.24	3431
863.372	2891
863.504	2986
863.636	2998
863.768	3062
863.9	2990
864.032	2918
864.164	2941
864.296	3047
864.428	3097
864.559	3119
864.691	3119
864.823	3085
864.954	3024
865.086	3047
865.217	2998
865.349	2948
865.48	3001
865.612	3032
865.743	3165
865.875	2948
866.006	2956
866.137	3017
866.269	2925
866.4	2944
866.531	2971
866.662	2895
866.793	2887
866.924	2902
867.055	2960
867.186	2971
867.317	2918
867.448	2849
867.579	2891
867.71	2868
867.841	2823
867.972	2910
868.103	2929
868.233	2925
868.364	2895
868.495	2883
868.625	3100
868.756	3184
868.886	3020
869.017	3020
869.147	3184
869.278	3173
869.408	3066
869.539	3043
869.669	3169
869.799	3070
869.929	3157
870.06	3150
870.19	3378
870.32	3306
870.45	3329
870.58	3351
870.71	3458
870.84	3485
870.97	3317
871.1	3249
871.23	3477
871.36	3462
871.489	3370
871.619	3412
871.749	3428
871.879	3431
872.008	3488
872.138	3431
872.267	3302
872.397	3188
872.526	3127
872.656	3024
872.785	3112
872.915	3302
873.044	3336
873.173	3233
873.303	3256
873.432	3256
873.561	3245
873.69	3180
873.819	3154
873.948	3214
874.077	3074
874.206	3112
874.335	3127
874.464	3233
874.593	3359
874.722	3306
874.851	3435
874.979	3332
875.108	3332
875.237	3230
875.365	3207
875.494	3192
875.623	3218
875.751	3116
875.88	3104
876.008	3176
876.136	3226
876.265	3397
876.393	3542
876.521	3386
876.65	3443
876.778	3367
876.906	3302
877.034	3256
877.162	3233
877.29	3214
877.418	3294
877.546	3275
877.674	3298
877.802	3283
877.93	3256
878.058	3176
878.185	3119
878.313	3203
878.441	3207
878.568	3104
878.696	3199
878.824	3279
878.951	3336
879.079	3488
879.206	3641
879.333	3466
879.461	3370
879.588	3405
879.715	3488
879.842	3591
879.97	3389
880.097	3146
880.224	3173
880.351	3233
880.478	3264
880.605	3241
880.732	3230
880.859	3511
880.986	3306
881.112	3348
881.239	3272
881.366	3093
881.493	3104
881.619	3043
881.746	3138
881.872	3119
881.999	3127
882.125	3173
882.252	3272
882.378	3294
882.505	3477
882.631	3310
882.757	3161
882.883	3249
883.01	3260
883.136	3218
883.262	3146
883.388	3150
883.514	3344
883.64	3363
883.766	3310
883.892	3207
884.018	3283
884.143	3416
884.269	3610
884.395	3275
884.52	3180
884.646	3222
884.772	3184
884.897	3108
885.023	3237
885.148	3344
885.274	3412
885.399	3389
885.524	3294
885.65	3329
885.775	3340
885.9	3336
886.025	3447
886.15	3401
886.275	3298
886.4	3260
886.525	3279
886.65	3283
886.775	3294
886.9	3511
887.025	3690
887.149	3435
887.274	3272
887.399	3241
887.523	3195
887.648	3226
887.773	3233
887.897	3424
888.021	3431
888.146	3321
888.27	3462
888.395	3568
888.519	3458
888.643	3545
888.767	3515
888.891	3332
889.015	3233
889.139	3310
889.263	3249
889.387	3435
889.511	3564
889.635	3454
889.759	3313
889.883	3298
890.006	3454
890.13	3530
890.254	3275
890.377	3317
890.501	3264
890.624	3222
890.748	3351
890.871	3176
890.995	3119
891.118	3074
891.241	3195
891.364	3222
891.488	3363
891.611	3165
891.734	3241
891.857	3313
891.98	3283
892.103	3363
892.226	3298
892.349	3249
892.471	3135
892.594	3291
892.717	3294
892.839	3298
892.962	3317
893.085	3412
893.207	3298
893.33	3195
893.452	3241
893.575	3363
893.697	3287
893.819	3519
893.941	3504
894.064	3473
894.186	3256
894.308	3283
894.43	3485
894.552	3568
894.674	3526
894.796	3321
894.918	3317
895.04	3313
895.161	3466
895.283	3405
895.405	3325
895.526	3424
895.648	3473
895.769	3469
895.891	3466
896.012	3485
896.134	3511
896.255	3412
896.376	3367
896.498	3389
896.619	3439
896.74	3359
896.861	3378
896.982	3717
897.103	3888
897.224	3622
897.345	3545
897.466	3473
897.587	3549
897.708	3652
897.828	3568
897.949	3447
898.07	3382
898.19	3409
898.311	3637
898.431	3462
898.552	3534
898.672	3618
898.792	3599
898.913	3526
899.033	3412
899.153	3329
899.273	3218
899.393	3302
899.513	3351
899.633	3351
899.753	3363
899.873	3313
899.993	3443
900.113	3355
900.232	3447
900.352	3382
900.472	3321
900.591	3268
900.711	3340
900.83	3275
900.95	3428
901.069	3500
901.189	3443
901.308	3176
901.427	3184
901.546	3222
901.665	3317
901.784	3389
901.904	3230
902.023	3154
902.141	3036
902.26	3009
902.379	3161
902.498	3104
902.617	3055
902.735	3214
902.854	3268
902.973	3218
903.091	3047
903.21	3123
903.328	3176
903.446	3131
903.565	3123
903.683	3230
903.801	3173
903.919	3226
904.038	3287
904.156	3195
904.274	3283
904.392	3272
904.51	3344
904.627	3359
904.745	3466
904.863	3507
904.981	3272
905.098	3218
905.216	3283
905.334	3332
905.451	3344
905.569	3348
905.686	3477
905.803	3469
905.921	3313
906.038	3466
906.155	3340
906.272	3329
906.389	3317
906.506	3260
906.623	3256
906.74	3321
906.857	3245
906.974	3291
907.091	3488
907.208	3599
907.324	3504
907.441	3370
907.557	3241
907.674	3230
907.79	3260
907.907	3359
908.023	3435
908.139	3389
908.256	3336
908.372	3424
908.488	3386
908.604	3233
908.72	3241
908.836	3313
908.952	3321
909.068	3336
909.184	3496
909.3	3447
909.415	3515
909.531	3500
909.647	3283
909.762	3336
909.878	3268
909.993	3374
910.108	3393
910.224	3359
910.339	3431
910.454	3397
910.57	3313
910.685	3264
910.8	3625
910.915	3572
911.03	3477
911.145	3302
911.259	3291
911.374	3351
911.489	3317
911.604	3256
911.718	3150
911.833	3180
911.947	3051
912.062	3039
912.176	3184
912.291	3237
912.405	3245
912.519	3507
912.633	3523
912.748	3359
912.862	3332
912.976	3226
913.09	3066
913.204	3154
913.318	3264
913.431	3363
913.545	3370
913.659	3485
913.772	3348
913.886	3222
914	3260
914.113	3367
914.226	3435
914.34	3386
914.453	3253
914.566	3412
914.68	3291
914.793	3340
914.906	3176
915.019	3123
915.132	3104
915.245	3230
915.358	3241
915.47	3222
915.583	3302
915.696	3291
915.809	3374
915.921	3439
916.034	3317
916.146	3302
916.259	3291
916.371	3401
916.483	3374
916.595	3298
916.708	3363
916.82	3359
916.932	3389
917.044	3363
917.156	3424
917.268	3298
917.38	3336
917.491	3264
917.603	3405
917.715	3492
917.826	3519
917.938	3355
918.049	3287
918.161	3416
918.272	3622
918.384	3580
918.495	3511
918.606	3344
918.717	3310
918.828	3363
918.939	3485
919.05	3336
919.161	3401
919.272	3230
919.383	3287
919.494	3500
919.604	3724
919.715	3534
919.826	3485
919.936	3488
920.047	3652
920.157	3568
920.267	3770
920.378	3587
920.488	3584
920.598	3789
920.708	3922
920.818	3850
920.928	3880
921.038	4086
921.148	4025
921.258	3701
921.368	3633
921.477	3641
921.587	3572
921.697	3458
921.806	3652
921.916	3557
922.025	3344
922.134	3386
922.244	3367
922.353	3458
922.462	3279
922.571	3237
922.68	3165
922.789	3100
922.898	3154
923.007	3131
923.116	3218
923.224	3211
923.333	3184
923.442	3119
923.55	3119
923.659	3150
923.767	3226
923.876	3142
923.984	3237
924.092	3119
924.201	3188
924.309	3245
924.417	3287
924.525	3188
924.633	3241
924.741	4204
924.849	3081
924.956	3283
925.064	3127
925.172	3085
925.279	3100
925.387	3195
925.494	3211
925.602	3363
925.709	3370
925.816	3173
925.924	3306
926.031	3458
926.138	3302
926.245	3393
926.352	3275
926.459	3431
926.566	3488
926.673	3329
926.779	3260
926.886	3264
926.993	3154
927.099	3157
927.206	3112
927.312	3131
927.419	3283
927.525	3283
927.631	3313
927.737	3169
927.843	3161
927.95	3055
928.056	3165
928.162	3184
928.267	3256
928.373	3827
928.479	3329
928.585	3112
928.69	3207
928.796	3275
928.901	3188
929.007	3108
929.112	3192
929.218	3161
929.323	3157
929.428	3176
929.533	3317
929.638	3154
929.743	3184
929.848	3291
929.953	3230
930.058	3199
930.163	3066
930.267	3077
930.372	3218
930.477	3024
930.581	3370
930.685	3192
930.79	3093
930.894	3154
930.998	3157
931.103	3317
931.207	2967
931.311	2986
931.415	2933
931.519	2769
931.623	2792
