Data from test_V78500241_1632.txt Node
Date: Fri Mar 25 16:26:30 CST 2022
User: usil
Spectrometer: V785-0024
Trigger mode: 0
Integration Time (sec): 4.000000E-1
Scans to average: 1
Nonlinearity correction enabled: false
Boxcar width: 0
Storing dark spectrum: false
XAxis mode: Wavelengths
Number of Pixels in Spectrum: 1024
>>>>>Begin Spectral Data<<<<<
801.071	2933
801.214	3013
801.356	2876
801.499	2918
801.641	2918
801.783	2948
801.926	3085
802.068	3017
802.211	3032
802.353	3055
802.496	2990
802.638	3009
802.78	3074
802.923	3097
803.065	3039
803.208	2918
803.35	2914
803.492	2967
803.635	2975
803.777	2773
803.919	2922
804.061	3218
804.204	2963
804.346	2941
804.488	2876
804.63	3017
804.773	2880
804.915	2948
805.057	3108
805.199	2925
805.341	2986
805.483	3062
805.626	3028
805.768	2975
805.91	3100
806.052	3142
806.194	3039
806.336	3275
806.478	3039
806.62	2975
806.762	3013
806.904	3100
807.046	3169
807.188	2956
807.33	2956
807.472	2967
807.614	2899
807.756	3032
807.898	2956
808.04	2914
808.182	2948
808.324	2941
808.465	2880
808.607	2872
808.749	2834
808.891	2922
809.033	3036
809.174	2982
809.316	2914
809.458	2891
809.6	2777
809.741	2766
809.883	2773
810.025	2861
810.166	2864
810.308	2883
810.45	2845
810.591	2815
810.733	2804
810.875	2887
811.016	2826
811.158	2800
811.299	2853
811.441	2948
811.582	2899
811.724	2876
811.865	2838
812.007	2906
812.148	2902
812.29	2914
812.431	2899
812.573	2952
812.714	2998
812.855	3036
812.997	3089
813.138	3154
813.279	3020
813.421	2990
813.562	2979
813.703	2929
813.845	2910
813.986	2788
814.127	2735
814.268	2838
814.41	2857
814.551	2861
814.692	2910
814.833	2842
814.974	2872
815.115	2929
815.256	2872
815.397	2811
815.539	2910
815.68	2792
815.821	2830
815.962	2922
816.103	2967
816.244	2864
816.385	2838
816.526	2998
816.666	2952
816.807	2769
816.948	2941
817.089	2937
817.23	2883
817.371	2796
817.512	2815
817.653	2830
817.793	2826
817.934	2887
818.075	2982
818.216	3020
818.356	3020
818.497	2918
818.638	2796
818.778	2845
818.919	2796
819.06	2769
819.2	2941
819.341	2834
819.481	2807
819.622	2960
819.762	3157
819.903	3062
820.043	2925
820.184	2952
820.324	2941
820.465	3062
820.605	3024
820.746	3024
820.886	2887
821.026	3146
821.167	3108
821.307	3249
821.447	3287
821.588	3218
821.728	3222
821.868	3218
822.008	3100
822.149	3199
822.289	3226
822.429	3085
822.569	3062
822.709	3180
822.849	3051
822.99	3089
823.13	3184
823.27	3218
823.41	3135
823.55	3195
823.69	3157
823.83	3260
823.97	3127
824.11	2990
824.25	3043
824.389	3062
824.529	3112
824.669	3077
824.809	3195
824.949	3291
825.089	3214
825.228	3135
825.368	3024
825.508	2960
825.648	2986
825.787	3055
825.927	3032
826.067	2971
826.206	2971
826.346	3081
826.485	3070
826.625	3085
826.765	3253
826.904	3188
827.044	2998
827.183	2941
827.323	2864
827.462	3013
827.601	2910
827.741	2918
827.88	3005
828.02	2838
828.159	2994
828.298	3047
828.437	3108
828.577	3013
828.716	3256
828.855	3112
828.994	2918
829.134	2891
829.273	2910
829.412	2910
829.551	2834
829.69	2933
829.829	2948
829.968	3127
830.107	3039
830.246	3009
830.385	2910
830.524	2880
830.663	2857
830.802	2758
830.941	2663
831.08	2625
831.219	2773
831.357	2788
831.496	2982
831.635	2705
831.774	2686
831.913	2674
832.051	2560
832.19	2598
832.329	2712
832.467	2568
832.606	2488
832.744	2590
832.883	2594
833.022	2594
833.16	2625
833.299	2667
833.437	2705
833.576	2716
833.714	2716
833.852	2727
833.991	2758
834.129	2849
834.267	2849
834.406	2815
834.544	2899
834.682	2887
834.821	2887
834.959	3081
835.097	2914
835.235	3093
835.373	2971
835.511	3047
835.65	2971
835.788	2960
835.926	2845
836.064	2826
836.202	2842
836.34	3100
836.478	3150
836.615	3055
836.753	3146
836.891	3237
837.029	3188
837.167	3127
837.305	3058
837.443	3051
837.58	2918
837.718	3138
837.856	3062
837.993	3032
838.131	3123
838.269	3058
838.406	3036
838.544	3077
838.681	2910
838.819	2944
838.956	2842
839.094	2830
839.231	2872
839.369	3017
839.506	3405
839.643	3253
839.781	3013
839.918	2937
840.055	3047
840.193	3070
840.33	3077
840.467	3119
840.604	3138
840.742	3378
840.879	3028
841.016	3043
841.153	3142
841.29	3340
841.427	3325
841.564	3268
841.701	3329
841.838	3218
841.975	3165
842.112	3260
842.249	3093
842.385	3051
842.522	3249
842.659	3108
842.796	3066
842.933	3131
843.069	3062
843.206	3055
843.343	3230
843.479	3093
843.616	3127
843.752	2902
843.889	2887
844.025	3093
844.162	2857
844.298	3093
844.435	2967
844.571	2933
844.708	3066
844.844	3176
844.98	3218
845.117	3203
845.253	3089
845.389	3009
845.525	3093
845.661	3119
845.798	3005
845.934	3161
846.07	3036
846.206	3211
846.342	3306
846.478	3222
846.614	3070
846.75	3062
846.886	3013
847.022	3245
847.158	3108
847.294	3203
847.429	3241
847.565	3195
847.701	3496
847.837	3062
847.972	2982
848.108	3192
848.244	3150
848.379	2990
848.515	2960
848.65	2948
848.786	2971
848.921	3062
849.057	3119
849.192	3138
849.328	3085
849.463	3131
849.598	3100
849.734	3058
849.869	3020
850.004	2925
850.14	2963
850.275	2937
850.41	2872
850.545	2918
850.68	2914
850.815	2982
850.95	2982
851.085	3211
851.22	3097
851.355	3047
851.49	3005
851.625	3001
851.76	3024
851.895	2952
852.03	2891
852.165	3013
852.299	3108
852.434	3192
852.569	3157
852.703	3154
852.838	3222
852.973	3325
853.107	3306
853.242	3146
853.376	3108
853.511	2982
853.645	3055
853.78	3237
853.914	3169
854.048	3085
854.183	3097
854.317	3150
854.451	3283
854.585	3100
854.72	3116
854.854	3226
854.988	3051
855.122	3108
855.256	2960
855.39	3138
855.524	3264
855.658	3176
855.792	3165
855.926	3173
856.06	3237
856.194	3226
856.327	3165
856.461	3070
856.595	3032
856.729	3116
856.862	3214
856.996	3161
857.13	3207
857.263	3218
857.397	3268
857.53	3116
857.664	3222
857.797	3211
857.931	3245
858.064	3184
858.197	3203
858.331	3150
858.464	3108
858.597	3001
858.731	3119
858.864	3119
858.997	3051
859.13	3169
859.263	3127
859.396	3214
859.529	3119
859.662	3058
859.795	3062
859.928	3173
860.061	3260
860.194	3275
860.327	3154
860.46	3146
860.592	3222
860.725	3302
860.858	3260
860.99	3100
861.123	3005
861.256	3051
861.388	3157
861.521	3850
861.653	3074
861.786	2986
861.918	3028
862.05	3051
862.183	3074
862.315	3138
862.447	3199
862.58	3081
862.712	2963
862.844	2868
862.976	3055
863.108	3036
863.24	3351
863.372	2895
863.504	3009
863.636	2975
863.768	3032
863.9	2963
864.032	2933
864.164	2948
864.296	3024
864.428	3123
864.559	3104
864.691	3070
864.823	3089
864.954	3024
865.086	3047
865.217	2986
865.349	2963
865.48	2994
865.612	3036
865.743	3180
865.875	2979
866.006	2944
866.137	2960
866.269	2944
866.4	2918
866.531	2899
866.662	2933
866.793	2918
866.924	2902
867.055	2979
867.186	2933
867.317	2891
867.448	2845
867.579	2853
867.71	2830
867.841	2830
867.972	2914
868.103	2910
868.233	2880
868.364	2887
868.495	2880
868.625	3055
868.756	3150
868.886	3001
869.017	3001
869.147	3173
869.278	3161
869.408	3028
869.539	3032
869.669	3077
869.799	3039
869.929	3138
870.06	3112
870.19	3310
870.32	3268
870.45	3306
870.58	3359
870.71	3458
870.84	3443
870.97	3298
871.1	3195
871.23	3469
871.36	3428
871.489	3329
871.619	3386
871.749	3424
871.879	3416
872.008	3485
872.138	3344
872.267	3283
872.397	3161
872.526	3104
872.656	3001
872.785	3081
872.915	3226
873.044	3279
873.173	3230
873.303	3218
873.432	3245
873.561	3253
873.69	3142
873.819	3135
873.948	3211
874.077	3104
874.206	3047
874.335	3112
874.464	3226
874.593	3351
874.722	3260
874.851	3412
874.979	3336
875.108	3317
875.237	3173
875.365	3127
875.494	3104
875.623	3249
875.751	3077
875.88	3112
876.008	3207
876.136	3241
876.265	3348
876.393	3553
876.521	3431
876.65	3424
876.778	3325
876.906	3272
877.034	3218
877.162	3237
877.29	3214
877.418	3268
877.546	3222
877.674	3226
877.802	3214
877.93	3264
878.058	3150
878.185	3131
878.313	3150
878.441	3188
878.568	3055
878.696	3169
878.824	3237
878.951	3287
879.079	3443
879.206	3614
879.333	3397
879.461	3313
879.588	3355
879.715	3481
879.842	3587
879.97	3405
880.097	3154
880.224	3100
880.351	3165
880.478	3249
880.605	3192
880.732	3203
880.859	3481
880.986	3306
881.112	3321
881.239	3180
881.366	3100
881.493	3036
881.619	3009
881.746	3123
881.872	3138
881.999	3119
882.125	3154
882.252	3272
882.378	3253
882.505	3424
882.631	3336
882.757	3169
882.883	3218
883.01	3199
883.136	3165
883.262	3093
883.388	3104
883.514	3367
883.64	3363
883.766	3332
883.892	3169
884.018	3241
884.143	3420
884.269	3538
884.395	3195
884.52	3180
884.646	3154
884.772	3093
884.897	3104
885.023	3184
885.148	3359
885.274	3412
885.399	3355
885.524	3298
885.65	3310
885.775	3317
885.9	3275
886.025	3450
886.15	3363
886.275	3313
886.4	3230
886.525	3264
886.65	3256
886.775	3249
886.9	3477
887.025	3641
887.149	3405
887.274	3237
887.399	3176
887.523	3169
887.648	3199
887.773	3211
887.897	3401
888.021	3389
888.146	3313
888.27	3462
888.395	3534
888.519	3439
888.643	3439
888.767	3469
888.891	3329
889.015	3245
889.139	3272
889.263	3207
889.387	3412
889.511	3549
889.635	3424
889.759	3287
889.883	3283
890.006	3409
890.13	3507
890.254	3291
890.377	3348
890.501	3218
890.624	3138
890.748	3332
890.871	3169
890.995	3081
891.118	3066
891.241	3184
891.364	3214
891.488	3313
891.611	3195
891.734	3211
891.857	3283
891.98	3226
892.103	3344
892.226	3268
892.349	3214
892.471	3150
892.594	3249
892.717	3298
892.839	3260
892.962	3310
893.085	3382
893.207	3313
893.33	3116
893.452	3222
893.575	3336
893.697	3253
893.819	3431
893.941	3500
894.064	3412
894.186	3287
894.308	3298
894.43	3412
894.552	3530
894.674	3492
894.796	3226
894.918	3355
895.04	3291
895.161	3431
895.283	3382
895.405	3306
895.526	3363
895.648	3416
895.769	3420
895.891	3435
896.012	3469
896.134	3447
896.255	3351
896.376	3386
896.498	3336
896.619	3428
896.74	3355
896.861	3412
896.982	3682
897.103	3873
897.224	3572
897.345	3496
897.466	3488
897.587	3473
897.708	3576
897.828	3587
897.949	3450
898.07	3329
898.19	3401
898.311	3580
898.431	3454
898.552	3526
898.672	3603
898.792	3595
898.913	3511
899.033	3435
899.153	3256
899.273	3226
899.393	3279
899.513	3317
899.633	3313
899.753	3367
899.873	3306
899.993	3412
900.113	3302
900.232	3412
900.352	3340
900.472	3302
900.591	3222
900.711	3279
900.83	3203
900.95	3416
901.069	3450
901.189	3351
901.308	3150
901.427	3089
901.546	3192
901.665	3294
901.784	3321
901.904	3199
902.023	3127
902.141	3001
902.26	3013
902.379	3093
902.498	3043
902.617	3043
902.735	3195
902.854	3233
902.973	3207
903.091	3039
903.21	3077
903.328	3123
903.446	3127
903.565	3100
903.683	3184
903.801	3093
903.919	3264
904.038	3294
904.156	3176
904.274	3264
904.392	3264
904.51	3264
904.627	3340
904.745	3420
904.863	3511
904.981	3294
905.098	3138
905.216	3230
905.334	3298
905.451	3294
905.569	3351
905.686	3435
905.803	3431
905.921	3294
906.038	3439
906.155	3344
906.272	3291
906.389	3291
906.506	3253
906.623	3256
906.74	3279
906.857	3188
906.974	3249
907.091	3443
907.208	3534
907.324	3477
907.441	3409
907.557	3230
907.674	3245
907.79	3214
907.907	3287
908.023	3363
908.139	3344
908.256	3321
908.372	3382
908.488	3344
908.604	3268
908.72	3176
908.836	3302
908.952	3287
909.068	3329
909.184	3519
909.3	3378
909.415	3477
909.531	3466
909.647	3249
909.762	3268
909.878	3256
909.993	3367
910.108	3363
910.224	3317
910.339	3386
910.454	3351
910.57	3291
910.685	3214
910.8	3572
910.915	3496
911.03	3435
911.145	3272
911.259	3283
911.374	3313
911.489	3275
911.604	3256
911.718	3108
911.833	3150
911.947	3009
912.062	3024
912.176	3180
912.291	3226
912.405	3188
912.519	3435
912.633	3462
912.748	3294
912.862	3317
912.976	3173
913.09	3074
913.204	3131
913.318	3233
913.431	3344
913.545	3313
913.659	3367
913.772	3359
913.886	3199
914	3214
914.113	3348
914.226	3443
914.34	3313
914.453	3192
914.566	3409
914.68	3298
914.793	3317
914.906	3154
915.019	3112
915.132	3062
915.245	3184
915.358	3199
915.47	3249
915.583	3256
915.696	3279
915.809	3412
915.921	3428
916.034	3275
916.146	3256
916.259	3241
916.371	3340
916.483	3359
916.595	3233
916.708	3321
916.82	3359
916.932	3325
917.044	3325
917.156	3363
917.268	3237
917.38	3272
917.491	3264
917.603	3374
917.715	3462
917.826	3420
917.938	3370
918.049	3268
918.161	3412
918.272	3576
918.384	3557
918.495	3492
918.606	3321
918.717	3241
918.828	3397
918.939	3405
919.05	3291
919.161	3386
919.272	3184
919.383	3249
919.494	3458
919.604	3701
919.715	3454
919.826	3389
919.936	3469
920.047	3568
920.157	3572
920.267	3762
920.378	3584
920.488	3542
920.598	3747
920.708	3953
920.818	3816
920.928	3812
921.038	4025
921.148	3975
921.258	3701
921.368	3641
921.477	3603
921.587	3557
921.697	3485
921.806	3622
921.916	3526
922.025	3348
922.134	3336
922.244	3302
922.353	3409
922.462	3249
922.571	3176
922.68	3119
922.789	3051
922.898	3135
923.007	3100
923.116	3249
923.224	3180
923.333	3214
923.442	3093
923.55	3066
923.659	3116
923.767	3199
923.876	3070
923.984	3253
924.092	3062
924.201	3184
924.309	3195
924.417	3230
924.525	3188
924.633	3241
924.741	4204
924.849	3097
924.956	3264
925.064	3058
925.172	3036
925.279	3104
925.387	3188
925.494	3176
925.602	3389
925.709	3317
925.816	3150
925.924	3302
926.031	3370
926.138	3310
926.245	3336
926.352	3260
926.459	3393
926.566	3447
926.673	3313
926.779	3256
926.886	3222
926.993	3169
927.099	3150
927.206	3104
927.312	3100
927.419	3230
927.525	3199
927.631	3275
927.737	3116
927.843	3119
927.95	3024
928.056	3142
928.162	3142
928.267	3226
928.373	3865
928.479	3302
928.585	3051
928.69	3218
928.796	3268
928.901	3150
929.007	3036
929.112	3211
929.218	3154
929.323	3161
929.428	3131
929.533	3344
929.638	3085
929.743	3203
929.848	3253
929.953	3195
930.058	3123
930.163	3005
930.267	3062
930.372	3180
930.477	3051
930.581	3272
930.685	3214
930.79	3036
930.894	3097
930.998	3100
931.103	3268
931.207	2975
931.311	2937
931.415	2948
931.519	2788
931.623	2807
