Data from test_V78500241_1439.txt Node
Date: Fri Mar 25 16:25:10 CST 2022
User: usil
Spectrometer: V785-0024
Trigger mode: 0
Integration Time (sec): 4.000000E-1
Scans to average: 1
Nonlinearity correction enabled: false
Boxcar width: 0
Storing dark spectrum: false
XAxis mode: Wavelengths
Number of Pixels in Spectrum: 1024
>>>>>Begin Spectral Data<<<<<
801.071	2910
801.214	2933
801.356	2845
801.499	2906
801.641	2861
801.783	2956
801.926	3047
802.068	2952
802.211	2986
802.353	3051
802.496	2967
802.638	3017
802.78	3051
802.923	3070
803.065	3055
803.208	2895
803.35	2952
803.492	2925
803.635	2941
803.777	2754
803.919	2872
804.061	3214
804.204	2914
804.346	2899
804.488	2853
804.63	2971
804.773	2883
804.915	2891
805.057	3055
805.199	2929
805.341	2982
805.483	3055
805.626	2986
805.768	2960
805.91	3108
806.052	3108
806.194	3005
806.336	3241
806.478	3001
806.62	2933
806.762	2929
806.904	3058
807.046	3180
807.188	3001
807.33	2895
807.472	2967
807.614	2899
807.756	2967
807.898	2899
808.04	2914
808.182	2952
808.324	2975
808.465	2864
808.607	2902
808.749	2796
808.891	2842
809.033	2971
809.174	2967
809.316	2876
809.458	2906
809.6	2758
809.741	2754
809.883	2727
810.025	2849
810.166	2845
810.308	2853
810.45	2842
810.591	2758
810.733	2739
810.875	2853
811.016	2796
811.158	2735
811.299	2811
811.441	2937
811.582	2922
811.724	2800
811.865	2811
812.007	2910
812.148	2864
812.29	2876
812.431	2899
812.573	2929
812.714	2941
812.855	3028
812.997	3036
813.138	3108
813.279	3001
813.421	2971
813.562	2956
813.703	2826
813.845	2887
813.986	2781
814.127	2739
814.268	2823
814.41	2853
814.551	2834
814.692	2872
814.833	2819
814.974	2895
815.115	2967
815.256	2830
815.397	2800
815.539	2857
815.68	2785
815.821	2792
815.962	2925
816.103	2937
816.244	2887
816.385	2872
816.526	3001
816.666	2914
816.807	2716
816.948	2876
817.089	2880
817.23	2857
817.371	2758
817.512	2758
817.653	2819
817.793	2815
817.934	2887
818.075	2960
818.216	3013
818.356	3036
818.497	2883
818.638	2754
818.778	2830
818.919	2804
819.06	2766
819.2	2880
819.341	2826
819.481	2815
819.622	2864
819.762	3039
819.903	3032
820.043	2895
820.184	2914
820.324	2887
820.465	3001
820.605	3017
820.746	3036
820.886	2933
821.026	3112
821.167	3165
821.307	3256
821.447	3279
821.588	3230
821.728	3192
821.868	3203
822.008	3085
822.149	3173
822.289	3199
822.429	3085
822.569	3085
822.709	3142
822.849	3032
822.99	3058
823.13	3142
823.27	3173
823.41	3097
823.55	3123
823.69	3119
823.83	3192
823.97	3077
824.11	2967
824.25	3020
824.389	3070
824.529	3100
824.669	3066
824.809	3154
824.949	3260
825.089	3180
825.228	3150
825.368	2998
825.508	2929
825.648	2956
825.787	3020
825.927	3013
826.067	2941
826.206	2944
826.346	3070
826.485	3077
826.625	3100
826.765	3283
826.904	3176
827.044	2982
827.183	2883
827.323	2861
827.462	2998
827.601	2941
827.741	2902
827.88	2952
828.02	2895
828.159	2925
828.298	3017
828.437	3138
828.577	3024
828.716	3230
828.855	3089
828.994	2891
829.134	2883
829.273	2872
829.412	2880
829.551	2861
829.69	2861
829.829	2986
829.968	3116
830.107	2960
830.246	3017
830.385	2914
830.524	2861
830.663	2838
830.802	2705
830.941	2682
831.08	2667
831.219	2746
831.357	2769
831.496	2956
831.635	2697
831.774	2644
831.913	2621
832.051	2511
832.19	2571
832.329	2667
832.467	2541
832.606	2473
832.744	2552
832.883	2571
833.022	2590
833.16	2659
833.299	2674
833.437	2678
833.576	2667
833.714	2724
833.852	2708
833.991	2743
834.129	2804
834.267	2823
834.406	2788
834.544	2842
834.682	2899
834.821	2868
834.959	3085
835.097	2918
835.235	3077
835.373	2982
835.511	2982
835.65	2941
835.788	2941
835.926	2826
836.064	2800
836.202	2864
836.34	3104
836.478	3131
836.615	3055
836.753	3089
836.891	3195
837.029	3146
837.167	3112
837.305	3047
837.443	3017
837.58	2967
837.718	3123
837.856	3028
837.993	2998
838.131	3097
838.269	3123
838.406	3085
838.544	3089
838.681	2922
838.819	2906
838.956	2773
839.094	2815
839.231	2899
839.369	3028
839.506	3348
839.643	3165
839.781	3017
839.918	2960
840.055	3020
840.193	3024
840.33	3093
840.467	3047
840.604	3138
840.742	3416
840.879	3058
841.016	3047
841.153	3112
841.29	3317
841.427	3302
841.564	3272
841.701	3294
841.838	3188
841.975	3157
842.112	3195
842.249	3070
842.385	3028
842.522	3272
842.659	3112
842.796	3028
842.933	3116
843.069	3043
843.206	3032
843.343	3161
843.479	3093
843.616	3131
843.752	2876
843.889	2880
844.025	3051
844.162	2872
844.298	3074
844.435	2941
844.571	2899
844.708	3089
844.844	3157
844.98	3207
845.117	3176
845.253	3066
845.389	3024
845.525	3123
845.661	3093
845.798	3001
845.934	3028
846.07	3055
846.206	3207
846.342	3325
846.478	3253
846.614	3074
846.75	3028
846.886	3024
847.022	3256
847.158	3112
847.294	3188
847.429	3233
847.565	3199
847.701	3466
847.837	3043
847.972	2990
848.108	3184
848.244	3135
848.379	2960
848.515	2967
848.65	2914
848.786	2986
848.921	2975
849.057	3123
849.192	3127
849.328	3051
849.463	3108
849.598	3047
849.734	3017
849.869	2990
850.004	2880
850.14	2982
850.275	2899
850.41	2815
850.545	2895
850.68	2937
850.815	2960
850.95	2948
851.085	3211
851.22	3108
851.355	3013
851.49	2956
851.625	2998
851.76	3017
851.895	2887
852.03	2906
852.165	3028
852.299	3036
852.434	3173
852.569	3169
852.703	3173
852.838	3249
852.973	3355
853.107	3336
853.242	3119
853.376	3077
853.511	2941
853.645	3058
853.78	3245
853.914	3116
854.048	3070
854.183	3093
854.317	3093
854.451	3249
854.585	3123
854.72	3097
854.854	3203
854.988	3066
855.122	3123
855.256	2975
855.39	3089
855.524	3233
855.658	3157
855.792	3146
855.926	3176
856.06	3241
856.194	3256
856.327	3146
856.461	3047
856.595	3070
856.729	3104
856.862	3222
856.996	3142
857.13	3173
857.263	3237
857.397	3275
857.53	3074
857.664	3165
857.797	3256
857.931	3245
858.064	3127
858.197	3245
858.331	3135
858.464	3081
858.597	3013
858.731	3081
858.864	3093
858.997	3119
859.13	3157
859.263	3207
859.396	3233
859.529	3051
859.662	3074
859.795	2994
859.928	3100
860.061	3275
860.194	3279
860.327	3112
860.46	3058
860.592	3192
860.725	3233
860.858	3260
860.99	3119
861.123	3055
861.256	3058
861.388	3119
861.521	3861
861.653	3013
861.786	2944
861.918	2990
862.05	3036
862.183	3100
862.315	3154
862.447	3218
862.58	3081
862.712	2967
862.844	2883
862.976	3051
863.108	3028
863.24	3317
863.372	2864
863.504	2948
863.636	2948
863.768	2963
863.9	2956
864.032	2895
864.164	2933
864.296	2960
864.428	3093
864.559	3089
864.691	3070
864.823	3055
864.954	3039
865.086	3036
865.217	2971
865.349	2922
865.48	2982
865.612	3032
865.743	3142
865.875	2982
866.006	2933
866.137	2956
866.269	2937
866.4	2906
866.531	2906
866.662	2872
866.793	2887
866.924	2906
867.055	2979
867.186	2883
867.317	2826
867.448	2811
867.579	2883
867.71	2842
867.841	2823
867.972	2910
868.103	2868
868.233	2872
868.364	2842
868.495	2887
868.625	3036
868.756	3173
868.886	2967
869.017	3020
869.147	3150
869.278	3127
869.408	3036
869.539	3020
869.669	3127
869.799	3074
869.929	3116
870.06	3093
870.19	3310
870.32	3279
870.45	3291
870.58	3370
870.71	3428
870.84	3488
870.97	3298
871.1	3218
871.23	3481
871.36	3431
871.489	3321
871.619	3363
871.749	3405
871.879	3435
872.008	3477
872.138	3374
872.267	3245
872.397	3135
872.526	3070
872.656	3009
872.785	3089
872.915	3241
873.044	3291
873.173	3226
873.303	3237
873.432	3203
873.561	3249
873.69	3161
873.819	3119
873.948	3203
874.077	3146
874.206	3093
874.335	3093
874.464	3165
874.593	3351
874.722	3237
874.851	3401
874.979	3294
875.108	3294
875.237	3169
875.365	3154
875.494	3138
875.623	3226
875.751	3070
875.88	3077
876.008	3207
876.136	3218
876.265	3340
876.393	3511
876.521	3416
876.65	3389
876.778	3317
876.906	3237
877.034	3184
877.162	3253
877.29	3146
877.418	3233
877.546	3260
877.674	3256
877.802	3222
877.93	3222
878.058	3180
878.185	3112
878.313	3188
878.441	3222
878.568	3043
878.696	3169
878.824	3199
878.951	3294
879.079	3397
879.206	3584
879.333	3382
879.461	3321
879.588	3386
879.715	3496
879.842	3580
879.97	3351
880.097	3180
880.224	3123
880.351	3165
880.478	3192
880.605	3157
880.732	3199
880.859	3462
880.986	3317
881.112	3306
881.239	3207
881.366	3085
881.493	3009
881.619	3024
881.746	3097
881.872	3070
881.999	3089
882.125	3150
882.252	3249
882.378	3294
882.505	3424
882.631	3283
882.757	3119
882.883	3211
883.01	3203
883.136	3116
883.262	3074
883.388	3085
883.514	3313
883.64	3363
883.766	3313
883.892	3195
884.018	3253
884.143	3389
884.269	3526
884.395	3184
884.52	3142
884.646	3188
884.772	3116
884.897	3097
885.023	3192
885.148	3336
885.274	3428
885.399	3393
885.524	3279
885.65	3245
885.775	3329
885.9	3264
886.025	3424
886.15	3386
886.275	3336
886.4	3233
886.525	3294
886.65	3268
886.775	3260
886.9	3500
887.025	3610
887.149	3382
887.274	3192
887.399	3138
887.523	3192
887.648	3203
887.773	3161
887.897	3378
888.021	3386
888.146	3310
888.27	3435
888.395	3534
888.519	3401
888.643	3431
888.767	3439
888.891	3283
889.015	3237
889.139	3260
889.263	3233
889.387	3393
889.511	3492
889.635	3420
889.759	3245
889.883	3241
890.006	3359
890.13	3435
890.254	3260
890.377	3325
890.501	3184
890.624	3192
890.748	3306
890.871	3154
890.995	3100
891.118	3028
891.241	3184
891.364	3237
891.488	3272
891.611	3165
891.734	3188
891.857	3237
891.98	3222
892.103	3294
892.226	3237
892.349	3176
892.471	3097
892.594	3199
892.717	3237
892.839	3214
892.962	3325
893.085	3382
893.207	3264
893.33	3157
893.452	3214
893.575	3279
893.697	3226
893.819	3428
893.941	3496
894.064	3416
894.186	3241
894.308	3245
894.43	3424
894.552	3515
894.674	3473
894.796	3283
894.918	3302
895.04	3256
895.161	3447
895.283	3397
895.405	3249
895.526	3348
895.648	3439
895.769	3409
895.891	3454
896.012	3481
896.134	3412
896.255	3336
896.376	3382
896.498	3332
896.619	3447
896.74	3370
896.861	3412
896.982	3690
897.103	3857
897.224	3610
897.345	3511
897.466	3424
897.587	3519
897.708	3652
897.828	3534
897.949	3466
898.07	3359
898.19	3409
898.311	3622
898.431	3504
898.552	3564
898.672	3629
898.792	3568
898.913	3557
899.033	3450
899.153	3325
899.273	3233
899.393	3329
899.513	3367
899.633	3359
899.753	3382
899.873	3291
899.993	3367
900.113	3348
900.232	3405
900.352	3382
900.472	3310
900.591	3237
900.711	3321
900.83	3287
900.95	3439
901.069	3526
901.189	3351
901.308	3218
901.427	3192
901.546	3226
901.665	3317
901.784	3389
901.904	3253
902.023	3165
902.141	3043
902.26	3032
902.379	3169
902.498	3070
902.617	3116
902.735	3218
902.854	3253
902.973	3226
903.091	3108
903.21	3116
903.328	3188
903.446	3161
903.565	3154
903.683	3268
903.801	3138
903.919	3275
904.038	3329
904.156	3195
904.274	3291
904.392	3298
904.51	3332
904.627	3359
904.745	3477
904.863	3519
904.981	3302
905.098	3214
905.216	3279
905.334	3351
905.451	3355
905.569	3344
905.686	3428
905.803	3477
905.921	3332
906.038	3473
906.155	3389
906.272	3310
906.389	3355
906.506	3264
906.623	3275
906.74	3298
906.857	3199
906.974	3287
907.091	3473
907.208	3629
907.324	3511
907.441	3401
907.557	3253
907.674	3298
907.79	3260
907.907	3287
908.023	3439
908.139	3424
908.256	3336
908.372	3378
908.488	3374
908.604	3336
908.72	3241
908.836	3317
908.952	3313
909.068	3393
909.184	3523
909.3	3389
909.415	3515
909.531	3507
909.647	3283
909.762	3363
909.878	3294
909.993	3409
910.108	3370
910.224	3382
910.339	3492
910.454	3374
910.57	3310
910.685	3260
910.8	3622
910.915	3561
911.03	3469
911.145	3287
911.259	3291
911.374	3374
911.489	3268
911.604	3245
911.718	3161
911.833	3203
911.947	3013
912.062	3043
912.176	3226
912.291	3218
912.405	3222
912.519	3428
912.633	3511
912.748	3378
912.862	3325
912.976	3188
913.09	3100
913.204	3214
913.318	3283
913.431	3374
913.545	3336
913.659	3435
913.772	3393
913.886	3264
914	3249
914.113	3355
914.226	3443
914.34	3374
914.453	3241
914.566	3469
914.68	3291
914.793	3351
914.906	3195
915.019	3146
915.132	3138
915.245	3192
915.358	3253
915.47	3272
915.583	3321
915.696	3340
915.809	3416
915.921	3473
916.034	3245
916.146	3268
916.259	3268
916.371	3447
916.483	3397
916.595	3283
916.708	3363
916.82	3367
916.932	3321
917.044	3397
917.156	3359
917.268	3279
917.38	3294
917.491	3344
917.603	3382
917.715	3473
917.826	3492
917.938	3405
918.049	3283
918.161	3477
918.272	3580
918.384	3633
918.495	3515
918.606	3363
918.717	3340
918.828	3397
918.939	3443
919.05	3348
919.161	3409
919.272	3218
919.383	3298
919.494	3511
919.604	3728
919.715	3500
919.826	3443
919.936	3458
920.047	3637
920.157	3553
920.267	3808
920.378	3637
920.488	3564
920.598	3743
920.708	4006
920.818	3835
920.928	3869
921.038	4082
921.148	4040
921.258	3724
921.368	3667
921.477	3652
921.587	3561
921.697	3511
921.806	3675
921.916	3557
922.025	3424
922.134	3412
922.244	3355
922.353	3431
922.462	3310
922.571	3275
922.68	3192
922.789	3146
922.898	3188
923.007	3093
923.116	3249
923.224	3226
923.333	3256
923.442	3142
923.55	3169
923.659	3192
923.767	3233
923.876	3188
923.984	3256
924.092	3097
924.201	3222
924.309	3199
924.417	3272
924.525	3226
924.633	3279
924.741	4230
924.849	3074
924.956	3268
925.064	3116
925.172	3058
925.279	3108
925.387	3222
925.494	3237
925.602	3389
925.709	3393
925.816	3218
925.924	3344
926.031	3431
926.138	3332
926.245	3424
926.352	3272
926.459	3439
926.566	3515
926.673	3363
926.779	3241
926.886	3287
926.993	3184
927.099	3165
927.206	3138
927.312	3169
927.419	3264
927.525	3245
927.631	3268
927.737	3222
927.843	3157
927.95	3070
928.056	3199
928.162	3188
928.267	3272
928.373	3918
928.479	3363
928.585	3074
928.69	3237
928.796	3298
928.901	3207
929.007	3089
929.112	3233
929.218	3199
929.323	3127
929.428	3169
929.533	3317
929.638	3157
929.743	3199
929.848	3302
929.953	3237
930.058	3218
930.163	3020
930.267	3077
930.372	3214
930.477	3077
930.581	3321
930.685	3241
930.79	3097
930.894	3119
930.998	3131
931.103	3321
931.207	2971
931.311	2971
931.415	2956
931.519	2785
931.623	2823
