Data from test_V78500241_1232.txt Node
Date: Fri Mar 25 16:23:44 CST 2022
User: usil
Spectrometer: V785-0024
Trigger mode: 0
Integration Time (sec): 4.000000E-1
Scans to average: 1
Nonlinearity correction enabled: false
Boxcar width: 0
Storing dark spectrum: false
XAxis mode: Wavelengths
Number of Pixels in Spectrum: 1024
>>>>>Begin Spectral Data<<<<<
801.071	2929
801.214	2941
801.356	2883
801.499	2868
801.641	2834
801.783	2910
801.926	3028
802.068	2956
802.211	2994
802.353	3055
802.496	2906
802.638	2990
802.78	3043
802.923	3074
803.065	2986
803.208	2906
803.35	2925
803.492	2948
803.635	2925
803.777	2750
803.919	2845
804.061	3226
804.204	2922
804.346	2891
804.488	2811
804.63	2975
804.773	2883
804.915	2941
805.057	3077
805.199	2906
805.341	2979
805.483	3017
805.626	2979
805.768	2971
805.91	3104
806.052	3123
806.194	3043
806.336	3226
806.478	3032
806.62	2929
806.762	2971
806.904	3051
807.046	3135
807.188	2967
807.33	2941
807.472	2967
807.614	2902
807.756	2944
807.898	2902
808.04	2868
808.182	2998
808.324	2941
808.465	2895
808.607	2899
808.749	2781
808.891	2830
809.033	2956
809.174	2994
809.316	2868
809.458	2883
809.6	2766
809.741	2769
809.883	2769
810.025	2853
810.166	2800
810.308	2845
810.45	2853
810.591	2762
810.733	2754
810.875	2842
811.016	2762
811.158	2746
811.299	2800
811.441	2933
811.582	2914
811.724	2804
811.865	2826
812.007	2918
812.148	2830
812.29	2819
812.431	2906
812.573	2956
812.714	2952
812.855	3051
812.997	3066
813.138	3074
813.279	2979
813.421	2998
813.562	2960
813.703	2864
813.845	2899
813.986	2758
814.127	2712
814.268	2819
814.41	2853
814.551	2811
814.692	2861
814.833	2838
814.974	2861
815.115	2944
815.256	2819
815.397	2819
815.539	2857
815.68	2758
815.821	2800
815.962	2914
816.103	2910
816.244	2868
816.385	2876
816.526	2952
816.666	2887
816.807	2743
816.948	2876
817.089	2922
817.23	2861
817.371	2815
817.512	2796
817.653	2823
817.793	2853
817.934	2861
818.075	2956
818.216	2986
818.356	3013
818.497	2910
818.638	2743
818.778	2781
818.919	2819
819.06	2769
819.2	2864
819.341	2777
819.481	2785
819.622	2922
819.762	3112
819.903	3032
820.043	2918
820.184	2876
820.324	2914
820.465	3005
820.605	2998
820.746	3009
820.886	2944
821.026	3097
821.167	3123
821.307	3249
821.447	3264
821.588	3214
821.728	3161
821.868	3192
822.008	3089
822.149	3192
822.289	3169
822.429	3112
822.569	3047
822.709	3222
822.849	3032
822.99	3043
823.13	3173
823.27	3173
823.41	3108
823.55	3150
823.69	3161
823.83	3188
823.97	3093
824.11	3017
824.25	2971
824.389	3070
824.529	3066
824.669	3077
824.809	3207
824.949	3268
825.089	3226
825.228	3165
825.368	3013
825.508	2944
825.648	2952
825.787	3009
825.927	3039
826.067	2971
826.206	2937
826.346	3074
826.485	3036
826.625	3085
826.765	3249
826.904	3222
827.044	3028
827.183	2948
827.323	2880
827.462	2956
827.601	2887
827.741	2941
827.88	2963
828.02	2864
828.159	2982
828.298	2986
828.437	3081
828.577	3070
828.716	3237
828.855	3097
828.994	2887
829.134	2906
829.273	2925
829.412	2872
829.551	2815
829.69	2880
829.829	2971
829.968	3116
830.107	3001
830.246	2998
830.385	2883
830.524	2853
830.663	2804
830.802	2735
830.941	2640
831.08	2648
831.219	2766
831.357	2766
831.496	2941
831.635	2705
831.774	2613
831.913	2632
832.051	2549
832.19	2549
832.329	2659
832.467	2541
832.606	2442
832.744	2511
832.883	2560
833.022	2526
833.16	2640
833.299	2651
833.437	2689
833.576	2670
833.714	2720
833.852	2689
833.991	2746
834.129	2853
834.267	2815
834.406	2800
834.544	2902
834.682	2861
834.821	2830
834.959	3024
835.097	2906
835.235	3039
835.373	2990
835.511	3032
835.65	2941
835.788	2960
835.926	2853
836.064	2785
836.202	2861
836.34	3085
836.478	3131
836.615	3062
836.753	3138
836.891	3180
837.029	3154
837.167	3081
837.305	3028
837.443	3039
837.58	2975
837.718	3146
837.856	3047
837.993	3005
838.131	3097
838.269	3074
838.406	3089
838.544	3085
838.681	2895
838.819	2895
838.956	2807
839.094	2868
839.231	2895
839.369	3001
839.506	3374
839.643	3245
839.781	3001
839.918	2975
840.055	3017
840.193	3017
840.33	3036
840.467	3119
840.604	3138
840.742	3401
840.879	3020
841.016	3055
841.153	3074
841.29	3313
841.427	3264
841.564	3260
841.701	3283
841.838	3184
841.975	3150
842.112	3203
842.249	3093
842.385	3039
842.522	3226
842.659	3081
842.796	3055
842.933	3100
843.069	3051
843.206	3032
843.343	3184
843.479	3089
843.616	3135
843.752	2880
843.889	2872
844.025	3085
844.162	2868
844.298	3047
844.435	2922
844.571	2922
844.708	3032
844.844	3199
844.98	3199
845.117	3176
845.253	3020
845.389	3013
845.525	3077
845.661	3051
845.798	2979
845.934	3123
846.07	3028
846.206	3222
846.342	3298
846.478	3218
846.614	3093
846.75	3036
846.886	3020
847.022	3253
847.158	3116
847.294	3169
847.429	3233
847.565	3222
847.701	3466
847.837	3009
847.972	3020
848.108	3142
848.244	3085
848.379	2982
848.515	2925
848.65	2944
848.786	3005
848.921	3001
849.057	3108
849.192	3127
849.328	3066
849.463	3089
849.598	3074
849.734	2998
849.869	2994
850.004	2864
850.14	2979
850.275	2906
850.41	2823
850.545	2891
850.68	2891
850.815	2948
850.95	2952
851.085	3188
851.22	3062
851.355	3028
851.49	2975
851.625	2990
851.76	3001
851.895	2895
852.03	2902
852.165	3017
852.299	3089
852.434	3192
852.569	3131
852.703	3214
852.838	3245
852.973	3355
853.107	3325
853.242	3165
853.376	3058
853.511	2948
853.645	2998
853.78	3218
853.914	3108
854.048	3116
854.183	3055
854.317	3138
854.451	3268
854.585	3135
854.72	3066
854.854	3176
854.988	3062
855.122	3066
855.256	2979
855.39	3070
855.524	3230
855.658	3157
855.792	3135
855.926	3203
856.06	3165
856.194	3230
856.327	3146
856.461	3085
856.595	3093
856.729	3066
856.862	3157
856.996	3123
857.13	3188
857.263	3241
857.397	3260
857.53	3127
857.664	3180
857.797	3218
857.931	3218
858.064	3173
858.197	3169
858.331	3142
858.464	3062
858.597	3001
858.731	3116
858.864	3119
858.997	3085
859.13	3112
859.263	3195
859.396	3192
859.529	3093
859.662	3039
859.795	3036
859.928	3154
860.061	3275
860.194	3283
860.327	3123
860.46	3081
860.592	3157
860.725	3214
860.858	3241
860.99	3104
861.123	3028
861.256	3043
861.388	3104
861.521	3713
861.653	2986
861.786	3024
861.918	3013
862.05	3036
862.183	3116
862.315	3123
862.447	3188
862.58	3093
862.712	2952
862.844	2883
862.976	3005
863.108	3001
863.24	3268
863.372	2830
863.504	2944
863.636	2960
863.768	3028
863.9	2982
864.032	2902
864.164	2956
864.296	2952
864.428	3077
864.559	3108
864.691	3043
864.823	3093
864.954	3009
865.086	3039
865.217	3017
865.349	2914
865.48	2994
865.612	3009
865.743	3165
865.875	2979
866.006	2937
866.137	2929
866.269	2941
866.4	2929
866.531	2883
866.662	2876
866.793	2861
866.924	2895
867.055	2937
867.186	2891
867.317	2864
867.448	2872
867.579	2838
867.71	2823
867.841	2811
867.972	2906
868.103	2891
868.233	2876
868.364	2857
868.495	2883
868.625	3097
868.756	3157
868.886	2952
869.017	3013
869.147	3165
869.278	3150
869.408	3058
869.539	3005
869.669	3100
869.799	3028
869.929	3116
870.06	3074
870.19	3317
870.32	3264
870.45	3253
870.58	3363
870.71	3405
870.84	3420
870.97	3260
871.1	3245
871.23	3469
871.36	3439
871.489	3306
871.619	3409
871.749	3412
871.879	3439
872.008	3409
872.138	3374
872.267	3256
872.397	3131
872.526	3066
872.656	3009
872.785	3089
872.915	3211
873.044	3336
873.173	3188
873.303	3226
873.432	3207
873.561	3226
873.69	3165
873.819	3173
873.948	3154
874.077	3104
874.206	3039
874.335	3058
874.464	3203
874.593	3340
874.722	3230
874.851	3359
874.979	3348
875.108	3363
875.237	3195
875.365	3131
875.494	3184
875.623	3245
875.751	3085
875.88	3089
876.008	3203
876.136	3222
876.265	3378
876.393	3496
876.521	3420
876.65	3344
876.778	3310
876.906	3241
877.034	3199
877.162	3199
877.29	3192
877.418	3233
877.546	3207
877.674	3233
877.802	3253
877.93	3218
878.058	3112
878.185	3104
878.313	3203
878.441	3165
878.568	3062
878.696	3142
878.824	3249
878.951	3256
879.079	3447
879.206	3595
879.333	3397
879.461	3359
879.588	3321
879.715	3485
879.842	3591
879.97	3424
880.097	3161
880.224	3142
880.351	3180
880.478	3195
880.605	3199
880.732	3176
880.859	3458
880.986	3291
881.112	3348
881.239	3203
881.366	3077
881.493	3058
881.619	2998
881.746	3039
881.872	3112
881.999	3093
882.125	3108
882.252	3245
882.378	3256
882.505	3466
882.631	3256
882.757	3112
882.883	3211
883.01	3207
883.136	3154
883.262	3112
883.388	3104
883.514	3321
883.64	3363
883.766	3306
883.892	3188
884.018	3237
884.143	3393
884.269	3507
884.395	3161
884.52	3154
884.646	3157
884.772	3089
884.897	3077
885.023	3214
885.148	3291
885.274	3416
885.399	3340
885.524	3268
885.65	3203
885.775	3329
885.9	3291
886.025	3416
886.15	3329
886.275	3302
886.4	3233
886.525	3279
886.65	3310
886.775	3256
886.9	3500
887.025	3663
887.149	3348
887.274	3211
887.399	3165
887.523	3157
887.648	3176
887.773	3207
887.897	3389
888.021	3397
888.146	3287
888.27	3424
888.395	3488
888.519	3424
888.643	3454
888.767	3439
888.891	3275
889.015	3241
889.139	3291
889.263	3237
889.387	3382
889.511	3485
889.635	3443
889.759	3279
889.883	3302
890.006	3374
890.13	3519
890.254	3260
890.377	3329
890.501	3188
890.624	3180
890.748	3253
890.871	3180
890.995	3077
891.118	3051
891.241	3161
891.364	3207
891.488	3317
891.611	3150
891.734	3192
891.857	3241
891.98	3260
892.103	3325
892.226	3275
892.349	3203
892.471	3097
892.594	3233
892.717	3268
892.839	3253
892.962	3298
893.085	3348
893.207	3272
893.33	3150
893.452	3218
893.575	3340
893.697	3256
893.819	3469
893.941	3466
894.064	3424
894.186	3253
894.308	3272
894.43	3443
894.552	3534
894.674	3469
894.796	3268
894.918	3294
895.04	3283
895.161	3386
895.283	3401
895.405	3226
895.526	3348
895.648	3431
895.769	3401
895.891	3431
896.012	3435
896.134	3420
896.255	3378
896.376	3378
896.498	3340
896.619	3420
896.74	3378
896.861	3389
896.982	3663
897.103	3812
897.224	3603
897.345	3538
897.466	3409
897.587	3447
897.708	3622
897.828	3553
897.949	3401
898.07	3302
898.19	3435
898.311	3587
898.431	3424
898.552	3492
898.672	3595
898.792	3557
898.913	3526
899.033	3409
899.153	3275
899.273	3173
899.393	3287
899.513	3306
899.633	3294
899.753	3344
899.873	3329
899.993	3374
900.113	3344
900.232	3397
900.352	3294
900.472	3230
900.591	3184
900.711	3291
900.83	3233
900.95	3405
901.069	3473
901.189	3351
901.308	3169
901.427	3081
901.546	3188
901.665	3275
901.784	3351
901.904	3207
902.023	3135
902.141	2998
902.26	2979
902.379	3142
902.498	3055
902.617	3036
902.735	3230
902.854	3207
902.973	3180
903.091	3070
903.21	3055
903.328	3119
903.446	3112
903.565	3112
903.683	3203
903.801	3131
903.919	3203
904.038	3230
904.156	3192
904.274	3291
904.392	3237
904.51	3306
904.627	3313
904.745	3401
904.863	3477
904.981	3241
905.098	3195
905.216	3245
905.334	3287
905.451	3313
905.569	3264
905.686	3405
905.803	3443
905.921	3302
906.038	3450
906.155	3340
906.272	3241
906.389	3310
906.506	3249
906.623	3214
906.74	3298
906.857	3195
906.974	3253
907.091	3412
907.208	3561
907.324	3469
907.441	3382
907.557	3237
907.674	3222
907.79	3222
907.907	3268
908.023	3367
908.139	3397
908.256	3336
908.372	3401
908.488	3401
908.604	3222
908.72	3256
908.836	3272
908.952	3253
909.068	3374
909.184	3462
909.3	3393
909.415	3515
909.531	3428
909.647	3245
909.762	3298
909.878	3256
909.993	3348
910.108	3329
910.224	3336
910.339	3439
910.454	3336
910.57	3256
910.685	3203
910.8	3572
910.915	3530
911.03	3424
911.145	3256
911.259	3279
911.374	3287
911.489	3256
911.604	3233
911.718	3081
911.833	3123
911.947	3036
912.062	2979
912.176	3135
912.291	3199
912.405	3184
912.519	3481
912.633	3443
912.748	3325
912.862	3313
912.976	3199
913.09	3055
913.204	3112
913.318	3207
913.431	3310
913.545	3329
913.659	3443
913.772	3329
913.886	3233
914	3214
914.113	3431
914.226	3386
914.34	3386
914.453	3245
914.566	3412
914.68	3260
914.793	3329
914.906	3135
915.019	3100
915.132	3093
915.245	3157
915.358	3184
915.47	3222
915.583	3313
915.696	3272
915.809	3363
915.921	3393
916.034	3237
916.146	3275
916.259	3192
916.371	3332
916.483	3393
916.595	3249
916.708	3321
916.82	3340
916.932	3317
917.044	3348
917.156	3332
917.268	3203
917.38	3306
917.491	3291
917.603	3374
917.715	3397
917.826	3420
917.938	3351
918.049	3268
918.161	3405
918.272	3549
918.384	3538
918.495	3511
918.606	3344
918.717	3268
918.828	3393
918.939	3409
919.05	3313
919.161	3382
919.272	3173
919.383	3279
919.494	3477
919.604	3660
919.715	3511
919.826	3348
919.936	3450
920.047	3545
920.157	3561
920.267	3770
920.378	3606
920.488	3561
920.598	3812
920.708	3930
920.818	3808
920.928	3823
921.038	3983
921.148	3960
921.258	3732
921.368	3633
921.477	3584
921.587	3534
921.697	3439
921.806	3603
921.916	3515
922.025	3355
922.134	3370
922.244	3313
922.353	3386
922.462	3256
922.571	3241
922.68	3085
922.789	3074
922.898	3123
923.007	3108
923.116	3211
923.224	3135
923.333	3176
923.442	3077
923.55	3070
923.659	3135
923.767	3207
923.876	3119
923.984	3218
924.092	3112
924.201	3173
924.309	3184
924.417	3241
924.525	3192
924.633	3230
924.741	4029
924.849	3058
924.956	3283
925.064	3104
925.172	3062
925.279	3093
925.387	3192
925.494	3218
925.602	3336
925.709	3298
925.816	3211
925.924	3256
926.031	3389
926.138	3317
926.245	3329
926.352	3211
926.459	3393
926.566	3485
926.673	3306
926.779	3241
926.886	3192
926.993	3127
927.099	3116
927.206	3119
927.312	3123
927.419	3214
927.525	3211
927.631	3279
927.737	3135
927.843	3081
927.95	3043
928.056	3097
928.162	3173
928.267	3272
928.373	3854
928.479	3313
928.585	3058
928.69	3199
928.796	3241
928.901	3184
929.007	3039
929.112	3195
929.218	3192
929.323	3135
929.428	3142
929.533	3302
929.638	3097
929.743	3188
929.848	3264
929.953	3199
930.058	3119
930.163	2979
930.267	2998
930.372	3203
930.477	3036
930.581	3340
930.685	3180
930.79	3074
930.894	3112
930.998	3089
931.103	3245
931.207	2956
931.311	2922
931.415	2937
931.519	2758
931.623	2781
