Data from test_V78500241_1234.txt Node
Date: Fri Mar 25 16:23:45 CST 2022
User: usil
Spectrometer: V785-0024
Trigger mode: 0
Integration Time (sec): 4.000000E-1
Scans to average: 1
Nonlinearity correction enabled: false
Boxcar width: 0
Storing dark spectrum: false
XAxis mode: Wavelengths
Number of Pixels in Spectrum: 1024
>>>>>Begin Spectral Data<<<<<
801.071	2925
801.214	2952
801.356	2861
801.499	2922
801.641	2872
801.783	2914
801.926	3039
802.068	2975
802.211	3020
802.353	3062
802.496	2937
802.638	3032
802.78	3017
802.923	3108
803.065	2990
803.208	2876
803.35	2918
803.492	2941
803.635	2918
803.777	2769
803.919	2880
804.061	3214
804.204	2944
804.346	2902
804.488	2796
804.63	2979
804.773	2861
804.915	2933
805.057	3138
805.199	2914
805.341	2979
805.483	3043
805.626	3043
805.768	2998
805.91	3097
806.052	3131
806.194	3013
806.336	3237
806.478	3017
806.62	2956
806.762	2952
806.904	3028
807.046	3188
807.188	3024
807.33	2906
807.472	2960
807.614	2910
807.756	3020
807.898	2906
808.04	2895
808.182	2990
808.324	2956
808.465	2883
808.607	2838
808.749	2815
808.891	2880
809.033	2982
809.174	3028
809.316	2883
809.458	2887
809.6	2758
809.741	2766
809.883	2819
810.025	2853
810.166	2861
810.308	2880
810.45	2849
810.591	2762
810.733	2785
810.875	2807
811.016	2777
811.158	2750
811.299	2807
811.441	2914
811.582	2902
811.724	2826
811.865	2880
812.007	2910
812.148	2853
812.29	2887
812.431	2887
812.573	2960
812.714	2975
812.855	3005
812.997	3032
813.138	3119
813.279	2986
813.421	3013
813.562	2925
813.703	2876
813.845	2944
813.986	2785
814.127	2739
814.268	2834
814.41	2819
814.551	2796
814.692	2849
814.833	2819
814.974	2914
815.115	2956
815.256	2819
815.397	2815
815.539	2857
815.68	2811
815.821	2796
815.962	2963
816.103	2971
816.244	2891
816.385	2804
816.526	2929
816.666	2925
816.807	2724
816.948	2868
817.089	2883
817.23	2876
817.371	2766
817.512	2785
817.653	2830
817.793	2826
817.934	2910
818.075	2956
818.216	2990
818.356	3039
818.497	2868
818.638	2781
818.778	2842
818.919	2815
819.06	2766
819.2	2887
819.341	2807
819.481	2807
819.622	2929
819.762	3131
819.903	3020
820.043	2956
820.184	2902
820.324	2914
820.465	3028
820.605	3024
820.746	3028
820.886	2929
821.026	3112
821.167	3157
821.307	3256
821.447	3268
821.588	3230
821.728	3222
821.868	3195
822.008	3104
822.149	3195
822.289	3230
822.429	3077
822.569	3055
822.709	3142
822.849	3051
822.99	3058
823.13	3180
823.27	3203
823.41	3116
823.55	3157
823.69	3123
823.83	3192
823.97	3081
824.11	2963
824.25	2986
824.389	3085
824.529	3119
824.669	3039
824.809	3192
824.949	3264
825.089	3260
825.228	3146
825.368	2994
825.508	2963
825.648	2975
825.787	3020
825.927	3017
826.067	2982
826.206	2994
826.346	3039
826.485	3081
826.625	3127
826.765	3279
826.904	3211
827.044	2975
827.183	2944
827.323	2845
827.462	2971
827.601	2883
827.741	2937
827.88	2963
828.02	2830
828.159	2986
828.298	2994
828.437	3116
828.577	3036
828.716	3176
828.855	3093
828.994	2922
829.134	2899
829.273	2948
829.412	2906
829.551	2861
829.69	2876
829.829	2998
829.968	3108
830.107	3005
830.246	3017
830.385	2872
830.524	2895
830.663	2807
830.802	2701
830.941	2651
831.08	2644
831.219	2762
831.357	2773
831.496	2952
831.635	2686
831.774	2663
831.913	2670
832.051	2545
832.19	2594
832.329	2655
832.467	2549
832.606	2480
832.744	2568
832.883	2545
833.022	2594
833.16	2625
833.299	2655
833.437	2682
833.576	2693
833.714	2724
833.852	2724
833.991	2750
834.129	2864
834.267	2781
834.406	2792
834.544	2857
834.682	2887
834.821	2853
834.959	3070
835.097	2902
835.235	3028
835.373	2975
835.511	3020
835.65	2956
835.788	2937
835.926	2849
836.064	2830
836.202	2819
836.34	3100
836.478	3161
836.615	3020
836.753	3157
836.891	3214
837.029	3135
837.167	3100
837.305	3047
837.443	3032
837.58	2948
837.718	3142
837.856	3009
837.993	3055
838.131	3089
838.269	3131
838.406	3108
838.544	3085
838.681	2895
838.819	2902
838.956	2815
839.094	2807
839.231	2883
839.369	3005
839.506	3378
839.643	3203
839.781	2998
839.918	2982
840.055	3081
840.193	3032
840.33	3062
840.467	3097
840.604	3142
840.742	3374
840.879	3066
841.016	3036
841.153	3108
841.29	3363
841.427	3249
841.564	3272
841.701	3275
841.838	3218
841.975	3157
842.112	3188
842.249	3085
842.385	3032
842.522	3279
842.659	3062
842.796	3089
842.933	3100
843.069	3024
843.206	3043
843.343	3173
843.479	3104
843.616	3097
843.752	2891
843.889	2826
844.025	3070
844.162	2880
844.298	3047
844.435	2941
844.571	2902
844.708	3066
844.844	3180
844.98	3241
845.117	3161
845.253	3066
845.389	3013
845.525	3100
845.661	3100
845.798	2998
845.934	3165
846.07	3020
846.206	3180
846.342	3272
846.478	3214
846.614	3047
846.75	3039
846.886	3032
847.022	3222
847.158	3157
847.294	3192
847.429	3226
847.565	3176
847.701	3435
847.837	3028
847.972	2963
848.108	3188
848.244	3131
848.379	3005
848.515	2941
848.65	2963
848.786	2922
848.921	2982
849.057	3085
849.192	3138
849.328	3043
849.463	3112
849.598	3036
849.734	3017
849.869	2967
850.004	2933
850.14	2956
850.275	2918
850.41	2830
850.545	2880
850.68	2861
850.815	2960
850.95	2967
851.085	3184
851.22	3097
851.355	3017
851.49	2956
851.625	2975
851.76	2975
851.895	2914
852.03	2883
852.165	2994
852.299	3089
852.434	3154
852.569	3142
852.703	3165
852.838	3253
852.973	3363
853.107	3321
853.242	3142
853.376	3097
853.511	2944
853.645	3017
853.78	3226
853.914	3119
854.048	3100
854.183	3066
854.317	3116
854.451	3272
854.585	3131
854.72	3093
854.854	3173
854.988	3039
855.122	3077
855.256	2975
855.39	3127
855.524	3241
855.658	3165
855.792	3146
855.926	3161
856.06	3192
856.194	3268
856.327	3123
856.461	3104
856.595	3062
856.729	3081
856.862	3184
856.996	3142
857.13	3184
857.263	3230
857.397	3226
857.53	3127
857.664	3192
857.797	3264
857.931	3253
858.064	3150
858.197	3188
858.331	3108
858.464	3108
858.597	3017
858.731	3093
858.864	3116
858.997	3058
859.13	3135
859.263	3169
859.396	3173
859.529	3066
859.662	3081
859.795	3077
859.928	3100
860.061	3245
860.194	3321
860.327	3138
860.46	3077
860.592	3253
860.725	3226
860.858	3226
860.99	3093
861.123	3058
861.256	3074
861.388	3127
861.521	3694
861.653	3017
861.786	2971
861.918	2998
862.05	3043
862.183	3150
862.315	3154
862.447	3188
862.58	3089
862.712	2941
862.844	2899
862.976	2986
863.108	3013
863.24	3329
863.372	2876
863.504	2960
863.636	2967
863.768	3013
863.9	2960
864.032	2925
864.164	2944
864.296	3001
864.428	3089
864.559	3108
864.691	3081
864.823	3032
864.954	3005
865.086	3032
865.217	2971
865.349	2967
865.48	2948
865.612	2994
865.743	3116
865.875	2975
866.006	2944
866.137	2960
866.269	2941
866.4	2910
866.531	2880
866.662	2918
866.793	2876
866.924	2922
867.055	2982
867.186	2914
867.317	2891
867.448	2838
867.579	2853
867.71	2853
867.841	2830
867.972	2906
868.103	2887
868.233	2902
868.364	2861
868.495	2887
868.625	3093
868.756	3146
868.886	2967
869.017	3001
869.147	3165
869.278	3135
869.408	3043
869.539	3020
869.669	3104
869.799	3043
869.929	3104
870.06	3123
870.19	3294
870.32	3302
870.45	3287
870.58	3351
870.71	3447
870.84	3435
870.97	3302
871.1	3218
871.23	3469
871.36	3462
871.489	3355
871.619	3367
871.749	3374
871.879	3454
872.008	3481
872.138	3329
872.267	3260
872.397	3123
872.526	3085
872.656	2975
872.785	3074
872.915	3233
873.044	3310
873.173	3211
873.303	3264
873.432	3230
873.561	3230
873.69	3131
873.819	3135
873.948	3161
874.077	3108
874.206	3009
874.335	3036
874.464	3207
874.593	3310
874.722	3207
874.851	3405
874.979	3325
875.108	3302
875.237	3180
875.365	3154
875.494	3146
875.623	3199
875.751	3089
875.88	3112
876.008	3211
876.136	3237
876.265	3355
876.393	3496
876.521	3416
876.65	3367
876.778	3302
876.906	3230
877.034	3180
877.162	3199
877.29	3161
877.418	3214
877.546	3237
877.674	3256
877.802	3268
877.93	3195
878.058	3142
878.185	3085
878.313	3222
878.441	3188
878.568	3028
878.696	3165
878.824	3226
878.951	3313
879.079	3439
879.206	3618
879.333	3420
879.461	3317
879.588	3351
879.715	3485
879.842	3625
879.97	3325
880.097	3157
880.224	3123
880.351	3207
880.478	3233
880.605	3173
880.732	3161
880.859	3492
880.986	3291
881.112	3348
881.239	3184
881.366	3085
881.493	3009
881.619	2986
881.746	3066
881.872	3074
881.999	3100
882.125	3161
882.252	3245
882.378	3268
882.505	3428
882.631	3233
882.757	3127
882.883	3176
883.01	3207
883.136	3157
883.262	3116
883.388	3127
883.514	3336
883.64	3367
883.766	3283
883.892	3184
884.018	3264
884.143	3431
884.269	3557
884.395	3188
884.52	3176
884.646	3169
884.772	3154
884.897	3070
885.023	3214
885.148	3329
885.274	3431
885.399	3298
885.524	3264
885.65	3268
885.775	3298
885.9	3272
886.025	3439
886.15	3348
886.275	3298
886.4	3241
886.525	3340
886.65	3268
886.775	3302
886.9	3485
887.025	3648
887.149	3389
887.274	3264
887.399	3165
887.523	3226
887.648	3173
887.773	3180
887.897	3363
888.021	3397
888.146	3291
888.27	3386
888.395	3492
888.519	3397
888.643	3473
888.767	3454
888.891	3317
889.015	3222
889.139	3291
889.263	3245
889.387	3405
889.511	3496
889.635	3466
889.759	3321
889.883	3298
890.006	3348
890.13	3492
890.254	3237
890.377	3348
890.501	3203
890.624	3203
890.748	3294
890.871	3184
890.995	3112
891.118	3066
891.241	3176
891.364	3192
891.488	3344
891.611	3157
891.734	3241
891.857	3283
891.98	3222
892.103	3298
892.226	3279
892.349	3195
892.471	3119
892.594	3218
892.717	3310
892.839	3253
892.962	3283
893.085	3374
893.207	3275
893.33	3188
893.452	3195
893.575	3351
893.697	3233
893.819	3473
893.941	3519
894.064	3458
894.186	3199
894.308	3291
894.43	3428
894.552	3553
894.674	3462
894.796	3256
894.918	3313
895.04	3291
895.161	3424
895.283	3359
895.405	3298
895.526	3340
895.648	3409
895.769	3389
895.891	3458
896.012	3458
896.134	3466
896.255	3409
896.376	3389
896.498	3363
896.619	3439
896.74	3355
896.861	3367
896.982	3660
897.103	3842
897.224	3587
897.345	3488
897.466	3424
897.587	3477
897.708	3610
897.828	3587
897.949	3416
898.07	3306
898.19	3397
898.311	3576
898.431	3439
898.552	3515
898.672	3561
898.792	3561
898.913	3519
899.033	3382
899.153	3279
899.273	3226
899.393	3294
899.513	3272
899.633	3317
899.753	3348
899.873	3294
899.993	3363
900.113	3344
900.232	3374
900.352	3332
900.472	3313
900.591	3188
900.711	3302
900.83	3226
900.95	3382
901.069	3473
901.189	3344
901.308	3203
901.427	3112
901.546	3154
901.665	3260
901.784	3321
901.904	3184
902.023	3123
902.141	2975
902.26	3020
902.379	3138
902.498	3108
902.617	3066
902.735	3203
902.854	3211
902.973	3173
903.091	3032
903.21	3051
903.328	3123
903.446	3112
903.565	3089
903.683	3195
903.801	3146
903.919	3249
904.038	3241
904.156	3154
904.274	3313
904.392	3264
904.51	3287
904.627	3310
904.745	3435
904.863	3477
904.981	3256
905.098	3184
905.216	3214
905.334	3294
905.451	3310
905.569	3279
905.686	3431
905.803	3435
905.921	3260
906.038	3424
906.155	3313
906.272	3222
906.389	3325
906.506	3226
906.623	3256
906.74	3279
906.857	3180
906.974	3256
907.091	3447
907.208	3549
907.324	3488
907.441	3351
907.557	3192
907.674	3226
907.79	3222
907.907	3272
908.023	3386
908.139	3420
908.256	3332
908.372	3351
908.488	3332
908.604	3275
908.72	3214
908.836	3249
908.952	3302
909.068	3336
909.184	3466
909.3	3363
909.415	3488
909.531	3435
909.647	3230
909.762	3329
909.878	3268
909.993	3359
910.108	3359
910.224	3340
910.339	3401
910.454	3329
910.57	3291
910.685	3256
910.8	3572
910.915	3545
911.03	3420
911.145	3275
911.259	3272
911.374	3272
911.489	3230
911.604	3207
911.718	3108
911.833	3154
911.947	3028
912.062	2986
912.176	3123
912.291	3161
912.405	3199
912.519	3397
912.633	3496
912.748	3329
912.862	3279
912.976	3180
913.09	3066
913.204	3127
913.318	3245
913.431	3348
913.545	3313
913.659	3386
913.772	3310
913.886	3195
914	3188
914.113	3329
914.226	3412
914.34	3389
914.453	3195
914.566	3409
914.68	3294
914.793	3279
914.906	3119
915.019	3138
915.132	3081
915.245	3131
915.358	3222
915.47	3230
915.583	3283
915.696	3298
915.809	3393
915.921	3447
916.034	3222
916.146	3268
916.259	3230
916.371	3370
916.483	3397
916.595	3241
916.708	3344
916.82	3317
916.932	3355
917.044	3332
917.156	3325
917.268	3241
917.38	3279
917.491	3260
917.603	3325
917.715	3454
917.826	3462
917.938	3374
918.049	3344
918.161	3386
918.272	3591
918.384	3580
918.495	3462
918.606	3348
918.717	3230
918.828	3382
918.939	3428
919.05	3279
919.161	3359
919.272	3173
919.383	3264
919.494	3507
919.604	3686
919.715	3496
919.826	3382
919.936	3447
920.047	3587
920.157	3553
920.267	3747
920.378	3629
920.488	3595
920.598	3781
920.708	3972
920.818	3827
920.928	3861
921.038	4025
921.148	3968
921.258	3701
921.368	3618
921.477	3568
921.587	3572
921.697	3477
921.806	3671
921.916	3530
922.025	3355
922.134	3351
922.244	3310
922.353	3405
922.462	3268
922.571	3214
922.68	3119
922.789	3077
922.898	3161
923.007	3089
923.116	3203
923.224	3146
923.333	3180
923.442	3112
923.55	3100
923.659	3184
923.767	3222
923.876	3089
923.984	3176
924.092	3108
924.201	3203
924.309	3226
924.417	3218
924.525	3203
924.633	3199
924.741	4021
924.849	3051
924.956	3302
925.064	3112
925.172	3051
925.279	3074
925.387	3222
925.494	3241
925.602	3363
925.709	3332
925.816	3180
925.924	3260
926.031	3374
926.138	3363
926.245	3332
926.352	3226
926.459	3401
926.566	3431
926.673	3340
926.779	3245
926.886	3226
926.993	3150
927.099	3100
927.206	3097
927.312	3131
927.419	3230
927.525	3184
927.631	3306
927.737	3131
927.843	3116
927.95	3039
928.056	3119
928.162	3195
928.267	3233
928.373	3850
928.479	3332
928.585	3032
928.69	3199
928.796	3264
928.901	3180
929.007	3039
929.112	3180
929.218	3192
929.323	3146
929.428	3161
929.533	3306
929.638	3104
929.743	3142
929.848	3294
929.953	3211
930.058	3108
930.163	2994
930.267	3051
930.372	3218
930.477	2982
930.581	3275
930.685	3173
930.79	3032
930.894	3108
930.998	3112
931.103	3283
931.207	2956
931.311	2918
931.415	2906
931.519	2743
931.623	2815
