Data from test_V78500241_1228.txt Node
Date: Fri Mar 25 16:23:42 CST 2022
User: usil
Spectrometer: V785-0024
Trigger mode: 0
Integration Time (sec): 4.000000E-1
Scans to average: 1
Nonlinearity correction enabled: false
Boxcar width: 0
Storing dark spectrum: false
XAxis mode: Wavelengths
Number of Pixels in Spectrum: 1024
>>>>>Begin Spectral Data<<<<<
801.071	2960
801.214	2975
801.356	2925
801.499	2914
801.641	2899
801.783	2929
801.926	3062
802.068	3028
802.211	3051
802.353	3089
802.496	2998
802.638	3047
802.78	3081
802.923	3104
803.065	3043
803.208	2883
803.35	2933
803.492	2998
803.635	2956
803.777	2788
803.919	2872
804.061	3218
804.204	2967
804.346	2960
804.488	2853
804.63	3009
804.773	2899
804.915	2937
805.057	3112
805.199	2956
805.341	3001
805.483	3077
805.626	3055
805.768	2971
805.91	3131
806.052	3146
806.194	3077
806.336	3237
806.478	3066
806.62	2979
806.762	2971
806.904	3104
807.046	3138
807.188	3028
807.33	2937
807.472	3001
807.614	2906
807.756	3020
807.898	2929
808.04	2899
808.182	3001
808.324	2967
808.465	2914
808.607	2899
808.749	2823
808.891	2864
809.033	2979
809.174	2998
809.316	2910
809.458	2914
809.6	2796
809.741	2796
809.883	2792
810.025	2857
810.166	2861
810.308	2861
810.45	2876
810.591	2826
810.733	2792
810.875	2834
811.016	2773
811.158	2792
811.299	2834
811.441	2902
811.582	2880
811.724	2845
811.865	2861
812.007	2902
812.148	2899
812.29	2872
812.431	2918
812.573	2967
812.714	2975
812.855	3074
812.997	3055
813.138	3135
813.279	3024
813.421	2990
813.562	2998
813.703	2891
813.845	2941
813.986	2800
814.127	2773
814.268	2834
814.41	2857
814.551	2861
814.692	2902
814.833	2842
814.974	2925
815.115	2979
815.256	2864
815.397	2830
815.539	2891
815.68	2781
815.821	2830
815.962	2967
816.103	2956
816.244	2899
816.385	2918
816.526	2952
816.666	2910
816.807	2796
816.948	2933
817.089	2960
817.23	2899
817.371	2830
817.512	2826
817.653	2891
817.793	2845
817.934	2929
818.075	2982
818.216	3005
818.356	3058
818.497	2883
818.638	2804
818.778	2876
818.919	2826
819.06	2773
819.2	2902
819.341	2845
819.481	2842
819.622	2925
819.762	3085
819.903	3051
820.043	2933
820.184	2929
820.324	2922
820.465	3043
820.605	3020
820.746	3055
820.886	2956
821.026	3127
821.167	3173
821.307	3260
821.447	3279
821.588	3294
821.728	3226
821.868	3188
822.008	3085
822.149	3233
822.289	3256
822.429	3119
822.569	3097
822.709	3173
822.849	3062
822.99	3058
823.13	3180
823.27	3214
823.41	3112
823.55	3207
823.69	3180
823.83	3203
823.97	3085
824.11	3032
824.25	2975
824.389	3112
824.529	3123
824.669	3062
824.809	3233
824.949	3264
825.089	3249
825.228	3180
825.368	3032
825.508	2971
825.648	2990
825.787	3028
825.927	3070
826.067	2994
826.206	2986
826.346	3062
826.485	3077
826.625	3119
826.765	3260
826.904	3249
827.044	3024
827.183	2963
827.323	2880
827.462	3024
827.601	2948
827.741	2941
827.88	3036
828.02	2864
828.159	2994
828.298	3062
828.437	3146
828.577	3085
828.716	3253
828.855	3112
828.994	2948
829.134	2887
829.273	2887
829.412	2868
829.551	2864
829.69	2937
829.829	3039
829.968	3154
830.107	3013
830.246	3051
830.385	2918
830.524	2883
830.663	2849
830.802	2766
830.941	2678
831.08	2670
831.219	2781
831.357	2781
831.496	2986
831.635	2785
831.774	2674
831.913	2693
832.051	2575
832.19	2568
832.329	2697
832.467	2537
832.606	2488
832.744	2602
832.883	2598
833.022	2617
833.16	2705
833.299	2689
833.437	2716
833.576	2724
833.714	2731
833.852	2754
833.991	2746
834.129	2864
834.267	2815
834.406	2792
834.544	2914
834.682	2899
834.821	2891
834.959	3074
835.097	2910
835.235	3062
835.373	3009
835.511	3036
835.65	2979
835.788	2975
835.926	2842
836.064	2823
836.202	2830
836.34	3142
836.478	3188
836.615	3070
836.753	3135
836.891	3249
837.029	3161
837.167	3142
837.305	3085
837.443	3058
837.58	2960
837.718	3157
837.856	3066
837.993	3005
838.131	3112
838.269	3131
838.406	3093
838.544	3127
838.681	2933
838.819	2952
838.956	2815
839.094	2876
839.231	2960
839.369	3001
839.506	3389
839.643	3245
839.781	3032
839.918	2994
840.055	3104
840.193	3085
840.33	3108
840.467	3097
840.604	3146
840.742	3416
840.879	3066
841.016	3058
841.153	3135
841.29	3348
841.427	3294
841.564	3294
841.701	3336
841.838	3211
841.975	3165
842.112	3218
842.249	3112
842.385	3058
842.522	3245
842.659	3112
842.796	3058
842.933	3116
843.069	3066
843.206	3028
843.343	3173
843.479	3100
843.616	3116
843.752	2887
843.889	2891
844.025	3070
844.162	2922
844.298	3055
844.435	2948
844.571	2960
844.708	3089
844.844	3184
844.98	3226
845.117	3195
845.253	3066
845.389	2998
845.525	3138
845.661	3100
845.798	3032
845.934	3169
846.07	3036
846.206	3199
846.342	3363
846.478	3207
846.614	3081
846.75	3077
846.886	3077
847.022	3272
847.158	3112
847.294	3207
847.429	3237
847.565	3249
847.701	3485
847.837	3055
847.972	3013
848.108	3157
848.244	3184
848.379	2990
848.515	2937
848.65	2910
848.786	2990
848.921	3024
849.057	3138
849.192	3138
849.328	3062
849.463	3093
849.598	3108
849.734	3036
849.869	2971
850.004	2906
850.14	2960
850.275	2948
850.41	2842
850.545	2895
850.68	2937
850.815	2986
850.95	2960
851.085	3214
851.22	3085
851.355	3055
851.49	2975
851.625	3017
851.76	3047
851.895	2941
852.03	2937
852.165	3062
852.299	3161
852.434	3184
852.569	3173
852.703	3157
852.838	3249
852.973	3321
853.107	3313
853.242	3180
853.376	3085
853.511	2971
853.645	3074
853.78	3207
853.914	3127
854.048	3119
854.183	3097
854.317	3154
854.451	3359
854.585	3108
854.72	3112
854.854	3268
854.988	3058
855.122	3093
855.256	3017
855.39	3104
855.524	3233
855.658	3184
855.792	3135
855.926	3195
856.06	3230
856.194	3275
856.327	3138
856.461	3062
856.595	3089
856.729	3097
856.862	3237
856.996	3184
857.13	3245
857.263	3226
857.397	3275
857.53	3135
857.664	3203
857.797	3241
857.931	3253
858.064	3176
858.197	3218
858.331	3131
858.464	3093
858.597	3020
858.731	3104
858.864	3138
858.997	3093
859.13	3192
859.263	3180
859.396	3195
859.529	3100
859.662	3051
859.795	3074
859.928	3135
860.061	3264
860.194	3272
860.327	3131
860.46	3104
860.592	3226
860.725	3256
860.858	3249
860.99	3112
861.123	3047
861.256	3089
861.388	3150
861.521	3755
861.653	3009
861.786	2975
861.918	2979
862.05	3070
862.183	3081
862.315	3161
862.447	3226
862.58	3074
862.712	2918
862.844	2857
862.976	3058
863.108	3005
863.24	3310
863.372	2880
863.504	2998
863.636	2982
863.768	3055
863.9	2986
864.032	2876
864.164	2944
864.296	3020
864.428	3100
864.559	3058
864.691	3062
864.823	3020
864.954	3058
865.086	3032
865.217	2998
865.349	2963
865.48	2994
865.612	3001
865.743	3188
865.875	2956
866.006	2925
866.137	2990
866.269	2944
866.4	2933
866.531	2906
866.662	2906
866.793	2914
866.924	2872
867.055	3005
867.186	2941
867.317	2899
867.448	2834
867.579	2864
867.71	2864
867.841	2830
867.972	2906
868.103	2891
868.233	2876
868.364	2864
868.495	2918
868.625	3081
868.756	3123
868.886	2971
869.017	3017
869.147	3161
869.278	3150
869.408	3055
869.539	3001
869.669	3135
869.799	3036
869.929	3097
870.06	3112
870.19	3283
870.32	3241
870.45	3279
870.58	3378
870.71	3458
870.84	3443
870.97	3317
871.1	3230
871.23	3500
871.36	3447
871.489	3386
871.619	3386
871.749	3424
871.879	3447
872.008	3496
872.138	3382
872.267	3279
872.397	3138
872.526	3131
872.656	3001
872.785	3089
872.915	3249
873.044	3313
873.173	3253
873.303	3241
873.432	3241
873.561	3241
873.69	3150
873.819	3142
873.948	3203
874.077	3176
874.206	3043
874.335	3093
874.464	3195
874.593	3351
874.722	3249
874.851	3363
874.979	3348
875.108	3313
875.237	3192
875.365	3157
875.494	3157
875.623	3260
875.751	3123
875.88	3108
876.008	3192
876.136	3214
876.265	3401
876.393	3473
876.521	3397
876.65	3355
876.778	3317
876.906	3245
877.034	3192
877.162	3241
877.29	3203
877.418	3272
877.546	3233
877.674	3207
877.802	3237
877.93	3230
878.058	3150
878.185	3108
878.313	3218
878.441	3211
878.568	3024
878.696	3135
878.824	3256
878.951	3317
879.079	3416
879.206	3629
879.333	3435
879.461	3336
879.588	3344
879.715	3477
879.842	3610
879.97	3382
880.097	3165
880.224	3138
880.351	3192
880.478	3256
880.605	3203
880.732	3199
880.859	3500
880.986	3321
881.112	3344
881.239	3188
881.366	3104
881.493	3001
881.619	2998
881.746	3074
881.872	3085
881.999	3097
882.125	3154
882.252	3218
882.378	3313
882.505	3439
882.631	3283
882.757	3123
882.883	3203
883.01	3214
883.136	3093
883.262	3081
883.388	3116
883.514	3313
883.64	3378
883.766	3332
883.892	3176
884.018	3279
884.143	3428
884.269	3530
884.395	3199
884.52	3142
884.646	3180
884.772	3135
884.897	3108
885.023	3207
885.148	3332
885.274	3481
885.399	3367
885.524	3291
885.65	3226
885.775	3279
885.9	3272
886.025	3401
886.15	3340
886.275	3291
886.4	3233
886.525	3287
886.65	3275
886.775	3279
886.9	3488
887.025	3660
887.149	3401
887.274	3214
887.399	3154
887.523	3211
887.648	3184
887.773	3222
887.897	3405
888.021	3401
888.146	3272
888.27	3420
888.395	3542
888.519	3439
888.643	3454
888.767	3431
888.891	3302
889.015	3211
889.139	3287
889.263	3203
889.387	3416
889.511	3526
889.635	3439
889.759	3260
889.883	3260
890.006	3389
890.13	3466
890.254	3306
890.377	3355
890.501	3173
890.624	3207
890.748	3317
890.871	3195
890.995	3108
891.118	3074
891.241	3195
891.364	3237
891.488	3344
891.611	3192
891.734	3218
891.857	3253
891.98	3245
892.103	3336
892.226	3275
892.349	3207
892.471	3089
892.594	3218
892.717	3256
892.839	3249
892.962	3268
893.085	3344
893.207	3325
893.33	3146
893.452	3222
893.575	3329
893.697	3256
893.819	3450
893.941	3466
894.064	3477
894.186	3249
894.308	3253
894.43	3424
894.552	3523
894.674	3447
894.796	3283
894.918	3283
895.04	3237
895.161	3454
895.283	3374
895.405	3329
895.526	3363
895.648	3469
895.769	3412
895.891	3424
896.012	3454
896.134	3405
896.255	3401
896.376	3340
896.498	3344
896.619	3443
896.74	3359
896.861	3378
896.982	3660
897.103	3812
897.224	3549
897.345	3477
897.466	3424
897.587	3504
897.708	3606
897.828	3542
897.949	3466
898.07	3321
898.19	3424
898.311	3618
898.431	3447
898.552	3504
898.672	3625
898.792	3576
898.913	3488
899.033	3409
899.153	3272
899.273	3237
899.393	3264
899.513	3302
899.633	3310
899.753	3340
899.873	3310
899.993	3363
900.113	3340
900.232	3397
900.352	3344
900.472	3272
900.591	3173
900.711	3317
900.83	3226
900.95	3378
901.069	3496
901.189	3317
901.308	3169
901.427	3116
901.546	3211
901.665	3268
901.784	3397
901.904	3203
902.023	3112
902.141	3028
902.26	3005
902.379	3127
902.498	3066
902.617	3013
902.735	3169
902.854	3260
902.973	3203
903.091	3017
903.21	3077
903.328	3127
903.446	3104
903.565	3077
903.683	3214
903.801	3116
903.919	3249
904.038	3264
904.156	3188
904.274	3272
904.392	3306
904.51	3268
904.627	3344
904.745	3424
904.863	3504
904.981	3283
905.098	3138
905.216	3207
905.334	3302
905.451	3321
905.569	3275
905.686	3443
905.803	3420
905.921	3321
906.038	3431
906.155	3351
906.272	3283
906.389	3355
906.506	3233
906.623	3287
906.74	3272
906.857	3176
906.974	3249
907.091	3416
907.208	3549
907.324	3469
907.441	3378
907.557	3199
907.674	3249
907.79	3176
907.907	3245
908.023	3378
908.139	3351
908.256	3329
908.372	3378
908.488	3389
908.604	3287
908.72	3287
908.836	3260
908.952	3279
909.068	3348
909.184	3447
909.3	3393
909.415	3507
909.531	3454
909.647	3275
909.762	3298
909.878	3256
909.993	3336
910.108	3306
910.224	3313
910.339	3405
910.454	3363
910.57	3253
910.685	3226
910.8	3584
910.915	3481
911.03	3504
911.145	3317
911.259	3245
911.374	3249
911.489	3230
911.604	3199
911.718	3119
911.833	3184
911.947	3024
912.062	2979
912.176	3157
912.291	3180
912.405	3176
912.519	3431
912.633	3504
912.748	3329
912.862	3241
912.976	3180
913.09	3005
913.204	3142
913.318	3249
913.431	3325
913.545	3321
913.659	3409
913.772	3344
913.886	3199
914	3203
914.113	3370
914.226	3405
914.34	3370
914.453	3226
914.566	3439
914.68	3268
914.793	3310
914.906	3173
915.019	3097
915.132	3062
915.245	3165
915.358	3180
915.47	3222
915.583	3264
915.696	3283
915.809	3405
915.921	3435
916.034	3241
916.146	3268
916.259	3203
916.371	3374
916.483	3336
916.595	3283
916.708	3275
916.82	3340
916.932	3374
917.044	3336
917.156	3351
917.268	3256
917.38	3294
917.491	3306
917.603	3355
917.715	3450
917.826	3466
917.938	3344
918.049	3272
918.161	3412
918.272	3580
918.384	3576
918.495	3488
918.606	3325
918.717	3237
918.828	3367
918.939	3389
919.05	3260
919.161	3386
919.272	3203
919.383	3279
919.494	3473
919.604	3675
919.715	3458
919.826	3454
919.936	3477
920.047	3591
920.157	3515
920.267	3770
920.378	3610
920.488	3538
920.598	3743
920.708	3975
920.818	3835
920.928	3827
921.038	4017
921.148	3979
921.258	3679
921.368	3629
921.477	3557
921.587	3511
921.697	3443
921.806	3622
921.916	3492
922.025	3348
922.134	3344
922.244	3329
922.353	3450
922.462	3264
922.571	3268
922.68	3108
922.789	3085
922.898	3108
923.007	3074
923.116	3195
923.224	3169
923.333	3157
923.442	3100
923.55	3077
923.659	3131
923.767	3222
923.876	3138
923.984	3214
924.092	3104
924.201	3188
924.309	3249
924.417	3233
924.525	3180
924.633	3237
924.741	3991
924.849	3047
924.956	3275
925.064	3104
925.172	3020
925.279	3104
925.387	3211
925.494	3226
925.602	3359
925.709	3344
925.816	3214
925.924	3272
926.031	3405
926.138	3306
926.245	3317
926.352	3249
926.459	3435
926.566	3435
926.673	3272
926.779	3211
926.886	3245
926.993	3127
927.099	3119
927.206	3100
927.312	3131
927.419	3260
927.525	3165
927.631	3272
927.737	3150
927.843	3116
927.95	3020
928.056	3135
928.162	3135
928.267	3264
928.373	3857
928.479	3264
928.585	3062
928.69	3222
928.796	3260
928.901	3188
929.007	3077
929.112	3176
929.218	3195
929.323	3085
929.428	3100
929.533	3310
929.638	3119
929.743	3161
929.848	3241
929.953	3222
930.058	3173
930.163	2986
930.267	3028
930.372	3222
930.477	3051
930.581	3275
930.685	3150
930.79	3028
930.894	3085
930.998	3055
931.103	3233
931.207	2956
931.311	2933
931.415	2872
931.519	2731
931.623	2796
