Data from test_V78500241_700.txt Node
Date: Fri Mar 25 16:20:03 CST 2022
User: usil
Spectrometer: V785-0024
Trigger mode: 0
Integration Time (sec): 4.000000E-1
Scans to average: 1
Nonlinearity correction enabled: false
Boxcar width: 0
Storing dark spectrum: false
XAxis mode: Wavelengths
Number of Pixels in Spectrum: 1024
>>>>>Begin Spectral Data<<<<<
801.071	2868
801.214	2902
801.356	2845
801.499	2895
801.641	2891
801.783	2891
801.926	3036
802.068	2948
802.211	2986
802.353	3032
802.496	2948
802.638	3017
802.78	3036
802.923	3074
803.065	3001
803.208	2861
803.35	2922
803.492	2922
803.635	2880
803.777	2766
803.919	2857
804.061	3199
804.204	2963
804.346	2895
804.488	2842
804.63	2975
804.773	2861
804.915	2895
805.057	3062
805.199	2918
805.341	2979
805.483	3009
805.626	2979
805.768	2971
805.91	3081
806.052	3093
806.194	2982
806.336	3226
806.478	2986
806.62	2975
806.762	2963
806.904	3051
807.046	3138
807.188	2922
807.33	2910
807.472	2956
807.614	2899
807.756	3001
807.898	2933
808.04	2895
808.182	2952
808.324	2925
808.465	2895
808.607	2902
808.749	2811
808.891	2834
809.033	2979
809.174	2971
809.316	2887
809.458	2887
809.6	2743
809.741	2762
809.883	2766
810.025	2842
810.166	2872
810.308	2830
810.45	2849
810.591	2746
810.733	2800
810.875	2826
811.016	2804
811.158	2766
811.299	2826
811.441	2910
811.582	2925
811.724	2815
811.865	2826
812.007	2899
812.148	2853
812.29	2857
812.431	2887
812.573	2922
812.714	2963
812.855	3036
812.997	3093
813.138	3112
813.279	3017
813.421	2963
813.562	2948
813.703	2876
813.845	2906
813.986	2781
814.127	2739
814.268	2838
814.41	2826
814.551	2792
814.692	2853
814.833	2826
814.974	2899
815.115	2933
815.256	2800
815.397	2804
815.539	2853
815.68	2769
815.821	2777
815.962	2937
816.103	2922
816.244	2868
816.385	2876
816.526	2956
816.666	2902
816.807	2769
816.948	2876
817.089	2918
817.23	2853
817.371	2781
817.512	2800
817.653	2842
817.793	2773
817.934	2834
818.075	2994
818.216	3017
818.356	3013
818.497	2872
818.638	2811
818.778	2804
818.919	2796
819.06	2758
819.2	2842
819.341	2815
819.481	2838
819.622	2887
819.762	3055
819.903	3032
820.043	2922
820.184	2891
820.324	2887
820.465	2990
820.605	3039
820.746	3020
820.886	2910
821.026	3116
821.167	3165
821.307	3260
821.447	3272
821.588	3214
821.728	3226
821.868	3169
822.008	3093
822.149	3222
822.289	3214
822.429	3066
822.569	3093
822.709	3169
822.849	3017
822.99	3051
823.13	3169
823.27	3188
823.41	3081
823.55	3146
823.69	3116
823.83	3203
823.97	3123
824.11	2971
824.25	2994
824.389	3058
824.529	3135
824.669	3116
824.809	3180
824.949	3264
825.089	3218
825.228	3131
825.368	2986
825.508	2952
825.648	2979
825.787	2979
825.927	2982
826.067	2982
826.206	2975
826.346	3001
826.485	3062
826.625	3093
826.765	3291
826.904	3180
827.044	3001
827.183	2929
827.323	2834
827.462	2990
827.601	2910
827.741	2902
827.88	2979
828.02	2857
828.159	2941
828.298	3017
828.437	3100
828.577	3036
828.716	3214
828.855	3074
828.994	2906
829.134	2872
829.273	2918
829.412	2842
829.551	2830
829.69	2887
829.829	2979
829.968	3142
830.107	3017
830.246	3005
830.385	2902
830.524	2880
830.663	2826
830.802	2743
830.941	2625
831.08	2625
831.219	2743
831.357	2735
831.496	2933
831.635	2731
831.774	2670
831.913	2655
832.051	2533
832.19	2590
832.329	2674
832.467	2537
832.606	2499
832.744	2598
832.883	2590
833.022	2575
833.16	2659
833.299	2693
833.437	2712
833.576	2697
833.714	2739
833.852	2712
833.991	2773
834.129	2815
834.267	2853
834.406	2811
834.544	2861
834.682	2826
834.821	2872
834.959	3009
835.097	2922
835.235	3058
835.373	2998
835.511	2990
835.65	2971
835.788	2960
835.926	2834
836.064	2804
836.202	2811
836.34	3097
836.478	3138
836.615	3047
836.753	3074
836.891	3195
837.029	3123
837.167	3085
837.305	3055
837.443	3043
837.58	2956
837.718	3138
837.856	3062
837.993	3028
838.131	3089
838.269	3116
838.406	3097
838.544	3081
838.681	2925
838.819	2899
838.956	2777
839.094	2823
839.231	2883
839.369	3024
839.506	3370
839.643	3211
839.781	2982
839.918	2914
840.055	3055
840.193	3062
840.33	3081
840.467	3089
840.604	3165
840.742	3378
840.879	3032
841.016	3024
841.153	3085
841.29	3329
841.427	3332
841.564	3291
841.701	3310
841.838	3169
841.975	3157
842.112	3226
842.249	3070
842.385	3020
842.522	3264
842.659	3100
842.796	3066
842.933	3097
843.069	3017
843.206	3032
843.343	3176
843.479	3058
843.616	3135
843.752	2887
843.889	2880
844.025	3032
844.162	2880
844.298	3066
844.435	2925
844.571	2887
844.708	3070
844.844	3188
844.98	3264
845.117	3214
845.253	3070
845.389	2994
845.525	3119
845.661	3055
845.798	2998
845.934	3112
846.07	3055
846.206	3237
846.342	3294
846.478	3249
846.614	3100
846.75	3074
846.886	3032
847.022	3222
847.158	3108
847.294	3180
847.429	3222
847.565	3199
847.701	3485
847.837	3032
847.972	2963
848.108	3184
848.244	3108
848.379	2994
848.515	2933
848.65	2948
848.786	2929
848.921	2990
849.057	3108
849.192	3150
849.328	3051
849.463	3119
849.598	3062
849.734	3005
849.869	2967
850.004	2944
850.14	2933
850.275	2929
850.41	2838
850.545	2895
850.68	2952
850.815	2956
850.95	2941
851.085	3184
851.22	3104
851.355	3005
851.49	2979
851.625	2982
851.76	2986
851.895	2902
852.03	2902
852.165	3001
852.299	3116
852.434	3195
852.569	3135
852.703	3173
852.838	3256
852.973	3329
853.107	3310
853.242	3161
853.376	3074
853.511	2971
853.645	3055
853.78	3214
853.914	3119
854.048	3089
854.183	3100
854.317	3150
854.451	3302
854.585	3116
854.72	3070
854.854	3192
854.988	3062
855.122	3043
855.256	2944
855.39	3081
855.524	3233
855.658	3195
855.792	3165
855.926	3161
856.06	3203
856.194	3226
856.327	3131
856.461	3055
856.595	3123
856.729	3058
856.862	3218
856.996	3184
857.13	3184
857.263	3203
857.397	3222
857.53	3077
857.664	3161
857.797	3241
857.931	3268
858.064	3169
858.197	3207
858.331	3116
858.464	3058
858.597	2986
858.731	3089
858.864	3127
858.997	3062
859.13	3127
859.263	3188
859.396	3173
859.529	3070
859.662	3036
859.795	3047
859.928	3131
860.061	3268
860.194	3249
860.327	3123
860.46	3093
860.592	3237
860.725	3214
860.858	3287
860.99	3100
861.123	3043
861.256	3001
861.388	3146
861.521	3915
861.653	3005
861.786	2990
861.918	2990
862.05	3028
862.183	3093
862.315	3157
862.447	3176
862.58	3081
862.712	2937
862.844	2906
862.976	2994
863.108	2975
863.24	3454
863.372	2861
863.504	2937
863.636	2933
863.768	3036
863.9	2998
864.032	2918
864.164	2952
864.296	3020
864.428	3089
864.559	3055
864.691	3077
864.823	3043
864.954	3020
865.086	3055
865.217	2990
865.349	2956
865.48	2998
865.612	3005
865.743	3089
865.875	2986
866.006	2925
866.137	2918
866.269	2967
866.4	2902
866.531	2899
866.662	2845
866.793	2895
866.924	2895
867.055	2979
867.186	2906
867.317	2880
867.448	2853
867.579	2811
867.71	2830
867.841	2804
867.972	2910
868.103	2861
868.233	2857
868.364	2842
868.495	2899
868.625	3070
868.756	3165
868.886	2960
869.017	3024
869.147	3154
869.278	3157
869.408	3074
869.539	3009
869.669	3097
869.799	3032
869.929	3108
870.06	3116
870.19	3306
870.32	3272
870.45	3306
870.58	3351
870.71	3447
870.84	3466
870.97	3245
871.1	3192
871.23	3469
871.36	3473
871.489	3332
871.619	3393
871.749	3386
871.879	3409
872.008	3469
872.138	3363
872.267	3287
872.397	3146
872.526	3100
872.656	3001
872.785	3112
872.915	3260
873.044	3313
873.173	3230
873.303	3245
873.432	3218
873.561	3222
873.69	3089
873.819	3154
873.948	3199
874.077	3070
874.206	3043
874.335	3077
874.464	3222
874.593	3294
874.722	3237
874.851	3370
874.979	3348
875.108	3291
875.237	3169
875.365	3161
875.494	3165
875.623	3256
875.751	3062
875.88	3100
876.008	3180
876.136	3218
876.265	3363
876.393	3507
876.521	3389
876.65	3386
876.778	3329
876.906	3256
877.034	3192
877.162	3214
877.29	3165
877.418	3256
877.546	3222
877.674	3222
877.802	3237
877.93	3192
878.058	3116
878.185	3112
878.313	3199
878.441	3207
878.568	3089
878.696	3154
878.824	3211
878.951	3287
879.079	3450
879.206	3618
879.333	3447
879.461	3310
879.588	3329
879.715	3477
879.842	3584
879.97	3374
880.097	3157
880.224	3127
880.351	3195
880.478	3233
880.605	3203
880.732	3146
880.859	3507
880.986	3275
881.112	3344
881.239	3218
881.366	3058
881.493	3043
881.619	3017
881.746	3055
881.872	3100
881.999	3066
882.125	3165
882.252	3211
882.378	3264
882.505	3424
882.631	3260
882.757	3135
882.883	3192
883.01	3211
883.136	3169
883.262	3097
883.388	3108
883.514	3294
883.64	3351
883.766	3310
883.892	3176
884.018	3226
884.143	3428
884.269	3553
884.395	3195
884.52	3161
884.646	3146
884.772	3108
884.897	3100
885.023	3180
885.148	3351
885.274	3409
885.399	3374
885.524	3253
885.65	3211
885.775	3275
885.9	3264
886.025	3359
886.15	3348
886.275	3298
886.4	3165
886.525	3313
886.65	3256
886.775	3268
886.9	3447
887.025	3629
887.149	3397
887.274	3241
887.399	3161
887.523	3199
887.648	3173
887.773	3176
887.897	3389
888.021	3409
888.146	3241
888.27	3420
888.395	3564
888.519	3378
888.643	3428
888.767	3477
888.891	3310
889.015	3245
889.139	3275
889.263	3245
889.387	3409
889.511	3504
889.635	3431
889.759	3302
889.883	3275
890.006	3359
890.13	3488
890.254	3268
890.377	3325
890.501	3165
890.624	3169
890.748	3272
890.871	3127
890.995	3112
891.118	3001
891.241	3211
891.364	3207
891.488	3310
891.611	3150
891.734	3211
891.857	3310
891.98	3211
892.103	3302
892.226	3275
892.349	3207
892.471	3127
892.594	3230
892.717	3272
892.839	3275
892.962	3256
893.085	3332
893.207	3275
893.33	3146
893.452	3176
893.575	3329
893.697	3230
893.819	3435
893.941	3496
894.064	3458
894.186	3249
894.308	3283
894.43	3424
894.552	3500
894.674	3431
894.796	3253
894.918	3275
895.04	3294
895.161	3416
895.283	3336
895.405	3321
895.526	3378
895.648	3409
895.769	3409
895.891	3454
896.012	3443
896.134	3466
896.255	3378
896.376	3378
896.498	3355
896.619	3454
896.74	3367
896.861	3355
896.982	3667
897.103	3857
897.224	3625
897.345	3488
897.466	3435
897.587	3443
897.708	3606
897.828	3549
897.949	3424
898.07	3344
898.19	3405
898.311	3622
898.431	3462
898.552	3538
898.672	3603
898.792	3584
898.913	3580
899.033	3435
899.153	3291
899.273	3226
899.393	3310
899.513	3317
899.633	3348
899.753	3363
899.873	3329
899.993	3393
900.113	3355
900.232	3412
900.352	3355
900.472	3325
900.591	3230
900.711	3321
900.83	3275
900.95	3450
901.069	3538
901.189	3336
901.308	3207
901.427	3180
901.546	3241
901.665	3298
901.784	3397
901.904	3272
902.023	3195
902.141	3062
902.26	3043
902.379	3169
902.498	3085
902.617	3116
902.735	3245
902.854	3264
902.973	3241
903.091	3097
903.21	3093
903.328	3180
903.446	3138
903.565	3165
903.683	3272
903.801	3112
903.919	3268
904.038	3332
904.156	3226
904.274	3340
904.392	3287
904.51	3317
904.627	3370
904.745	3473
904.863	3534
904.981	3313
905.098	3211
905.216	3272
905.334	3302
905.451	3370
905.569	3348
905.686	3504
905.803	3462
905.921	3302
906.038	3462
906.155	3424
906.272	3268
906.389	3363
906.506	3253
906.623	3291
906.74	3287
906.857	3226
906.974	3264
907.091	3481
907.208	3614
907.324	3557
907.441	3435
907.557	3260
907.674	3279
907.79	3195
907.907	3302
908.023	3447
908.139	3428
908.256	3389
908.372	3447
908.488	3363
908.604	3283
908.72	3268
908.836	3325
908.952	3310
909.068	3336
909.184	3542
909.3	3420
909.415	3568
909.531	3542
909.647	3291
909.762	3348
909.878	3264
909.993	3367
910.108	3367
910.224	3378
910.339	3424
910.454	3351
910.57	3310
910.685	3291
910.8	3629
910.915	3564
911.03	3477
911.145	3302
911.259	3317
911.374	3329
911.489	3310
911.604	3207
911.718	3165
911.833	3180
911.947	3058
912.062	3024
912.176	3199
912.291	3214
912.405	3211
912.519	3481
912.633	3469
912.748	3367
912.862	3272
912.976	3199
913.09	3108
913.204	3176
913.318	3199
913.431	3382
913.545	3416
913.659	3439
913.772	3306
913.886	3226
914	3237
914.113	3374
914.226	3412
914.34	3439
914.453	3230
914.566	3454
914.68	3325
914.793	3340
914.906	3176
915.019	3173
915.132	3077
915.245	3199
915.358	3256
915.47	3291
915.583	3332
915.696	3302
915.809	3458
915.921	3477
916.034	3279
916.146	3275
916.259	3230
916.371	3401
916.483	3428
916.595	3310
916.708	3355
916.82	3405
916.932	3344
917.044	3397
917.156	3363
917.268	3302
917.38	3313
917.491	3336
917.603	3401
917.715	3469
917.826	3492
917.938	3409
918.049	3256
918.161	3458
918.272	3568
918.384	3625
918.495	3504
918.606	3382
918.717	3344
918.828	3409
918.939	3431
919.05	3317
919.161	3409
919.272	3199
919.383	3302
919.494	3542
919.604	3675
919.715	3515
919.826	3409
919.936	3466
920.047	3622
920.157	3549
920.267	3774
920.378	3675
920.488	3629
920.598	3800
920.708	3945
920.818	3857
920.928	3896
921.038	4055
921.148	4078
921.258	3755
921.368	3701
921.477	3637
921.587	3576
921.697	3507
921.806	3663
921.916	3553
922.025	3378
922.134	3393
922.244	3348
922.353	3488
922.462	3310
922.571	3256
922.68	3146
922.789	3131
922.898	3180
923.007	3127
923.116	3203
923.224	3214
923.333	3192
923.442	3138
923.55	3108
923.659	3165
923.767	3287
923.876	3150
923.984	3287
924.092	3135
924.201	3195
924.309	3249
924.417	3268
924.525	3253
924.633	3275
924.741	4090
924.849	3043
924.956	3348
925.064	3161
925.172	3089
925.279	3123
925.387	3207
925.494	3256
925.602	3397
925.709	3329
925.816	3249
925.924	3340
926.031	3389
926.138	3359
926.245	3393
926.352	3237
926.459	3450
926.566	3545
926.673	3344
926.779	3313
926.886	3253
926.993	3195
927.099	3176
927.206	3150
927.312	3135
927.419	3249
927.525	3214
927.631	3291
927.737	3218
927.843	3123
927.95	3028
928.056	3157
928.162	3195
928.267	3260
928.373	3903
928.479	3313
928.585	3089
928.69	3237
928.796	3275
928.901	3180
929.007	3055
929.112	3214
929.218	3176
929.323	3150
929.428	3169
929.533	3370
929.638	3116
929.743	3214
929.848	3298
929.953	3207
930.058	3180
930.163	3005
930.267	3074
930.372	3214
930.477	3058
930.581	3310
930.685	3203
930.79	3085
930.894	3161
930.998	3123
931.103	3306
931.207	2986
931.311	2941
931.415	2956
931.519	2792
931.623	2796
