Data from test_V78500241_1747.txt Node
Date: Fri Mar 25 16:27:18 CST 2022
User: usil
Spectrometer: V785-0024
Trigger mode: 0
Integration Time (sec): 4.000000E-1
Scans to average: 1
Nonlinearity correction enabled: false
Boxcar width: 0
Storing dark spectrum: false
XAxis mode: Wavelengths
Number of Pixels in Spectrum: 1024
>>>>>Begin Spectral Data<<<<<
801.071	2899
801.214	2952
801.356	2899
801.499	2937
801.641	2887
801.783	2948
801.926	3047
802.068	3001
802.211	3017
802.353	3055
802.496	3032
802.638	3028
802.78	3070
802.923	3112
803.065	3039
803.208	2910
803.35	2948
803.492	2994
803.635	2944
803.777	2815
803.919	2880
804.061	3211
804.204	3009
804.346	2910
804.488	2876
804.63	3001
804.773	2914
804.915	2948
805.057	3104
805.199	2960
805.341	3051
805.483	3047
805.626	3043
805.768	2986
805.91	3119
806.052	3100
806.194	3081
806.336	3203
806.478	3070
806.62	2971
806.762	2952
806.904	3119
807.046	3192
807.188	3005
807.33	2906
807.472	3009
807.614	2941
807.756	3020
807.898	2929
808.04	2906
808.182	3017
808.324	2963
808.465	2925
808.607	2902
808.749	2838
808.891	2876
809.033	2998
809.174	2979
809.316	2933
809.458	2899
809.6	2811
809.741	2769
809.883	2773
810.025	2861
810.166	2906
810.308	2899
810.45	2887
810.591	2800
810.733	2826
810.875	2891
811.016	2815
811.158	2804
811.299	2826
811.441	2960
811.582	2937
811.724	2811
811.865	2853
812.007	2967
812.148	2891
812.29	2861
812.431	2937
812.573	2925
812.714	3024
812.855	3070
812.997	3051
813.138	3116
813.279	3043
813.421	3047
813.562	2990
813.703	2902
813.845	2906
813.986	2773
814.127	2750
814.268	2800
814.41	2876
814.551	2842
814.692	2925
814.833	2842
814.974	2902
815.115	2971
815.256	2857
815.397	2785
815.539	2902
815.68	2819
815.821	2788
815.962	2956
816.103	2887
816.244	2895
816.385	2864
816.526	2941
816.666	2941
816.807	2766
816.948	2899
817.089	2906
817.23	2880
817.371	2826
817.512	2853
817.653	2868
817.793	2857
817.934	2895
818.075	3024
818.216	3005
818.356	3039
818.497	2887
818.638	2796
818.778	2823
818.919	2838
819.06	2743
819.2	2906
819.341	2845
819.481	2804
819.622	2952
819.762	3123
819.903	3047
820.043	2982
820.184	2899
820.324	2910
820.465	3062
820.605	3005
820.746	3032
820.886	2948
821.026	3100
821.167	3195
821.307	3241
821.447	3272
821.588	3207
821.728	3199
821.868	3199
822.008	3108
822.149	3146
822.289	3218
822.429	3108
822.569	3100
822.709	3214
822.849	3036
822.99	3112
823.13	3169
823.27	3237
823.41	3074
823.55	3161
823.69	3195
823.83	3173
823.97	3112
824.11	3024
824.25	3017
824.389	3077
824.529	3108
824.669	3085
824.809	3192
824.949	3272
825.089	3226
825.228	3176
825.368	2998
825.508	2960
825.648	2994
825.787	2975
825.927	3024
826.067	2994
826.206	2979
826.346	3028
826.485	3093
826.625	3157
826.765	3260
826.904	3233
827.044	3032
827.183	2944
827.323	2906
827.462	2982
827.601	2918
827.741	2952
827.88	3009
828.02	2883
828.159	2967
828.298	3028
828.437	3104
828.577	3062
828.716	3249
828.855	3085
828.994	2925
829.134	2933
829.273	2899
829.412	2895
829.551	2872
829.69	2876
829.829	2990
829.968	3138
830.107	3009
830.246	3020
830.385	2967
830.524	2902
830.663	2796
830.802	2750
830.941	2640
831.08	2682
831.219	2769
831.357	2766
831.496	2883
831.635	2758
831.774	2670
831.913	2667
832.051	2579
832.19	2587
832.329	2708
832.467	2556
832.606	2484
832.744	2621
832.883	2575
833.022	2625
833.16	2667
833.299	2689
833.437	2655
833.576	2686
833.714	2766
833.852	2735
833.991	2762
834.129	2868
834.267	2830
834.406	2823
834.544	2910
834.682	2872
834.821	2872
834.959	3077
835.097	2868
835.235	3062
835.373	3017
835.511	3043
835.65	2948
835.788	2986
835.926	2838
836.064	2792
836.202	2834
836.34	3112
836.478	3154
836.615	3039
836.753	3116
836.891	3207
837.029	3211
837.167	3116
837.305	3089
837.443	3047
837.58	2979
837.718	3135
837.856	3093
837.993	3058
838.131	3112
838.269	3135
838.406	3116
838.544	3119
838.681	2941
838.819	2925
838.956	2834
839.094	2845
839.231	2918
839.369	3039
839.506	3401
839.643	3230
839.781	3005
839.918	3005
840.055	3058
840.193	3043
840.33	3085
840.467	3116
840.604	3135
840.742	3401
840.879	3051
841.016	3081
841.153	3100
841.29	3332
841.427	3287
841.564	3275
841.701	3317
841.838	3241
841.975	3165
842.112	3211
842.249	3077
842.385	3089
842.522	3237
842.659	3066
842.796	3051
842.933	3108
843.069	3047
843.206	3058
843.343	3199
843.479	3127
843.616	3135
843.752	2902
843.889	2861
844.025	3070
844.162	2906
844.298	3070
844.435	2956
844.571	2933
844.708	3055
844.844	3161
844.98	3230
845.117	3180
845.253	3066
845.389	2979
845.525	3070
845.661	3093
845.798	3024
845.934	3161
846.07	3081
846.206	3218
846.342	3325
846.478	3253
846.614	3093
846.75	3036
846.886	3043
847.022	3230
847.158	3131
847.294	3176
847.429	3256
847.565	3176
847.701	3492
847.837	3009
847.972	3013
848.108	3180
848.244	3135
848.379	3020
848.515	2925
848.65	2937
848.786	2948
848.921	3009
849.057	3085
849.192	3150
849.328	3077
849.463	3142
849.598	3089
849.734	3043
849.869	2994
850.004	2918
850.14	2982
850.275	2902
850.41	2853
850.545	2902
850.68	2952
850.815	2975
850.95	2994
851.085	3214
851.22	3142
851.355	3058
851.49	2975
851.625	3062
851.76	3062
851.895	2967
852.03	2990
852.165	3028
852.299	3150
852.434	3214
852.569	3184
852.703	3169
852.838	3302
852.973	3370
853.107	3336
853.242	3180
853.376	3131
853.511	2994
853.645	3066
853.78	3283
853.914	3169
854.048	3142
854.183	3104
854.317	3207
854.451	3340
854.585	3112
854.72	3135
854.854	3294
854.988	3085
855.122	3146
855.256	2994
855.39	3211
855.524	3287
855.658	3195
855.792	3199
855.926	3218
856.06	3306
856.194	3306
856.327	3188
856.461	3070
856.595	3135
856.729	3112
856.862	3260
856.996	3218
857.13	3253
857.263	3237
857.397	3340
857.53	3169
857.664	3214
857.797	3298
857.931	3306
858.064	3207
858.197	3245
858.331	3192
858.464	3127
858.597	3058
858.731	3127
858.864	3169
858.997	3131
859.13	3211
859.263	3218
859.396	3256
859.529	3131
859.662	3077
859.795	3081
859.928	3176
860.061	3287
860.194	3336
860.327	3195
860.46	3112
860.592	3218
860.725	3237
860.858	3253
860.99	3146
861.123	3093
861.256	3097
861.388	3173
861.521	4017
861.653	3074
861.786	3024
861.918	3070
862.05	3108
862.183	3100
862.315	3195
862.447	3256
862.58	3116
862.712	3005
862.844	2944
862.976	3036
863.108	3066
863.24	3348
863.372	2910
863.504	3017
863.636	3001
863.768	3070
863.9	3047
864.032	2960
864.164	2982
864.296	3032
864.428	3195
864.559	3146
864.691	3070
864.823	3081
864.954	3081
865.086	3089
865.217	2986
865.349	3017
865.48	3066
865.612	3062
865.743	3207
865.875	2998
866.006	2971
866.137	3020
866.269	2982
866.4	2986
866.531	2998
866.662	2929
866.793	2914
866.924	2929
867.055	3024
867.186	2948
867.317	2944
867.448	2876
867.579	2849
867.71	2864
867.841	2849
867.972	2975
868.103	2910
868.233	2918
868.364	2880
868.495	2952
868.625	3123
868.756	3226
868.886	3028
869.017	3055
869.147	3180
869.278	3214
869.408	3089
869.539	3062
869.669	3119
869.799	3066
869.929	3142
870.06	3138
870.19	3351
870.32	3302
870.45	3306
870.58	3370
870.71	3454
870.84	3473
870.97	3344
871.1	3256
871.23	3526
871.36	3439
871.489	3344
871.619	3412
871.749	3405
871.879	3500
872.008	3515
872.138	3424
872.267	3272
872.397	3188
872.526	3135
872.656	3043
872.785	3165
872.915	3253
873.044	3351
873.173	3253
873.303	3249
873.432	3253
873.561	3275
873.69	3188
873.819	3154
873.948	3222
874.077	3150
874.206	3058
874.335	3127
874.464	3260
874.593	3370
874.722	3298
874.851	3473
874.979	3389
875.108	3344
875.237	3207
875.365	3173
875.494	3207
875.623	3226
875.751	3081
875.88	3142
876.008	3249
876.136	3245
876.265	3397
876.393	3545
876.521	3416
876.65	3420
876.778	3386
876.906	3264
877.034	3241
877.162	3260
877.29	3214
877.418	3287
877.546	3287
877.674	3279
877.802	3279
877.93	3245
878.058	3173
878.185	3161
878.313	3233
878.441	3241
878.568	3100
878.696	3203
878.824	3294
878.951	3329
879.079	3469
879.206	3625
879.333	3447
879.461	3340
879.588	3370
879.715	3488
879.842	3603
879.97	3401
880.097	3192
880.224	3165
880.351	3237
880.478	3256
880.605	3253
880.732	3237
880.859	3542
880.986	3306
881.112	3374
881.239	3214
881.366	3119
881.493	3055
881.619	3043
881.746	3097
881.872	3108
881.999	3123
882.125	3146
882.252	3287
882.378	3310
882.505	3462
882.631	3329
882.757	3157
882.883	3226
883.01	3256
883.136	3165
883.262	3089
883.388	3157
883.514	3374
883.64	3397
883.766	3302
883.892	3195
884.018	3272
884.143	3454
884.269	3530
884.395	3230
884.52	3214
884.646	3203
884.772	3142
884.897	3116
885.023	3249
885.148	3351
885.274	3481
885.399	3363
885.524	3306
885.65	3275
885.775	3325
885.9	3283
886.025	3492
886.15	3405
886.275	3340
886.4	3275
886.525	3283
886.65	3287
886.775	3272
886.9	3511
887.025	3637
887.149	3424
887.274	3279
887.399	3203
887.523	3233
887.648	3195
887.773	3207
887.897	3351
888.021	3397
888.146	3302
888.27	3481
888.395	3549
888.519	3424
888.643	3473
888.767	3462
888.891	3355
889.015	3249
889.139	3302
889.263	3287
889.387	3420
889.511	3561
889.635	3515
889.759	3287
889.883	3317
890.006	3405
890.13	3526
890.254	3332
890.377	3386
890.501	3226
890.624	3222
890.748	3306
890.871	3180
890.995	3135
891.118	3112
891.241	3249
891.364	3207
891.488	3329
891.611	3203
891.734	3218
891.857	3344
891.98	3241
892.103	3405
892.226	3340
892.349	3207
892.471	3097
892.594	3226
892.717	3325
892.839	3298
892.962	3332
893.085	3382
893.207	3283
893.33	3169
893.452	3218
893.575	3386
893.697	3260
893.819	3462
893.941	3526
894.064	3443
894.186	3291
894.308	3283
894.43	3462
894.552	3534
894.674	3458
894.796	3298
894.918	3325
895.04	3332
895.161	3424
895.283	3405
895.405	3317
895.526	3389
895.648	3431
895.769	3450
895.891	3485
896.012	3519
896.134	3481
896.255	3435
896.376	3412
896.498	3332
896.619	3447
896.74	3405
896.861	3431
896.982	3713
897.103	3865
897.224	3606
897.345	3523
897.466	3424
897.587	3507
897.708	3622
897.828	3595
897.949	3477
898.07	3317
898.19	3401
898.311	3644
898.431	3447
898.552	3557
898.672	3629
898.792	3625
898.913	3538
899.033	3439
899.153	3291
899.273	3298
899.393	3298
899.513	3321
899.633	3302
899.753	3351
899.873	3329
899.993	3393
900.113	3344
900.232	3447
900.352	3340
900.472	3332
900.591	3226
900.711	3287
900.83	3253
900.95	3458
901.069	3507
901.189	3359
901.308	3173
901.427	3135
901.546	3233
901.665	3283
901.784	3329
901.904	3195
902.023	3176
902.141	3032
902.26	2994
902.379	3161
902.498	3100
902.617	3081
902.735	3245
902.854	3253
902.973	3207
903.091	3081
903.21	3062
903.328	3154
903.446	3138
903.565	3112
903.683	3214
903.801	3135
903.919	3253
904.038	3306
904.156	3207
904.274	3321
904.392	3249
904.51	3317
904.627	3340
904.745	3469
904.863	3450
904.981	3264
905.098	3188
905.216	3268
905.334	3321
905.451	3344
905.569	3298
905.686	3458
905.803	3473
905.921	3329
906.038	3431
906.155	3370
906.272	3268
906.389	3325
906.506	3264
906.623	3268
906.74	3306
906.857	3195
906.974	3294
907.091	3447
907.208	3587
907.324	3500
907.441	3382
907.557	3226
907.674	3245
907.79	3260
907.907	3260
908.023	3435
908.139	3405
908.256	3306
908.372	3378
908.488	3367
908.604	3268
908.72	3275
908.836	3275
908.952	3317
909.068	3359
909.184	3500
909.3	3386
909.415	3534
909.531	3473
909.647	3279
909.762	3298
909.878	3253
909.993	3348
910.108	3336
910.224	3355
910.339	3382
910.454	3344
910.57	3321
910.685	3241
910.8	3599
910.915	3553
911.03	3454
911.145	3283
911.259	3256
911.374	3336
911.489	3245
911.604	3275
911.718	3127
911.833	3192
911.947	3051
912.062	2990
912.176	3180
912.291	3222
912.405	3256
912.519	3393
912.633	3485
912.748	3313
912.862	3294
912.976	3176
913.09	3058
913.204	3154
913.318	3211
913.431	3321
913.545	3313
913.659	3439
913.772	3351
913.886	3222
914	3211
914.113	3374
914.226	3416
914.34	3363
914.453	3226
914.566	3378
914.68	3306
914.793	3321
914.906	3146
915.019	3154
915.132	3024
915.245	3176
915.358	3233
915.47	3249
915.583	3291
915.696	3332
915.809	3409
915.921	3462
916.034	3287
916.146	3291
916.259	3211
916.371	3348
916.483	3378
916.595	3291
916.708	3329
916.82	3340
916.932	3344
917.044	3344
917.156	3344
917.268	3264
917.38	3317
917.491	3317
917.603	3374
917.715	3477
917.826	3485
917.938	3367
918.049	3302
918.161	3443
918.272	3591
918.384	3580
918.495	3515
918.606	3344
918.717	3294
918.828	3378
918.939	3435
919.05	3272
919.161	3397
919.272	3161
919.383	3279
919.494	3530
919.604	3694
919.715	3526
919.826	3393
919.936	3439
920.047	3610
920.157	3591
920.267	3781
920.378	3572
920.488	3603
920.598	3797
920.708	3968
920.818	3842
920.928	3808
921.038	4021
921.148	4002
921.258	3713
921.368	3667
921.477	3625
921.587	3534
921.697	3462
921.806	3641
921.916	3542
922.025	3359
922.134	3389
922.244	3363
922.353	3416
922.462	3268
922.571	3218
922.68	3116
922.789	3108
922.898	3142
923.007	3104
923.116	3211
923.224	3226
923.333	3176
923.442	3116
923.55	3119
923.659	3135
923.767	3256
923.876	3154
923.984	3245
924.092	3104
924.201	3211
924.309	3218
924.417	3260
924.525	3188
924.633	3283
924.741	4006
924.849	3047
924.956	3283
925.064	3108
925.172	3051
925.279	3116
925.387	3214
925.494	3165
925.602	3355
925.709	3359
925.816	3245
925.924	3249
926.031	3389
926.138	3325
926.245	3386
926.352	3264
926.459	3424
926.566	3496
926.673	3332
926.779	3268
926.886	3260
926.993	3142
927.099	3142
927.206	3135
927.312	3116
927.419	3264
927.525	3192
927.631	3306
927.737	3150
927.843	3161
927.95	3017
928.056	3127
928.162	3195
928.267	3249
928.373	3835
928.479	3298
928.585	3077
928.69	3218
928.796	3287
928.901	3161
929.007	3062
929.112	3211
929.218	3180
929.323	3112
929.428	3161
929.533	3344
929.638	3119
929.743	3161
929.848	3260
929.953	3218
930.058	3131
930.163	2986
930.267	3089
930.372	3230
930.477	3058
930.581	3348
930.685	3165
930.79	3051
930.894	3138
930.998	3089
931.103	3287
931.207	2963
931.311	2975
931.415	2929
931.519	2766
931.623	2807
