Data from test_V78500241_68.txt Node
Date: Fri Mar 25 16:15:40 CST 2022
User: usil
Spectrometer: V785-0024
Trigger mode: 0
Integration Time (sec): 4.000000E-1
Scans to average: 1
Nonlinearity correction enabled: false
Boxcar width: 0
Storing dark spectrum: false
XAxis mode: Wavelengths
Number of Pixels in Spectrum: 1024
>>>>>Begin Spectral Data<<<<<
801.071	2944
801.214	2971
801.356	2929
801.499	2937
801.641	2906
801.783	2948
801.926	3093
802.068	2982
802.211	3043
802.353	3074
802.496	2975
802.638	3024
802.78	3089
802.923	3100
803.065	3047
803.208	2895
803.35	2922
803.492	2986
803.635	2982
803.777	2758
803.919	2842
804.061	3249
804.204	2982
804.346	2918
804.488	2857
804.63	3039
804.773	2906
804.915	2937
805.057	3097
805.199	2952
805.341	3013
805.483	3081
805.626	3055
805.768	2986
805.91	3138
806.052	3116
806.194	3100
806.336	3268
806.478	3043
806.62	3001
806.762	2998
806.904	3104
807.046	3237
807.188	3036
807.33	2937
807.472	3001
807.614	2944
807.756	3055
807.898	2975
808.04	2925
808.182	3001
808.324	3020
808.465	2914
808.607	2902
808.749	2838
808.891	2864
809.033	2971
809.174	3024
809.316	2960
809.458	2918
809.6	2823
809.741	2815
809.883	2857
810.025	2883
810.166	2906
810.308	2845
810.45	2849
810.591	2788
810.733	2823
810.875	2868
811.016	2807
811.158	2819
811.299	2842
811.441	2925
811.582	2918
811.724	2823
811.865	2891
812.007	2941
812.148	2910
812.29	2868
812.431	2925
812.573	2979
812.714	2994
812.855	3074
812.997	3097
813.138	3184
813.279	3070
813.421	2998
813.562	3017
813.703	2883
813.845	2914
813.986	2785
814.127	2750
814.268	2861
814.41	2895
814.551	2826
814.692	2899
814.833	2838
814.974	2944
815.115	2990
815.256	2838
815.397	2868
815.539	2880
815.68	2804
815.821	2834
815.962	2956
816.103	2960
816.244	2922
816.385	2902
816.526	2986
816.666	2979
816.807	2773
816.948	2902
817.089	2937
817.23	2895
817.371	2842
817.512	2857
817.653	2887
817.793	2857
817.934	2883
818.075	3009
818.216	3005
818.356	3017
818.497	2948
818.638	2815
818.778	2883
818.919	2815
819.06	2781
819.2	2899
819.341	2887
819.481	2845
819.622	2952
819.762	3154
819.903	3081
820.043	2975
820.184	2941
820.324	2960
820.465	3047
820.605	3055
820.746	3036
820.886	2994
821.026	3131
821.167	3165
821.307	3264
821.447	3344
821.588	3260
821.728	3249
821.868	3218
822.008	3127
822.149	3245
822.289	3245
822.429	3119
822.569	3127
822.709	3184
822.849	3070
822.99	3108
823.13	3203
823.27	3214
823.41	3123
823.55	3184
823.69	3207
823.83	3203
823.97	3127
824.11	3066
824.25	3028
824.389	3104
824.529	3161
824.669	3104
824.809	3249
824.949	3272
825.089	3291
825.228	3180
825.368	3039
825.508	2982
825.648	2967
825.787	3017
825.927	3074
826.067	2998
826.206	2975
826.346	3093
826.485	3100
826.625	3131
826.765	3260
826.904	3237
827.044	3020
827.183	2944
827.323	2922
827.462	3009
827.601	2925
827.741	2937
827.88	2982
828.02	2887
828.159	3009
828.298	3047
828.437	3146
828.577	3085
828.716	3260
828.855	3116
828.994	2922
829.134	2922
829.273	2982
829.412	2929
829.551	2880
829.69	2910
829.829	2963
829.968	3138
830.107	3032
830.246	3036
830.385	2971
830.524	2895
830.663	2819
830.802	2743
830.941	2632
831.08	2670
831.219	2766
831.357	2811
831.496	2952
831.635	2762
831.774	2667
831.913	2678
832.051	2583
832.19	2598
832.329	2701
832.467	2564
832.606	2503
832.744	2610
832.883	2590
833.022	2594
833.16	2697
833.299	2743
833.437	2693
833.576	2720
833.714	2754
833.852	2746
833.991	2804
834.129	2830
834.267	2845
834.406	2842
834.544	2887
834.682	2906
834.821	2902
834.959	3100
835.097	2925
835.235	3112
835.373	3051
835.511	3066
835.65	2982
835.788	2994
835.926	2868
836.064	2845
836.202	2861
836.34	3100
836.478	3165
836.615	3112
836.753	3207
836.891	3199
837.029	3176
837.167	3157
837.305	3089
837.443	3085
837.58	2956
837.718	3180
837.856	3116
837.993	3043
838.131	3127
838.269	3146
838.406	3119
838.544	3116
838.681	2982
838.819	2910
838.956	2849
839.094	2853
839.231	2925
839.369	3062
839.506	3374
839.643	3233
839.781	3036
839.918	2998
840.055	3085
840.193	3074
840.33	3074
840.467	3112
840.604	3173
840.742	3439
840.879	3108
841.016	3070
841.153	3188
841.29	3359
841.427	3329
841.564	3291
841.701	3340
841.838	3245
841.975	3230
842.112	3249
842.249	3104
842.385	3104
842.522	3260
842.659	3112
842.796	3089
842.933	3154
843.069	3085
843.206	3097
843.343	3226
843.479	3104
843.616	3173
843.752	2906
843.889	2883
844.025	3093
844.162	2910
844.298	3123
844.435	2990
844.571	2933
844.708	3089
844.844	3226
844.98	3237
845.117	3245
845.253	3062
845.389	3039
845.525	3142
845.661	3131
845.798	3066
845.934	3195
846.07	3112
846.206	3222
846.342	3355
846.478	3272
846.614	3135
846.75	3135
846.886	3077
847.022	3260
847.158	3146
847.294	3249
847.429	3275
847.565	3272
847.701	3530
847.837	3055
847.972	3017
848.108	3165
848.244	3184
848.379	3032
848.515	3009
848.65	2941
848.786	3017
848.921	3017
849.057	3150
849.192	3195
849.328	3119
849.463	3123
849.598	3108
849.734	3097
849.869	3020
850.004	2963
850.14	3024
850.275	2956
850.41	2845
850.545	2906
850.68	2941
850.815	2971
850.95	2975
851.085	3222
851.22	3112
851.355	3119
851.49	3032
851.625	3043
851.76	3047
851.895	2982
852.03	2956
852.165	3036
852.299	3173
852.434	3207
852.569	3176
852.703	3203
852.838	3275
852.973	3378
853.107	3370
853.242	3169
853.376	3089
853.511	3032
853.645	3089
853.78	3268
853.914	3157
854.048	3169
854.183	3112
854.317	3161
854.451	3336
854.585	3184
854.72	3123
854.854	3245
854.988	3055
855.122	3135
855.256	3001
855.39	3146
855.524	3241
855.658	3188
855.792	3207
855.926	3253
856.06	3253
856.194	3256
856.327	3214
856.461	3146
856.595	3119
856.729	3161
856.862	3264
856.996	3188
857.13	3214
857.263	3249
857.397	3325
857.53	3176
857.664	3214
857.797	3283
857.931	3283
858.064	3226
858.197	3272
858.331	3180
858.464	3146
858.597	3051
858.731	3150
858.864	3161
858.997	3154
859.13	3199
859.263	3192
859.396	3241
859.529	3150
859.662	3112
859.795	3066
859.928	3142
860.061	3321
860.194	3332
860.327	3142
860.46	3135
860.592	3211
860.725	3256
860.858	3313
860.99	3142
861.123	3074
861.256	3066
861.388	3154
861.521	3880
861.653	3043
861.786	3039
861.918	3001
862.05	3089
862.183	3100
862.315	3199
862.447	3211
862.58	3127
862.712	2975
862.844	2899
862.976	3009
863.108	3077
863.24	3344
863.372	2910
863.504	2956
863.636	2982
863.768	3074
863.9	2994
864.032	2902
864.164	2982
864.296	3058
864.428	3100
864.559	3180
864.691	3108
864.823	3085
864.954	3066
865.086	3081
865.217	3001
865.349	3009
865.48	3036
865.612	3024
865.743	3161
865.875	3043
866.006	2994
866.137	3001
866.269	3005
866.4	2998
866.531	2933
866.662	2922
866.793	2922
866.924	2910
867.055	2956
867.186	2952
867.317	2906
867.448	2849
867.579	2868
867.71	2815
867.841	2830
867.972	2941
868.103	2948
868.233	2899
868.364	2910
868.495	2910
868.625	3135
868.756	3165
868.886	3005
869.017	3047
869.147	3157
869.278	3180
869.408	3062
869.539	3066
869.669	3100
869.799	3051
869.929	3165
870.06	3135
870.19	3344
870.32	3302
870.45	3355
870.58	3382
870.71	3500
870.84	3492
870.97	3306
871.1	3256
871.23	3519
871.36	3496
871.489	3386
871.619	3397
871.749	3454
871.879	3485
872.008	3530
872.138	3386
872.267	3279
872.397	3176
872.526	3142
872.656	3047
872.785	3085
872.915	3272
873.044	3363
873.173	3241
873.303	3264
873.432	3230
873.561	3294
873.69	3230
873.819	3207
873.948	3253
874.077	3131
874.206	3097
874.335	3108
874.464	3245
874.593	3374
874.722	3298
874.851	3397
874.979	3389
875.108	3336
875.237	3222
875.365	3176
875.494	3173
875.623	3279
875.751	3097
875.88	3142
876.008	3222
876.136	3279
876.265	3401
876.393	3526
876.521	3473
876.65	3481
876.778	3367
876.906	3298
877.034	3233
877.162	3294
877.29	3180
877.418	3317
877.546	3260
877.674	3294
877.802	3264
877.93	3249
878.058	3157
878.185	3131
878.313	3241
878.441	3233
878.568	3127
878.696	3161
878.824	3249
878.951	3363
879.079	3485
879.206	3641
879.333	3492
879.461	3363
879.588	3405
879.715	3523
879.842	3587
879.97	3428
880.097	3195
880.224	3135
880.351	3268
880.478	3203
880.605	3241
880.732	3218
880.859	3526
880.986	3363
881.112	3401
881.239	3237
881.366	3123
881.493	3100
881.619	3058
881.746	3108
881.872	3135
881.999	3150
882.125	3176
882.252	3260
882.378	3294
882.505	3504
882.631	3313
882.757	3195
882.883	3253
883.01	3268
883.136	3214
883.262	3154
883.388	3142
883.514	3329
883.64	3431
883.766	3329
883.892	3218
884.018	3268
884.143	3416
884.269	3580
884.395	3256
884.52	3188
884.646	3230
884.772	3154
884.897	3169
885.023	3237
885.148	3382
885.274	3401
885.399	3370
885.524	3359
885.65	3302
885.775	3378
885.9	3302
886.025	3450
886.15	3439
886.275	3321
886.4	3268
886.525	3332
886.65	3332
886.775	3340
886.9	3515
887.025	3671
887.149	3454
887.274	3291
887.399	3211
887.523	3268
887.648	3218
887.773	3199
887.897	3405
888.021	3412
888.146	3382
888.27	3447
888.395	3606
888.519	3473
888.643	3485
888.767	3485
888.891	3363
889.015	3291
889.139	3325
889.263	3272
889.387	3447
889.511	3534
889.635	3481
889.759	3344
889.883	3310
890.006	3431
890.13	3530
890.254	3348
890.377	3351
890.501	3211
890.624	3211
890.748	3344
890.871	3226
890.995	3176
891.118	3085
891.241	3226
891.364	3279
891.488	3363
891.611	3214
891.734	3245
891.857	3313
891.98	3275
892.103	3367
892.226	3302
892.349	3233
892.471	3119
892.594	3310
892.717	3310
892.839	3268
892.962	3344
893.085	3428
893.207	3306
893.33	3207
893.452	3241
893.575	3378
893.697	3310
893.819	3500
893.941	3511
894.064	3485
894.186	3344
894.308	3306
894.43	3466
894.552	3549
894.674	3488
894.796	3329
894.918	3367
895.04	3291
895.161	3431
895.283	3409
895.405	3367
895.526	3401
895.648	3488
895.769	3458
895.891	3469
896.012	3507
896.134	3542
896.255	3481
896.376	3412
896.498	3397
896.619	3504
896.74	3378
896.861	3416
896.982	3717
897.103	3888
897.224	3587
897.345	3561
897.466	3500
897.587	3553
897.708	3667
897.828	3572
897.949	3504
898.07	3367
898.19	3439
898.311	3629
898.431	3519
898.552	3538
898.672	3648
898.792	3622
898.913	3545
899.033	3447
899.153	3382
899.273	3298
899.393	3329
899.513	3336
899.633	3367
899.753	3378
899.873	3348
899.993	3424
900.113	3382
900.232	3405
900.352	3393
900.472	3325
900.591	3241
900.711	3386
900.83	3317
900.95	3466
901.069	3542
901.189	3386
901.308	3237
901.427	3142
901.546	3222
901.665	3329
901.784	3397
901.904	3264
902.023	3154
902.141	3043
902.26	3013
902.379	3184
902.498	3119
902.617	3066
902.735	3214
902.854	3306
902.973	3192
903.091	3043
903.21	3104
903.328	3195
903.446	3127
903.565	3142
903.683	3214
903.801	3150
903.919	3253
904.038	3298
904.156	3211
904.274	3294
904.392	3321
904.51	3355
904.627	3367
904.745	3492
904.863	3530
904.981	3294
905.098	3184
905.216	3264
905.334	3332
905.451	3332
905.569	3329
905.686	3473
905.803	3466
905.921	3332
906.038	3424
906.155	3382
906.272	3336
906.389	3332
906.506	3256
906.623	3279
906.74	3321
906.857	3230
906.974	3283
907.091	3504
907.208	3622
907.324	3481
907.441	3424
907.557	3279
907.674	3211
907.79	3294
907.907	3291
908.023	3405
908.139	3439
908.256	3367
908.372	3401
908.488	3428
908.604	3310
908.72	3275
908.836	3287
908.952	3306
909.068	3370
909.184	3526
909.3	3424
909.415	3523
909.531	3507
909.647	3325
909.762	3336
909.878	3302
909.993	3409
910.108	3378
910.224	3378
910.339	3450
910.454	3397
910.57	3348
910.685	3310
910.8	3618
910.915	3610
911.03	3481
911.145	3275
911.259	3291
911.374	3351
911.489	3313
911.604	3287
911.718	3169
911.833	3157
911.947	3097
912.062	2990
912.176	3199
912.291	3218
912.405	3245
912.519	3435
912.633	3504
912.748	3397
912.862	3325
912.976	3184
913.09	3123
913.204	3161
913.318	3298
913.431	3359
913.545	3378
913.659	3435
913.772	3336
913.886	3283
914	3233
914.113	3397
914.226	3454
914.34	3367
914.453	3222
914.566	3458
914.68	3355
914.793	3306
914.906	3195
915.019	3169
915.132	3047
915.245	3188
915.358	3268
915.47	3253
915.583	3294
915.696	3359
915.809	3466
915.921	3496
916.034	3268
916.146	3313
916.259	3245
916.371	3382
916.483	3405
916.595	3344
916.708	3367
916.82	3344
916.932	3386
917.044	3397
917.156	3405
917.268	3275
917.38	3340
917.491	3332
917.603	3409
917.715	3454
917.826	3496
917.938	3462
918.049	3291
918.161	3416
918.272	3614
918.384	3584
918.495	3584
918.606	3386
918.717	3313
918.828	3412
918.939	3458
919.05	3332
919.161	3447
919.272	3230
919.383	3329
919.494	3507
919.604	3728
919.715	3507
919.826	3462
919.936	3473
920.047	3584
920.157	3606
920.267	3781
920.378	3625
920.488	3599
920.598	3869
920.708	3994
920.818	3903
920.928	3896
921.038	4078
921.148	4071
921.258	3717
921.368	3701
921.477	3622
921.587	3568
921.697	3477
921.806	3641
921.916	3549
922.025	3374
922.134	3424
922.244	3363
922.353	3454
922.462	3294
922.571	3253
922.68	3077
922.789	3146
922.898	3176
923.007	3142
923.116	3226
923.224	3211
923.333	3275
923.442	3154
923.55	3138
923.659	3188
923.767	3260
923.876	3199
923.984	3275
924.092	3104
924.201	3218
924.309	3260
924.417	3272
924.525	3241
924.633	3279
924.741	4257
924.849	3100
924.956	3253
925.064	3116
925.172	3062
925.279	3131
925.387	3268
925.494	3226
925.602	3370
925.709	3348
925.816	3192
925.924	3306
926.031	3401
926.138	3344
926.245	3405
926.352	3268
926.459	3450
926.566	3492
926.673	3332
926.779	3264
926.886	3294
926.993	3211
927.099	3173
927.206	3150
927.312	3146
927.419	3268
927.525	3195
927.631	3332
927.737	3188
927.843	3188
927.95	3039
928.056	3138
928.162	3207
928.267	3272
928.373	3842
928.479	3329
928.585	3081
928.69	3256
928.796	3306
928.901	3211
929.007	3070
929.112	3241
929.218	3218
929.323	3184
929.428	3180
929.533	3336
929.638	3154
929.743	3176
929.848	3310
929.953	3222
930.058	3214
930.163	3070
930.267	3108
930.372	3222
930.477	3047
930.581	3298
930.685	3253
930.79	3081
930.894	3154
930.998	3161
931.103	3317
931.207	2975
931.311	2948
931.415	2990
931.519	2788
931.623	2861
