Data from test_V78500241_1571.txt Node
Date: Fri Mar 25 16:26:05 CST 2022
User: usil
Spectrometer: V785-0024
Trigger mode: 0
Integration Time (sec): 4.000000E-1
Scans to average: 1
Nonlinearity correction enabled: false
Boxcar width: 0
Storing dark spectrum: false
XAxis mode: Wavelengths
Number of Pixels in Spectrum: 1024
>>>>>Begin Spectral Data<<<<<
801.071	2948
801.214	2979
801.356	2914
801.499	2918
801.641	2929
801.783	2960
801.926	3077
802.068	3043
802.211	3047
802.353	3074
802.496	3017
802.638	3043
802.78	3074
802.923	3123
803.065	3058
803.208	2902
803.35	2994
803.492	2994
803.635	2979
803.777	2788
803.919	2910
804.061	3211
804.204	2990
804.346	2971
804.488	2880
804.63	3020
804.773	2922
804.915	2956
805.057	3131
805.199	2971
805.341	3009
805.483	3074
805.626	3020
805.768	2998
805.91	3123
806.052	3142
806.194	3051
806.336	3272
806.478	3074
806.62	2979
806.762	3032
806.904	3135
807.046	3199
807.188	3001
807.33	2952
807.472	3062
807.614	2952
807.756	3013
807.898	2933
808.04	2929
808.182	3017
808.324	2963
808.465	2922
808.607	2922
808.749	2853
808.891	2876
809.033	2979
809.174	2982
809.316	2918
809.458	2910
809.6	2781
809.741	2853
809.883	2804
810.025	2864
810.166	2864
810.308	2883
810.45	2906
810.591	2796
810.733	2826
810.875	2868
811.016	2834
811.158	2773
811.299	2834
811.441	2956
811.582	2948
811.724	2845
811.865	2868
812.007	2937
812.148	2952
812.29	2880
812.431	2902
812.573	2948
812.714	3009
812.855	3085
812.997	3077
813.138	3146
813.279	3089
813.421	3009
813.562	3024
813.703	2872
813.845	2925
813.986	2823
814.127	2792
814.268	2845
814.41	2838
814.551	2826
814.692	2895
814.833	2868
814.974	2952
815.115	2990
815.256	2861
815.397	2842
815.539	2914
815.68	2804
815.821	2826
815.962	3005
816.103	2975
816.244	2918
816.385	2899
816.526	3005
816.666	2952
816.807	2766
816.948	2910
817.089	2929
817.23	2925
817.371	2807
817.512	2800
817.653	2857
817.793	2815
817.934	2906
818.075	3001
818.216	3009
818.356	3066
818.497	2914
818.638	2819
818.778	2883
818.919	2834
819.06	2800
819.2	2895
819.341	2876
819.481	2857
819.622	2990
819.762	3138
819.903	3074
820.043	2982
820.184	2937
820.324	2937
820.465	3051
820.605	3001
820.746	3055
820.886	2979
821.026	3127
821.167	3173
821.307	3298
821.447	3344
821.588	3264
821.728	3233
821.868	3207
822.008	3066
822.149	3218
822.289	3249
822.429	3138
822.569	3100
822.709	3199
822.849	3024
822.99	3100
823.13	3180
823.27	3241
823.41	3131
823.55	3192
823.69	3154
823.83	3192
823.97	3097
824.11	3020
824.25	3047
824.389	3085
824.529	3138
824.669	3123
824.809	3233
824.949	3268
825.089	3245
825.228	3173
825.368	3058
825.508	2963
825.648	3020
825.787	3039
825.927	3047
826.067	2994
826.206	3017
826.346	3039
826.485	3104
826.625	3154
826.765	3253
826.904	3249
827.044	3039
827.183	2944
827.323	2902
827.462	3017
827.601	2906
827.741	2960
827.88	3020
828.02	2883
828.159	3017
828.298	3089
828.437	3142
828.577	3043
828.716	3275
828.855	3074
828.994	2975
829.134	2906
829.273	2967
829.412	2910
829.551	2891
829.69	2891
829.829	3001
829.968	3150
830.107	2998
830.246	3036
830.385	2933
830.524	2914
830.663	2876
830.802	2754
830.941	2689
831.08	2659
831.219	2788
831.357	2807
831.496	2960
831.635	2739
831.774	2712
831.913	2655
832.051	2552
832.19	2583
832.329	2686
832.467	2583
832.606	2499
832.744	2594
832.883	2613
833.022	2610
833.16	2670
833.299	2727
833.437	2697
833.576	2750
833.714	2754
833.852	2758
833.991	2773
834.129	2864
834.267	2830
834.406	2788
834.544	2914
834.682	2887
834.821	2910
834.959	3097
835.097	2910
835.235	3085
835.373	3005
835.511	3039
835.65	2963
835.788	3005
835.926	2845
836.064	2796
836.202	2876
836.34	3093
836.478	3218
836.615	3085
836.753	3165
836.891	3222
837.029	3192
837.167	3104
837.305	3093
837.443	3074
837.58	2994
837.718	3173
837.856	3119
837.993	3032
838.131	3192
838.269	3116
838.406	3100
838.544	3116
838.681	2941
838.819	2971
838.956	2830
839.094	2857
839.231	2925
839.369	3043
839.506	3405
839.643	3203
839.781	3017
839.918	2982
840.055	3077
840.193	3077
840.33	3081
840.467	3135
840.604	3169
840.742	3435
840.879	3116
841.016	3058
841.153	3131
841.29	3359
841.427	3272
841.564	3291
841.701	3329
841.838	3256
841.975	3173
842.112	3253
842.249	3070
842.385	3047
842.522	3272
842.659	3100
842.796	3100
842.933	3116
843.069	3081
843.206	3074
843.343	3195
843.479	3138
843.616	3150
843.752	2906
843.889	2899
844.025	3127
844.162	2937
844.298	3093
844.435	2937
844.571	2918
844.708	3074
844.844	3192
844.98	3241
845.117	3218
845.253	3097
845.389	3013
845.525	3138
845.661	3112
845.798	3055
845.934	3146
846.07	3062
846.206	3253
846.342	3344
846.478	3253
846.614	3089
846.75	3039
846.886	3047
847.022	3249
847.158	3127
847.294	3195
847.429	3253
847.565	3226
847.701	3466
847.837	3043
847.972	2986
848.108	3192
848.244	3214
848.379	3001
848.515	2982
848.65	2910
848.786	2982
848.921	3009
849.057	3123
849.192	3169
849.328	3066
849.463	3142
849.598	3097
849.734	3077
849.869	2979
850.004	2941
850.14	2994
850.275	2914
850.41	2823
850.545	2868
850.68	2952
850.815	2956
850.95	2982
851.085	3226
851.22	3108
851.355	3051
851.49	2982
851.625	3005
851.76	3055
851.895	2979
852.03	2960
852.165	3028
852.299	3108
852.434	3161
852.569	3146
852.703	3195
852.838	3291
852.973	3367
853.107	3340
853.242	3157
853.376	3100
853.511	3005
853.645	3055
853.78	3211
853.914	3116
854.048	3135
854.183	3108
854.317	3176
854.451	3298
854.585	3100
854.72	3135
854.854	3226
854.988	3066
855.122	3081
855.256	2982
855.39	3142
855.524	3275
855.658	3199
855.792	3188
855.926	3214
856.06	3249
856.194	3306
856.327	3142
856.461	3070
856.595	3089
856.729	3108
856.862	3245
856.996	3195
857.13	3203
857.263	3222
857.397	3302
857.53	3169
857.664	3233
857.797	3230
857.931	3279
858.064	3192
858.197	3195
858.331	3180
858.464	3062
858.597	3013
858.731	3150
858.864	3150
858.997	3112
859.13	3127
859.263	3188
859.396	3161
859.529	3131
859.662	3112
859.795	3058
859.928	3131
860.061	3272
860.194	3329
860.327	3154
860.46	3100
860.592	3230
860.725	3279
860.858	3237
860.99	3070
861.123	3062
861.256	3085
861.388	3188
861.521	3876
861.653	3028
861.786	3020
861.918	3017
862.05	3036
862.183	3097
862.315	3150
862.447	3203
862.58	3112
862.712	2960
862.844	2864
862.976	3055
863.108	3009
863.24	3302
863.372	2891
863.504	2986
863.636	2948
863.768	3039
863.9	3009
864.032	2887
864.164	2956
864.296	3017
864.428	3070
864.559	3093
864.691	3100
864.823	3051
864.954	3028
865.086	3039
865.217	3005
865.349	3005
865.48	3013
865.612	3032
865.743	3192
865.875	3013
866.006	2933
866.137	2979
866.269	2986
866.4	2948
866.531	2914
866.662	2899
866.793	2902
866.924	2910
867.055	3009
867.186	2910
867.317	2883
867.448	2842
867.579	2819
867.71	2838
867.841	2819
867.972	2910
868.103	2864
868.233	2910
868.364	2906
868.495	2868
868.625	3081
868.756	3192
868.886	2994
869.017	3039
869.147	3154
869.278	3188
869.408	3085
869.539	3013
869.669	3108
869.799	3066
869.929	3142
870.06	3100
870.19	3321
870.32	3268
870.45	3294
870.58	3348
870.71	3473
870.84	3439
870.97	3298
871.1	3230
871.23	3496
871.36	3450
871.489	3389
871.619	3428
871.749	3393
871.879	3473
872.008	3447
872.138	3397
872.267	3283
872.397	3180
872.526	3100
872.656	3039
872.785	3135
872.915	3260
873.044	3298
873.173	3253
873.303	3241
873.432	3264
873.561	3272
873.69	3180
873.819	3157
873.948	3176
874.077	3119
874.206	3077
874.335	3108
874.464	3173
874.593	3329
874.722	3211
874.851	3389
874.979	3363
875.108	3348
875.237	3222
875.365	3127
875.494	3169
875.623	3249
875.751	3089
875.88	3100
876.008	3199
876.136	3253
876.265	3389
876.393	3511
876.521	3409
876.65	3397
876.778	3401
876.906	3268
877.034	3195
877.162	3237
877.29	3154
877.418	3275
877.546	3222
877.674	3222
877.802	3214
877.93	3241
878.058	3135
878.185	3119
878.313	3157
878.441	3226
878.568	3062
878.696	3157
878.824	3272
878.951	3294
879.079	3431
879.206	3599
879.333	3435
879.461	3348
879.588	3344
879.715	3439
879.842	3603
879.97	3367
880.097	3195
880.224	3135
880.351	3214
880.478	3211
880.605	3184
880.732	3195
880.859	3488
880.986	3336
881.112	3332
881.239	3176
881.366	3093
881.493	3081
881.619	3017
881.746	3017
881.872	3093
881.999	3100
882.125	3169
882.252	3253
882.378	3310
882.505	3405
882.631	3298
882.757	3184
882.883	3218
883.01	3211
883.136	3157
883.262	3119
883.388	3119
883.514	3298
883.64	3363
883.766	3291
883.892	3203
884.018	3245
884.143	3462
884.269	3507
884.395	3222
884.52	3184
884.646	3180
884.772	3104
884.897	3104
885.023	3211
885.148	3329
885.274	3389
885.399	3393
885.524	3249
885.65	3214
885.775	3313
885.9	3287
886.025	3431
886.15	3336
886.275	3313
886.4	3203
886.525	3294
886.65	3275
886.775	3275
886.9	3542
887.025	3614
887.149	3416
887.274	3256
887.399	3199
887.523	3176
887.648	3199
887.773	3188
887.897	3367
888.021	3397
888.146	3302
888.27	3424
888.395	3492
888.519	3393
888.643	3485
888.767	3462
888.891	3306
889.015	3214
889.139	3317
889.263	3249
889.387	3405
889.511	3492
889.635	3443
889.759	3321
889.883	3298
890.006	3378
890.13	3500
890.254	3275
890.377	3355
890.501	3233
890.624	3146
890.748	3294
890.871	3207
890.995	3100
891.118	3032
891.241	3188
891.364	3245
891.488	3317
891.611	3165
891.734	3256
891.857	3268
891.98	3233
892.103	3332
892.226	3264
892.349	3199
892.471	3131
892.594	3245
892.717	3264
892.839	3264
892.962	3310
893.085	3344
893.207	3317
893.33	3146
893.452	3199
893.575	3302
893.697	3233
893.819	3500
893.941	3481
894.064	3488
894.186	3272
894.308	3253
894.43	3454
894.552	3549
894.674	3439
894.796	3283
894.918	3306
895.04	3275
895.161	3447
895.283	3359
895.405	3279
895.526	3351
895.648	3420
895.769	3389
895.891	3431
896.012	3488
896.134	3473
896.255	3348
896.376	3416
896.498	3344
896.619	3393
896.74	3378
896.861	3370
896.982	3713
897.103	3907
897.224	3572
897.345	3481
897.466	3428
897.587	3485
897.708	3618
897.828	3519
897.949	3458
898.07	3294
898.19	3416
898.311	3610
898.431	3435
898.552	3488
898.672	3606
898.792	3557
898.913	3519
899.033	3412
899.153	3355
899.273	3207
899.393	3340
899.513	3317
899.633	3321
899.753	3279
899.873	3313
899.993	3348
900.113	3294
900.232	3420
900.352	3355
900.472	3260
900.591	3214
900.711	3294
900.83	3180
900.95	3424
901.069	3473
901.189	3344
901.308	3154
901.427	3112
901.546	3188
901.665	3291
901.784	3275
901.904	3233
902.023	3146
902.141	3036
902.26	2952
902.379	3119
902.498	3028
902.617	3058
902.735	3180
902.854	3195
902.973	3165
903.091	3039
903.21	3074
903.328	3157
903.446	3127
903.565	3100
903.683	3180
903.801	3097
903.919	3268
904.038	3310
904.156	3180
904.274	3291
904.392	3272
904.51	3294
904.627	3302
904.745	3405
904.863	3519
904.981	3237
905.098	3188
905.216	3233
905.334	3272
905.451	3317
905.569	3317
905.686	3439
905.803	3401
905.921	3279
906.038	3439
906.155	3348
906.272	3298
906.389	3374
906.506	3249
906.623	3272
906.74	3283
906.857	3199
906.974	3237
907.091	3454
907.208	3542
907.324	3492
907.441	3397
907.557	3249
907.674	3214
907.79	3211
907.907	3272
908.023	3351
908.139	3393
908.256	3321
908.372	3367
908.488	3344
908.604	3253
908.72	3218
908.836	3291
908.952	3268
909.068	3336
909.184	3473
909.3	3367
909.415	3481
909.531	3500
909.647	3283
909.762	3272
909.878	3275
909.993	3332
910.108	3359
910.224	3355
910.339	3348
910.454	3351
910.57	3298
910.685	3214
910.8	3599
910.915	3553
911.03	3447
911.145	3260
911.259	3245
911.374	3291
911.489	3233
911.604	3253
911.718	3100
911.833	3135
911.947	3028
912.062	2967
912.176	3214
912.291	3211
912.405	3176
912.519	3409
912.633	3443
912.748	3351
912.862	3245
912.976	3157
913.09	3070
913.204	3112
913.318	3211
913.431	3310
913.545	3329
913.659	3397
913.772	3348
913.886	3222
914	3188
914.113	3374
914.226	3409
914.34	3348
914.453	3207
914.566	3412
914.68	3310
914.793	3298
914.906	3154
915.019	3138
915.132	3085
915.245	3207
915.358	3233
915.47	3230
915.583	3256
915.696	3253
915.809	3378
915.921	3397
916.034	3237
916.146	3275
916.259	3195
916.371	3367
916.483	3329
916.595	3264
916.708	3310
916.82	3332
916.932	3313
917.044	3351
917.156	3310
917.268	3249
917.38	3306
917.491	3310
917.603	3370
917.715	3454
917.826	3428
917.938	3359
918.049	3291
918.161	3469
918.272	3561
918.384	3599
918.495	3507
918.606	3317
918.717	3260
918.828	3428
918.939	3378
919.05	3291
919.161	3336
919.272	3176
919.383	3306
919.494	3515
919.604	3644
919.715	3488
919.826	3393
919.936	3462
920.047	3568
920.157	3534
920.267	3762
920.378	3637
920.488	3591
920.598	3781
920.708	3991
920.818	3827
920.928	3823
921.038	4040
921.148	3994
921.258	3709
921.368	3614
921.477	3622
921.587	3542
921.697	3443
921.806	3622
921.916	3515
922.025	3355
922.134	3325
922.244	3302
922.353	3439
922.462	3298
922.571	3230
922.68	3116
922.789	3039
922.898	3165
923.007	3070
923.116	3214
923.224	3161
923.333	3150
923.442	3123
923.55	3097
923.659	3165
923.767	3214
923.876	3123
923.984	3256
924.092	3097
924.201	3180
924.309	3214
924.417	3253
924.525	3207
924.633	3253
924.741	4173
924.849	3024
924.956	3260
925.064	3119
925.172	3062
925.279	3127
925.387	3176
925.494	3176
925.602	3351
925.709	3355
925.816	3161
925.924	3260
926.031	3416
926.138	3298
926.245	3325
926.352	3256
926.459	3439
926.566	3473
926.673	3291
926.779	3275
926.886	3264
926.993	3146
927.099	3142
927.206	3097
927.312	3093
927.419	3169
927.525	3150
927.631	3268
927.737	3154
927.843	3112
927.95	3017
928.056	3123
928.162	3176
928.267	3268
928.373	3899
928.479	3302
928.585	3070
928.69	3195
928.796	3279
928.901	3138
929.007	3017
929.112	3226
929.218	3165
929.323	3161
929.428	3142
929.533	3340
929.638	3123
929.743	3154
929.848	3268
929.953	3176
930.058	3154
930.163	3005
930.267	3032
930.372	3211
930.477	3036
930.581	3317
930.685	3169
930.79	3055
930.894	3127
930.998	3089
931.103	3268
931.207	2956
931.311	2944
931.415	2914
931.519	2788
931.623	2781
