Data from test_V78500241_1167.txt Node
Date: Fri Mar 25 16:23:17 CST 2022
User: usil
Spectrometer: V785-0024
Trigger mode: 0
Integration Time (sec): 4.000000E-1
Scans to average: 1
Nonlinearity correction enabled: false
Boxcar width: 0
Storing dark spectrum: false
XAxis mode: Wavelengths
Number of Pixels in Spectrum: 1024
>>>>>Begin Spectral Data<<<<<
801.071	2902
801.214	2929
801.356	2849
801.499	2861
801.641	2845
801.783	2925
801.926	3039
802.068	2952
802.211	2990
802.353	3013
802.496	2956
802.638	2990
802.78	3028
802.923	3066
803.065	3009
803.208	2891
803.35	2925
803.492	2906
803.635	2929
803.777	2762
803.919	2830
804.061	3173
804.204	2933
804.346	2918
804.488	2826
804.63	2971
804.773	2830
804.915	2887
805.057	3085
805.199	2880
805.341	2990
805.483	3017
805.626	2960
805.768	2975
805.91	3039
806.052	3085
806.194	3032
806.336	3233
806.478	3047
806.62	2960
806.762	2948
806.904	3066
807.046	3165
807.188	2998
807.33	2918
807.472	2979
807.614	2883
807.756	2986
807.898	2925
808.04	2880
808.182	2925
808.324	2944
808.465	2895
808.607	2883
808.749	2769
808.891	2845
809.033	2944
809.174	2960
809.316	2910
809.458	2853
809.6	2792
809.741	2777
809.883	2796
810.025	2853
810.166	2849
810.308	2834
810.45	2883
810.591	2754
810.733	2746
810.875	2800
811.016	2758
811.158	2754
811.299	2823
811.441	2906
811.582	2914
811.724	2792
811.865	2845
812.007	2880
812.148	2887
812.29	2887
812.431	2918
812.573	2895
812.714	2975
812.855	3020
812.997	3020
813.138	3119
813.279	3036
813.421	2967
813.562	2956
813.703	2895
813.845	2929
813.986	2750
814.127	2746
814.268	2807
814.41	2857
814.551	2815
814.692	2880
814.833	2788
814.974	2864
815.115	2960
815.256	2845
815.397	2811
815.539	2864
815.68	2804
815.821	2781
815.962	2937
816.103	2948
816.244	2857
816.385	2880
816.526	2971
816.666	2925
816.807	2758
816.948	2902
817.089	2880
817.23	2842
817.371	2781
817.512	2792
817.653	2857
817.793	2845
817.934	2902
818.075	2998
818.216	2948
818.356	2998
818.497	2910
818.638	2754
818.778	2815
818.919	2792
819.06	2769
819.2	2864
819.341	2861
819.481	2762
819.622	2967
819.762	3085
819.903	3028
820.043	2914
820.184	2895
820.324	2902
820.465	3013
820.605	2998
820.746	3020
820.886	2918
821.026	3085
821.167	3142
821.307	3230
821.447	3275
821.588	3222
821.728	3211
821.868	3199
822.008	3039
822.149	3176
822.289	3195
822.429	3070
822.569	3074
822.709	3176
822.849	3017
822.99	3062
823.13	3154
823.27	3188
823.41	3142
823.55	3108
823.69	3127
823.83	3184
823.97	3135
824.11	2979
824.25	3043
824.389	3047
824.529	3112
824.669	3036
824.809	3195
824.949	3211
825.089	3169
825.228	3161
825.368	2994
825.508	2948
825.648	2963
825.787	3009
825.927	3013
826.067	2941
826.206	2937
826.346	3036
826.485	3077
826.625	3100
826.765	3310
826.904	3195
827.044	3017
827.183	2906
827.323	2864
827.462	2994
827.601	2918
827.741	2918
827.88	2941
828.02	2849
828.159	2990
828.298	2998
828.437	3112
828.577	3051
828.716	3249
828.855	3116
828.994	2925
829.134	2876
829.273	2906
829.412	2857
829.551	2864
829.69	2864
829.829	2960
829.968	3116
830.107	2998
830.246	3013
830.385	2941
830.524	2849
830.663	2845
830.802	2678
830.941	2663
831.08	2701
831.219	2739
831.357	2796
831.496	2929
831.635	2746
831.774	2655
831.913	2678
832.051	2533
832.19	2587
832.329	2648
832.467	2533
832.606	2473
832.744	2590
832.883	2590
833.022	2587
833.16	2648
833.299	2663
833.437	2678
833.576	2648
833.714	2701
833.852	2716
833.991	2739
834.129	2830
834.267	2845
834.406	2758
834.544	2834
834.682	2864
834.821	2864
834.959	3062
835.097	2880
835.235	3036
835.373	2937
835.511	2982
835.65	2933
835.788	2933
835.926	2811
836.064	2800
836.202	2857
836.34	3097
836.478	3104
836.615	3055
836.753	3081
836.891	3211
837.029	3146
837.167	3077
837.305	3055
837.443	3055
837.58	2979
837.718	3097
837.856	3028
837.993	2994
838.131	3104
838.269	3077
838.406	3089
838.544	3066
838.681	2929
838.819	2883
838.956	2811
839.094	2815
839.231	2929
839.369	3009
839.506	3378
839.643	3188
839.781	2979
839.918	2998
840.055	3047
840.193	3028
840.33	3077
840.467	3081
840.604	3131
840.742	3401
840.879	3009
841.016	3024
841.153	3119
841.29	3332
841.427	3329
841.564	3287
841.701	3321
841.838	3188
841.975	3112
842.112	3207
842.249	3070
842.385	3047
842.522	3199
842.659	3058
842.796	3047
842.933	3123
843.069	3017
843.206	3047
843.343	3154
843.479	3131
843.616	3108
843.752	2880
843.889	2868
844.025	3058
844.162	2887
844.298	3097
844.435	2944
844.571	2918
844.708	3058
844.844	3188
844.98	3203
845.117	3180
845.253	3013
845.389	2990
845.525	3112
845.661	3097
845.798	2994
845.934	3116
846.07	3074
846.206	3211
846.342	3298
846.478	3211
846.614	3074
846.75	3043
846.886	2982
847.022	3214
847.158	3077
847.294	3173
847.429	3230
847.565	3207
847.701	3450
847.837	3009
847.972	2952
848.108	3154
848.244	3131
848.379	2994
848.515	2941
848.65	2891
848.786	2971
848.921	3005
849.057	3066
849.192	3161
849.328	3074
849.463	3104
849.598	3062
849.734	3028
849.869	2979
850.004	2887
850.14	2956
850.275	2895
850.41	2849
850.545	2864
850.68	2902
850.815	2963
850.95	2948
851.085	3169
851.22	3077
851.355	3032
851.49	2971
851.625	2982
851.76	2998
851.895	2979
852.03	2899
852.165	3032
852.299	3081
852.434	3154
852.569	3142
852.703	3157
852.838	3214
852.973	3340
853.107	3359
853.242	3173
853.376	3108
853.511	2986
853.645	3043
853.78	3241
853.914	3108
854.048	3081
854.183	3093
854.317	3150
854.451	3260
854.585	3100
854.72	3097
854.854	3230
854.988	3017
855.122	3058
855.256	2967
855.39	3100
855.524	3253
855.658	3135
855.792	3157
855.926	3192
856.06	3245
856.194	3241
856.327	3142
856.461	3039
856.595	3070
856.729	3104
856.862	3203
856.996	3165
857.13	3169
857.263	3222
857.397	3214
857.53	3112
857.664	3195
857.797	3230
857.931	3230
858.064	3180
858.197	3207
858.331	3119
858.464	3077
858.597	2967
858.731	3074
858.864	3104
858.997	3100
859.13	3150
859.263	3169
859.396	3142
859.529	3100
859.662	3085
859.795	3043
859.928	3150
860.061	3302
860.194	3245
860.327	3135
860.46	3077
860.592	3180
860.725	3249
860.858	3226
860.99	3093
861.123	3058
861.256	3020
861.388	3173
861.521	3709
861.653	2994
861.786	2963
861.918	3017
862.05	3039
862.183	3077
862.315	3138
862.447	3211
862.58	3077
862.712	2895
862.844	2883
862.976	3032
863.108	3009
863.24	3279
863.372	2857
863.504	2918
863.636	2952
863.768	3005
863.9	2982
864.032	2883
864.164	2880
864.296	2975
864.428	3097
864.559	3116
864.691	3020
864.823	3039
864.954	2986
865.086	3036
865.217	3009
865.349	2929
865.48	2990
865.612	3017
865.743	3112
865.875	2998
866.006	2933
866.137	2952
866.269	2941
866.4	2929
866.531	2891
866.662	2857
866.793	2899
866.924	2902
867.055	2925
867.186	2929
867.317	2876
867.448	2872
867.579	2834
867.71	2830
867.841	2830
867.972	2868
868.103	2899
868.233	2864
868.364	2895
868.495	2880
868.625	3055
868.756	3142
868.886	2948
869.017	3001
869.147	3169
869.278	3180
869.408	3051
869.539	2994
869.669	3085
869.799	3058
869.929	3100
870.06	3108
870.19	3351
870.32	3256
870.45	3294
870.58	3363
870.71	3447
870.84	3477
870.97	3230
871.1	3241
871.23	3466
871.36	3496
871.489	3355
871.619	3351
871.749	3431
871.879	3469
872.008	3477
872.138	3397
872.267	3302
872.397	3146
872.526	3097
872.656	2998
872.785	3089
872.915	3241
873.044	3279
873.173	3195
873.303	3237
873.432	3203
873.561	3195
873.69	3150
873.819	3131
873.948	3154
874.077	3066
874.206	3028
874.335	3062
874.464	3230
874.593	3363
874.722	3233
874.851	3351
874.979	3313
875.108	3302
875.237	3188
875.365	3161
875.494	3135
875.623	3256
875.751	3066
875.88	3074
876.008	3199
876.136	3195
876.265	3367
876.393	3511
876.521	3389
876.65	3382
876.778	3275
876.906	3230
877.034	3199
877.162	3150
877.29	3161
877.418	3233
877.546	3268
877.674	3222
877.802	3218
877.93	3214
878.058	3089
878.185	3104
878.313	3218
878.441	3195
878.568	3024
878.696	3119
878.824	3211
878.951	3313
879.079	3401
879.206	3568
879.333	3431
879.461	3317
879.588	3386
879.715	3454
879.842	3572
879.97	3336
880.097	3135
880.224	3100
880.351	3180
880.478	3230
880.605	3180
880.732	3180
880.859	3481
880.986	3268
881.112	3340
881.239	3214
881.366	3066
881.493	3055
881.619	3001
881.746	3055
881.872	3032
881.999	3062
882.125	3135
882.252	3264
882.378	3291
882.505	3412
882.631	3268
882.757	3131
882.883	3233
883.01	3203
883.136	3138
883.262	3062
883.388	3119
883.514	3294
883.64	3325
883.766	3298
883.892	3211
884.018	3233
884.143	3409
884.269	3504
884.395	3180
884.52	3123
884.646	3180
884.772	3123
884.897	3097
885.023	3192
885.148	3336
885.274	3412
885.399	3412
885.524	3237
885.65	3211
885.775	3302
885.9	3253
886.025	3374
886.15	3348
886.275	3321
886.4	3207
886.525	3340
886.65	3253
886.775	3260
886.9	3481
887.025	3667
887.149	3401
887.274	3272
887.399	3161
887.523	3222
887.648	3154
887.773	3173
887.897	3336
888.021	3336
888.146	3283
888.27	3420
888.395	3496
888.519	3370
888.643	3397
888.767	3447
888.891	3310
889.015	3245
889.139	3260
889.263	3245
889.387	3420
889.511	3500
889.635	3439
889.759	3302
889.883	3329
890.006	3378
890.13	3458
890.254	3279
890.377	3306
890.501	3211
890.624	3165
890.748	3283
890.871	3154
890.995	3138
891.118	3081
891.241	3188
891.364	3165
891.488	3321
891.611	3176
891.734	3249
891.857	3256
891.98	3192
892.103	3310
892.226	3283
892.349	3211
892.471	3108
892.594	3218
892.717	3279
892.839	3279
892.962	3260
893.085	3370
893.207	3279
893.33	3135
893.452	3192
893.575	3370
893.697	3272
893.819	3405
893.941	3488
894.064	3405
894.186	3256
894.308	3268
894.43	3454
894.552	3530
894.674	3454
894.796	3230
894.918	3287
895.04	3233
895.161	3409
895.283	3321
895.405	3317
895.526	3302
895.648	3382
895.769	3431
895.891	3443
896.012	3443
896.134	3397
896.255	3412
896.376	3348
896.498	3340
896.619	3431
896.74	3310
896.861	3367
896.982	3629
897.103	3835
897.224	3561
897.345	3488
897.466	3431
897.587	3450
897.708	3576
897.828	3507
897.949	3389
898.07	3298
898.19	3374
898.311	3572
898.431	3382
898.552	3454
898.672	3564
898.792	3591
898.913	3500
899.033	3367
899.153	3275
899.273	3203
899.393	3260
899.513	3302
899.633	3298
899.753	3298
899.873	3348
899.993	3374
900.113	3329
900.232	3401
900.352	3367
900.472	3283
900.591	3195
900.711	3279
900.83	3211
900.95	3424
901.069	3485
901.189	3302
901.308	3142
901.427	3123
901.546	3195
901.665	3275
901.784	3336
901.904	3233
902.023	3104
902.141	3047
902.26	2982
902.379	3150
902.498	3100
902.617	3062
902.735	3218
902.854	3275
902.973	3199
903.091	3047
903.21	3081
903.328	3169
903.446	3138
903.565	3154
903.683	3245
903.801	3123
903.919	3264
904.038	3317
904.156	3218
904.274	3317
904.392	3253
904.51	3302
904.627	3370
904.745	3462
904.863	3549
904.981	3310
905.098	3199
905.216	3253
905.334	3317
905.451	3382
905.569	3367
905.686	3481
905.803	3473
905.921	3264
906.038	3488
906.155	3378
906.272	3272
906.389	3386
906.506	3298
906.623	3279
906.74	3279
906.857	3211
906.974	3275
907.091	3462
907.208	3561
907.324	3488
907.441	3420
907.557	3298
907.674	3233
907.79	3272
907.907	3321
908.023	3450
908.139	3405
908.256	3348
908.372	3389
908.488	3389
908.604	3268
908.72	3268
908.836	3344
908.952	3306
909.068	3409
909.184	3515
909.3	3435
909.415	3526
909.531	3549
909.647	3306
909.762	3291
909.878	3302
909.993	3412
910.108	3370
910.224	3363
910.339	3458
910.454	3351
910.57	3367
910.685	3313
910.8	3629
910.915	3591
911.03	3439
911.145	3298
911.259	3294
911.374	3306
911.489	3283
911.604	3256
911.718	3142
911.833	3180
911.947	3089
912.062	3017
912.176	3199
912.291	3203
912.405	3218
912.519	3473
912.633	3481
912.748	3382
912.862	3310
912.976	3230
913.09	3108
913.204	3169
913.318	3207
913.431	3382
913.545	3351
913.659	3439
913.772	3348
913.886	3275
914	3241
914.113	3389
914.226	3447
914.34	3401
914.453	3279
914.566	3458
914.68	3294
914.793	3340
914.906	3180
915.019	3150
915.132	3081
915.245	3173
915.358	3214
915.47	3245
915.583	3283
915.696	3336
915.809	3401
915.921	3409
916.034	3260
916.146	3260
916.259	3287
916.371	3409
916.483	3393
916.595	3348
916.708	3336
916.82	3367
916.932	3355
917.044	3374
917.156	3359
917.268	3302
917.38	3340
917.491	3298
917.603	3420
917.715	3519
917.826	3485
917.938	3416
918.049	3317
918.161	3462
918.272	3618
918.384	3625
918.495	3526
918.606	3367
918.717	3294
918.828	3428
918.939	3435
919.05	3298
919.161	3416
919.272	3211
919.383	3317
919.494	3545
919.604	3713
919.715	3545
919.826	3450
919.936	3507
920.047	3584
920.157	3576
920.267	3835
920.378	3595
920.488	3572
920.598	3800
920.708	3975
920.818	3812
920.928	3907
921.038	4059
921.148	4006
921.258	3698
921.368	3656
921.477	3587
921.587	3534
921.697	3500
921.806	3679
921.916	3572
922.025	3332
922.134	3405
922.244	3321
922.353	3439
922.462	3294
922.571	3260
922.68	3157
922.789	3093
922.898	3207
923.007	3161
923.116	3218
923.224	3169
923.333	3218
923.442	3146
923.55	3112
923.659	3192
923.767	3283
923.876	3123
923.984	3264
924.092	3138
924.201	3253
924.309	3226
924.417	3268
924.525	3199
924.633	3256
924.741	4002
924.849	3077
924.956	3287
925.064	3097
925.172	3066
925.279	3161
925.387	3222
925.494	3241
925.602	3389
925.709	3336
925.816	3245
925.924	3306
926.031	3409
926.138	3325
926.245	3378
926.352	3279
926.459	3488
926.566	3473
926.673	3348
926.779	3249
926.886	3237
926.993	3180
927.099	3173
927.206	3119
927.312	3154
927.419	3249
927.525	3230
927.631	3302
927.737	3180
927.843	3176
927.95	3047
928.056	3127
928.162	3180
928.267	3287
928.373	3865
928.479	3325
928.585	3093
928.69	3233
928.796	3272
928.901	3188
929.007	3077
929.112	3203
929.218	3249
929.323	3173
929.428	3184
929.533	3344
929.638	3116
929.743	3226
929.848	3287
929.953	3237
930.058	3146
930.163	3020
930.267	3100
930.372	3211
930.477	3070
930.581	3329
930.685	3195
930.79	3077
930.894	3112
930.998	3119
931.103	3283
931.207	2975
931.311	2975
931.415	2963
931.519	2807
931.623	2823
