Data from test_V78500241_45.txt Node
Date: Fri Mar 25 16:15:30 CST 2022
User: usil
Spectrometer: V785-0024
Trigger mode: 0
Integration Time (sec): 4.000000E-1
Scans to average: 1
Nonlinearity correction enabled: false
Boxcar width: 0
Storing dark spectrum: false
XAxis mode: Wavelengths
Number of Pixels in Spectrum: 1024
>>>>>Begin Spectral Data<<<<<
801.071	2922
801.214	2922
801.356	2910
801.499	2944
801.641	2872
801.783	2937
801.926	3104
802.068	3028
802.211	3005
802.353	3055
802.496	2990
802.638	3055
802.78	3104
802.923	3104
803.065	3013
803.208	2906
803.35	2960
803.492	2967
803.635	2929
803.777	2804
803.919	2895
804.061	3226
804.204	2963
804.346	2944
804.488	2906
804.63	2998
804.773	2925
804.915	2948
805.057	3135
805.199	2982
805.341	3009
805.483	3085
805.626	3039
805.768	2971
805.91	3154
806.052	3146
806.194	3051
806.336	3264
806.478	3093
806.62	3005
806.762	3001
806.904	3070
807.046	3173
807.188	3055
807.33	2971
807.472	3005
807.614	2948
807.756	3043
807.898	2979
808.04	2914
808.182	3001
808.324	3009
808.465	2918
808.607	2937
808.749	2823
808.891	2891
809.033	3017
809.174	3005
809.316	2963
809.458	2941
809.6	2819
809.741	2788
809.883	2815
810.025	2895
810.166	2910
810.308	2883
810.45	2910
810.591	2804
810.733	2792
810.875	2853
811.016	2819
811.158	2815
811.299	2823
811.441	2952
811.582	2941
811.724	2842
811.865	2872
812.007	2910
812.148	2880
812.29	2895
812.431	2929
812.573	3001
812.714	2948
812.855	3093
812.997	3097
813.138	3116
813.279	3055
813.421	3047
813.562	2990
813.703	2891
813.845	2933
813.986	2785
814.127	2754
814.268	2857
814.41	2895
814.551	2857
814.692	2918
814.833	2838
814.974	2910
815.115	2979
815.256	2861
815.397	2868
815.539	2899
815.68	2788
815.821	2838
815.962	2971
816.103	2963
816.244	2891
816.385	2929
816.526	2998
816.666	2929
816.807	2800
816.948	2899
817.089	2956
817.23	2887
817.371	2796
817.512	2811
817.653	2857
817.793	2857
817.934	2910
818.075	3001
818.216	3017
818.356	3039
818.497	2914
818.638	2880
818.778	2872
818.919	2826
819.06	2823
819.2	2883
819.341	2834
819.481	2853
819.622	2960
819.762	3131
819.903	3104
820.043	2967
820.184	2952
820.324	2941
820.465	3020
820.605	3047
820.746	3081
820.886	2979
821.026	3157
821.167	3207
821.307	3336
821.447	3332
821.588	3279
821.728	3279
821.868	3230
822.008	3123
822.149	3233
822.289	3306
822.429	3135
822.569	3131
822.709	3264
822.849	3043
822.99	3085
823.13	3203
823.27	3264
823.41	3131
823.55	3195
823.69	3188
823.83	3226
823.97	3127
824.11	3047
824.25	3039
824.389	3085
824.529	3123
824.669	3119
824.809	3230
824.949	3321
825.089	3287
825.228	3161
825.368	3077
825.508	2971
825.648	3013
825.787	3066
825.927	3047
826.067	3001
826.206	3017
826.346	3085
826.485	3112
826.625	3157
826.765	3287
826.904	3260
827.044	3017
827.183	2952
827.323	2902
827.462	3024
827.601	2933
827.741	2944
827.88	2979
828.02	2872
828.159	3013
828.298	3047
828.437	3123
828.577	3085
828.716	3264
828.855	3097
828.994	2922
829.134	2963
829.273	2929
829.412	2925
829.551	2891
829.69	2925
829.829	3036
829.968	3192
830.107	3036
830.246	3047
830.385	2963
830.524	2906
830.663	2868
830.802	2773
830.941	2701
831.08	2697
831.219	2830
831.357	2762
831.496	3017
831.635	2762
831.774	2686
831.913	2693
832.051	2575
832.19	2617
832.329	2705
832.467	2560
832.606	2526
832.744	2598
832.883	2606
833.022	2598
833.16	2705
833.299	2743
833.437	2693
833.576	2750
833.714	2773
833.852	2762
833.991	2762
834.129	2819
834.267	2864
834.406	2826
834.544	2861
834.682	2887
834.821	2880
834.959	3104
835.097	2963
835.235	3138
835.373	3058
835.511	3055
835.65	3024
835.788	3001
835.926	2883
836.064	2826
836.202	2910
836.34	3112
836.478	3188
836.615	3100
836.753	3195
836.891	3230
837.029	3188
837.167	3207
837.305	3135
837.443	3077
837.58	3005
837.718	3176
837.856	3123
837.993	3043
838.131	3146
838.269	3165
838.406	3119
838.544	3104
838.681	2937
838.819	2979
838.956	2838
839.094	2830
839.231	2982
839.369	3017
839.506	3450
839.643	3241
839.781	3051
839.918	3047
840.055	3131
840.193	3100
840.33	3093
840.467	3127
840.604	3184
840.742	3450
840.879	3100
841.016	3074
841.153	3150
841.29	3363
841.427	3287
841.564	3348
841.701	3336
841.838	3253
841.975	3180
842.112	3268
842.249	3154
842.385	3085
842.522	3302
842.659	3123
842.796	3081
842.933	3154
843.069	3055
843.206	3051
843.343	3218
843.479	3150
843.616	3222
843.752	2971
843.889	2925
844.025	3104
844.162	2883
844.298	3112
844.435	2982
844.571	2937
844.708	3089
844.844	3249
844.98	3245
845.117	3226
845.253	3104
845.389	3043
845.525	3127
845.661	3146
845.798	3081
845.934	3176
846.07	3100
846.206	3249
846.342	3310
846.478	3291
846.614	3127
846.75	3070
846.886	3081
847.022	3313
847.158	3195
847.294	3249
847.429	3310
847.565	3253
847.701	3530
847.837	3112
847.972	3066
848.108	3203
848.244	3169
848.379	3051
848.515	2998
848.65	2967
848.786	2982
848.921	3051
849.057	3154
849.192	3173
849.328	3093
849.463	3161
849.598	3089
849.734	3062
849.869	3013
850.004	2967
850.14	2994
850.275	2990
850.41	2902
850.545	2887
850.68	2956
850.815	2982
850.95	3001
851.085	3237
851.22	3112
851.355	3066
851.49	3013
851.625	3028
851.76	3028
851.895	2971
852.03	2906
852.165	3070
852.299	3123
852.434	3199
852.569	3161
852.703	3211
852.838	3272
852.973	3378
853.107	3386
853.242	3188
853.376	3142
853.511	3009
853.645	3077
853.78	3268
853.914	3154
854.048	3161
854.183	3138
854.317	3211
854.451	3329
854.585	3188
854.72	3154
854.854	3230
854.988	3062
855.122	3119
855.256	3001
855.39	3199
855.524	3264
855.658	3203
855.792	3214
855.926	3211
856.06	3256
856.194	3313
856.327	3154
856.461	3100
856.595	3123
856.729	3100
856.862	3230
856.996	3226
857.13	3275
857.263	3245
857.397	3313
857.53	3169
857.664	3211
857.797	3272
857.931	3279
858.064	3199
858.197	3264
858.331	3173
858.464	3142
858.597	3039
858.731	3127
858.864	3165
858.997	3108
859.13	3192
859.263	3230
859.396	3260
859.529	3100
859.662	3097
859.795	3127
859.928	3157
860.061	3287
860.194	3332
860.327	3203
860.46	3127
860.592	3313
860.725	3287
860.858	3272
860.99	3169
861.123	3108
861.256	3119
861.388	3195
861.521	3922
861.653	3039
861.786	3009
861.918	3032
862.05	3066
862.183	3100
862.315	3195
862.447	3237
862.58	3119
862.712	3005
862.844	2933
862.976	3032
863.108	3074
863.24	3321
863.372	2922
863.504	3020
863.636	2967
863.768	3074
863.9	3001
864.032	2986
864.164	2979
864.296	3028
864.428	3093
864.559	3142
864.691	3150
864.823	3051
864.954	3097
865.086	3066
865.217	3039
865.349	2967
865.48	3039
865.612	3055
865.743	3218
865.875	3020
866.006	2994
866.137	2994
866.269	2998
866.4	2967
866.531	2933
866.662	2910
866.793	2937
866.924	2941
867.055	3009
867.186	2952
867.317	2925
867.448	2868
867.579	2872
867.71	2902
867.841	2861
867.972	2941
868.103	2918
868.233	2906
868.364	2899
868.495	2937
868.625	3100
868.756	3199
868.886	3024
869.017	3058
869.147	3169
869.278	3176
869.408	3070
869.539	3070
869.669	3116
869.799	3039
869.929	3157
870.06	3169
870.19	3340
870.32	3306
870.45	3336
870.58	3443
870.71	3469
870.84	3507
870.97	3313
871.1	3253
871.23	3538
871.36	3488
871.489	3428
871.619	3420
871.749	3416
871.879	3462
872.008	3496
872.138	3386
872.267	3336
872.397	3176
872.526	3142
872.656	3081
872.785	3131
872.915	3268
873.044	3359
873.173	3253
873.303	3291
873.432	3279
873.561	3279
873.69	3211
873.819	3195
873.948	3241
874.077	3176
874.206	3074
874.335	3116
874.464	3275
874.593	3393
874.722	3256
874.851	3428
874.979	3374
875.108	3382
875.237	3218
875.365	3199
875.494	3226
875.623	3283
875.751	3104
875.88	3142
876.008	3207
876.136	3275
876.265	3397
876.393	3606
876.521	3496
876.65	3412
876.778	3439
876.906	3298
877.034	3245
877.162	3287
877.29	3180
877.418	3275
877.546	3310
877.674	3272
877.802	3241
877.93	3249
878.058	3226
878.185	3135
878.313	3226
878.441	3275
878.568	3119
878.696	3207
878.824	3279
878.951	3329
879.079	3519
879.206	3633
879.333	3458
879.461	3374
879.588	3351
879.715	3526
879.842	3606
879.97	3424
880.097	3199
880.224	3142
880.351	3214
880.478	3211
880.605	3226
880.732	3256
880.859	3564
880.986	3336
881.112	3386
881.239	3264
881.366	3123
881.493	3066
881.619	3047
881.746	3104
881.872	3138
881.999	3169
882.125	3180
882.252	3287
882.378	3340
882.505	3477
882.631	3283
882.757	3199
882.883	3249
883.01	3241
883.136	3184
883.262	3135
883.388	3173
883.514	3344
883.64	3412
883.766	3325
883.892	3245
884.018	3287
884.143	3450
884.269	3587
884.395	3237
884.52	3207
884.646	3222
884.772	3173
884.897	3138
885.023	3241
885.148	3378
885.274	3416
885.399	3405
885.524	3348
885.65	3302
885.775	3374
885.9	3298
886.025	3462
886.15	3428
886.275	3355
886.4	3306
886.525	3313
886.65	3310
886.775	3340
886.9	3553
887.025	3675
887.149	3431
887.274	3268
887.399	3222
887.523	3256
887.648	3233
887.773	3226
887.897	3409
888.021	3469
888.146	3386
888.27	3462
888.395	3568
888.519	3458
888.643	3523
888.767	3492
888.891	3359
889.015	3287
889.139	3344
889.263	3287
889.387	3439
889.511	3572
889.635	3466
889.759	3359
889.883	3359
890.006	3420
890.13	3538
890.254	3275
890.377	3370
890.501	3268
890.624	3218
890.748	3348
890.871	3226
890.995	3173
891.118	3104
891.241	3195
891.364	3230
891.488	3359
891.611	3203
891.734	3272
891.857	3355
891.98	3306
892.103	3363
892.226	3302
892.349	3226
892.471	3131
892.594	3283
892.717	3340
892.839	3321
892.962	3332
893.085	3424
893.207	3348
893.33	3203
893.452	3253
893.575	3389
893.697	3294
893.819	3515
893.941	3568
894.064	3500
894.186	3294
894.308	3317
894.43	3473
894.552	3568
894.674	3580
894.796	3287
894.918	3374
895.04	3351
895.161	3462
895.283	3382
895.405	3382
895.526	3420
895.648	3500
895.769	3439
895.891	3519
896.012	3523
896.134	3557
896.255	3443
896.376	3435
896.498	3443
896.619	3462
896.74	3389
896.861	3454
896.982	3743
897.103	3918
897.224	3694
897.345	3542
897.466	3458
897.587	3534
897.708	3694
897.828	3587
897.949	3481
898.07	3344
898.19	3477
898.311	3629
898.431	3488
898.552	3534
898.672	3660
898.792	3644
898.913	3568
899.033	3443
899.153	3321
899.273	3287
899.393	3367
899.513	3340
899.633	3378
899.753	3397
899.873	3370
899.993	3435
900.113	3389
900.232	3454
900.352	3409
900.472	3306
900.591	3230
900.711	3332
900.83	3287
900.95	3428
901.069	3526
901.189	3412
901.308	3226
901.427	3150
901.546	3245
901.665	3294
901.784	3370
901.904	3264
902.023	3188
902.141	3051
902.26	3005
902.379	3176
902.498	3112
902.617	3100
902.735	3214
902.854	3291
902.973	3268
903.091	3097
903.21	3077
903.328	3169
903.446	3131
903.565	3119
903.683	3249
903.801	3146
903.919	3268
904.038	3363
904.156	3218
904.274	3340
904.392	3287
904.51	3329
904.627	3344
904.745	3496
904.863	3523
904.981	3287
905.098	3222
905.216	3283
905.334	3351
905.451	3336
905.569	3332
905.686	3466
905.803	3443
905.921	3336
906.038	3515
906.155	3424
906.272	3332
906.389	3370
906.506	3275
906.623	3249
906.74	3367
906.857	3195
906.974	3294
907.091	3481
907.208	3625
907.324	3519
907.441	3435
907.557	3313
907.674	3302
907.79	3237
907.907	3336
908.023	3409
908.139	3450
908.256	3344
908.372	3424
908.488	3393
908.604	3306
908.72	3264
908.836	3321
908.952	3313
909.068	3367
909.184	3534
909.3	3428
909.415	3515
909.531	3515
909.647	3329
909.762	3348
909.878	3279
909.993	3401
910.108	3374
910.224	3382
910.339	3447
910.454	3386
910.57	3363
910.685	3275
910.8	3652
910.915	3568
911.03	3500
911.145	3306
911.259	3321
911.374	3348
911.489	3298
911.604	3272
911.718	3169
911.833	3214
911.947	3077
912.062	3039
912.176	3199
912.291	3218
912.405	3260
912.519	3450
912.633	3507
912.748	3374
912.862	3332
912.976	3173
913.09	3104
913.204	3226
913.318	3279
913.431	3336
913.545	3367
913.659	3428
913.772	3374
913.886	3253
914	3218
914.113	3393
914.226	3477
914.34	3447
914.453	3241
914.566	3466
914.68	3340
914.793	3363
914.906	3165
915.019	3146
915.132	3074
915.245	3203
915.358	3291
915.47	3260
915.583	3272
915.696	3348
915.809	3443
915.921	3447
916.034	3291
916.146	3340
916.259	3253
916.371	3409
916.483	3397
916.595	3351
916.708	3329
916.82	3386
916.932	3367
917.044	3428
917.156	3382
917.268	3298
917.38	3370
917.491	3332
917.603	3428
917.715	3530
917.826	3485
917.938	3454
918.049	3306
918.161	3496
918.272	3622
918.384	3595
918.495	3561
918.606	3374
918.717	3325
918.828	3435
918.939	3473
919.05	3332
919.161	3405
919.272	3192
919.383	3317
919.494	3549
919.604	3732
919.715	3507
919.826	3424
919.936	3504
920.047	3633
920.157	3576
920.267	3808
920.378	3644
920.488	3660
920.598	3835
920.708	3991
920.818	3854
920.928	3918
921.038	4044
921.148	4071
921.258	3781
921.368	3694
921.477	3580
921.587	3580
921.697	3504
921.806	3652
921.916	3564
922.025	3409
922.134	3405
922.244	3367
922.353	3466
922.462	3325
922.571	3287
922.68	3161
922.789	3127
922.898	3199
923.007	3169
923.116	3279
923.224	3188
923.333	3214
923.442	3176
923.55	3146
923.659	3188
923.767	3245
923.876	3165
923.984	3275
924.092	3161
924.201	3230
924.309	3237
924.417	3306
924.525	3195
924.633	3264
924.741	4268
924.849	3070
924.956	3294
925.064	3169
925.172	3051
925.279	3119
925.387	3272
925.494	3226
925.602	3454
925.709	3363
925.816	3249
925.924	3355
926.031	3424
926.138	3340
926.245	3416
926.352	3321
926.459	3454
926.566	3572
926.673	3378
926.779	3306
926.886	3306
926.993	3207
927.099	3176
927.206	3150
927.312	3165
927.419	3253
927.525	3264
927.631	3302
927.737	3192
927.843	3146
927.95	3039
928.056	3165
928.162	3256
928.267	3275
928.373	3762
928.479	3378
928.585	3135
928.69	3249
928.796	3310
928.901	3184
929.007	3074
929.112	3226
929.218	3195
929.323	3192
929.428	3192
929.533	3344
929.638	3161
929.743	3222
929.848	3306
929.953	3226
930.058	3184
930.163	3039
930.267	3089
930.372	3283
930.477	3066
930.581	3378
930.685	3214
930.79	3112
930.894	3142
930.998	3097
931.103	3359
931.207	2994
931.311	2998
931.415	3017
931.519	2807
931.623	2826
