Data from test_V78500241_546.txt Node
Date: Fri Mar 25 16:18:59 CST 2022
User: usil
Spectrometer: V785-0024
Trigger mode: 0
Integration Time (sec): 4.000000E-1
Scans to average: 1
Nonlinearity correction enabled: false
Boxcar width: 0
Storing dark spectrum: false
XAxis mode: Wavelengths
Number of Pixels in Spectrum: 1024
>>>>>Begin Spectral Data<<<<<
801.071	2902
801.214	2948
801.356	2880
801.499	2891
801.641	2868
801.783	2937
801.926	3066
802.068	2963
802.211	3001
802.353	3009
802.496	2937
802.638	2986
802.78	3028
802.923	3070
803.065	2994
803.208	2838
803.35	2910
803.492	2887
803.635	2902
803.777	2788
803.919	2849
804.061	3176
804.204	2925
804.346	2876
804.488	2811
804.63	3028
804.773	2880
804.915	2944
805.057	3058
805.199	2952
805.341	2998
805.483	3039
805.626	3017
805.768	2956
805.91	3089
806.052	3112
806.194	3062
806.336	3245
806.478	3017
806.62	2975
806.762	2967
806.904	3036
807.046	3173
807.188	3005
807.33	2941
807.472	2963
807.614	2887
807.756	2967
807.898	2956
808.04	2895
808.182	2998
808.324	2929
808.465	2883
808.607	2861
808.749	2804
808.891	2834
809.033	2975
809.174	2941
809.316	2883
809.458	2880
809.6	2743
809.741	2777
809.883	2777
810.025	2857
810.166	2891
810.308	2838
810.45	2830
810.591	2750
810.733	2743
810.875	2842
811.016	2758
811.158	2766
811.299	2804
811.441	2902
811.582	2895
811.724	2815
811.865	2861
812.007	2868
812.148	2880
812.29	2845
812.431	2899
812.573	2944
812.714	2948
812.855	3017
812.997	3055
813.138	3123
813.279	3047
813.421	2956
813.562	2948
813.703	2861
813.845	2876
813.986	2758
814.127	2727
814.268	2834
814.41	2819
814.551	2811
814.692	2872
814.833	2849
814.974	2880
815.115	2982
815.256	2815
815.397	2800
815.539	2895
815.68	2766
815.821	2785
815.962	2990
816.103	2944
816.244	2876
816.385	2861
816.526	2948
816.666	2883
816.807	2735
816.948	2868
817.089	2922
817.23	2845
817.371	2796
817.512	2788
817.653	2842
817.793	2842
817.934	2857
818.075	2952
818.216	3017
818.356	3005
818.497	2902
818.638	2785
818.778	2788
818.919	2773
819.06	2762
819.2	2883
819.341	2781
819.481	2819
819.622	2937
819.762	3074
819.903	3043
820.043	2891
820.184	2902
820.324	2887
820.465	3017
820.605	3043
820.746	3032
820.886	2922
821.026	3093
821.167	3176
821.307	3260
821.447	3283
821.588	3245
821.728	3199
821.868	3180
822.008	3070
822.149	3176
822.289	3245
822.429	3062
822.569	3077
822.709	3192
822.849	3005
822.99	3051
823.13	3161
823.27	3154
823.41	3077
823.55	3161
823.69	3176
823.83	3176
823.97	3093
824.11	3005
824.25	2990
824.389	3047
824.529	3104
824.669	3074
824.809	3211
824.949	3253
825.089	3195
825.228	3157
825.368	2986
825.508	2975
825.648	2963
825.787	3036
825.927	3020
826.067	2979
826.206	2929
826.346	3028
826.485	3081
826.625	3108
826.765	3275
826.904	3230
827.044	2994
827.183	2910
827.323	2880
827.462	2914
827.601	2899
827.741	2933
827.88	2963
828.02	2823
828.159	2963
828.298	3028
828.437	3146
828.577	3036
828.716	3222
828.855	3097
828.994	2922
829.134	2880
829.273	2918
829.412	2876
829.551	2842
829.69	2876
829.829	2979
829.968	3108
830.107	3017
830.246	2975
830.385	2899
830.524	2868
830.663	2838
830.802	2743
830.941	2644
831.08	2636
831.219	2762
831.357	2743
831.496	2963
831.635	2724
831.774	2625
831.913	2659
832.051	2522
832.19	2583
832.329	2686
832.467	2568
832.606	2431
832.744	2549
832.883	2598
833.022	2598
833.16	2655
833.299	2701
833.437	2686
833.576	2678
833.714	2678
833.852	2769
833.991	2720
834.129	2807
834.267	2834
834.406	2834
834.544	2842
834.682	2868
834.821	2872
834.959	3066
835.097	2872
835.235	2986
835.373	2990
835.511	2990
835.65	2952
835.788	2967
835.926	2815
836.064	2826
836.202	2849
836.34	3100
836.478	3135
836.615	3043
836.753	3108
836.891	3192
837.029	3157
837.167	3100
837.305	3066
837.443	3055
837.58	2918
837.718	3135
837.856	3074
837.993	3024
838.131	3154
838.269	3108
838.406	3100
838.544	3093
838.681	2952
838.819	2887
838.956	2826
839.094	2811
839.231	2899
839.369	3032
839.506	3344
839.643	3230
839.781	3005
839.918	2948
840.055	3036
840.193	3047
840.33	3062
840.467	3085
840.604	3138
840.742	3378
840.879	3020
841.016	3043
841.153	3123
841.29	3317
841.427	3291
841.564	3241
841.701	3275
841.838	3233
841.975	3176
842.112	3207
842.249	3089
842.385	3039
842.522	3245
842.659	3058
842.796	3066
842.933	3093
843.069	3070
843.206	3032
843.343	3142
843.479	3112
843.616	3154
843.752	2918
843.889	2872
844.025	3081
844.162	2861
844.298	3039
844.435	2956
844.571	2899
844.708	3081
844.844	3207
844.98	3230
845.117	3161
845.253	3043
845.389	3009
845.525	3108
845.661	3074
845.798	3036
845.934	3104
846.07	3028
846.206	3218
846.342	3268
846.478	3184
846.614	3089
846.75	3039
846.886	2994
847.022	3233
847.158	3146
847.294	3233
847.429	3233
847.565	3214
847.701	3443
847.837	3028
847.972	3005
848.108	3157
848.244	3112
848.379	3005
848.515	2922
848.65	2944
848.786	2971
848.921	2998
849.057	3104
849.192	3154
849.328	3036
849.463	3116
849.598	3043
849.734	3005
849.869	2948
850.004	2910
850.14	2986
850.275	2914
850.41	2868
850.545	2895
850.68	2918
850.815	2963
850.95	2963
851.085	3192
851.22	3089
851.355	3062
851.49	2967
851.625	3017
851.76	2967
851.895	2922
852.03	2891
852.165	3066
852.299	3066
852.434	3161
852.569	3142
852.703	3195
852.838	3211
852.973	3348
853.107	3348
853.242	3180
853.376	3051
853.511	2979
853.645	3047
853.78	3233
853.914	3112
854.048	3074
854.183	3074
854.317	3131
854.451	3291
854.585	3119
854.72	3123
854.854	3199
854.988	3020
855.122	3097
855.256	2956
855.39	3089
855.524	3211
855.658	3188
855.792	3142
855.926	3199
856.06	3207
856.194	3218
856.327	3142
856.461	3055
856.595	3062
856.729	3112
856.862	3214
856.996	3127
857.13	3241
857.263	3222
857.397	3245
857.53	3131
857.664	3214
857.797	3264
857.931	3268
858.064	3173
858.197	3237
858.331	3173
858.464	3058
858.597	3005
858.731	3131
858.864	3146
858.997	3024
859.13	3154
859.263	3165
859.396	3211
859.529	3108
859.662	3028
859.795	3013
859.928	3119
860.061	3275
860.194	3264
860.327	3138
860.46	3066
860.592	3237
860.725	3249
860.858	3291
860.99	3100
861.123	3089
861.256	3047
861.388	3154
861.521	3804
861.653	2986
861.786	2979
861.918	3001
862.05	3085
862.183	3138
862.315	3127
862.447	3211
862.58	3058
862.712	2937
862.844	2895
862.976	3039
863.108	2986
863.24	3386
863.372	2857
863.504	2967
863.636	2922
863.768	3013
863.9	3005
864.032	2895
864.164	2895
864.296	2982
864.428	3051
864.559	3089
864.691	3085
864.823	3009
864.954	3013
865.086	3028
865.217	2986
865.349	2929
865.48	2975
865.612	2990
865.743	3131
865.875	2944
866.006	2952
866.137	2948
866.269	2902
866.4	2937
866.531	2910
866.662	2857
866.793	2910
866.924	2895
867.055	2982
867.186	2906
867.317	2868
867.448	2819
867.579	2826
867.71	2849
867.841	2811
867.972	2895
868.103	2868
868.233	2857
868.364	2868
868.495	2891
868.625	3093
868.756	3180
868.886	2960
869.017	3001
869.147	3146
869.278	3150
869.408	3051
869.539	3013
869.669	3100
869.799	3001
869.929	3169
870.06	3097
870.19	3279
870.32	3302
870.45	3325
870.58	3386
870.71	3443
870.84	3431
870.97	3268
871.1	3241
871.23	3469
871.36	3443
871.489	3329
871.619	3405
871.749	3389
871.879	3405
872.008	3447
872.138	3344
872.267	3325
872.397	3131
872.526	3104
872.656	3005
872.785	3135
872.915	3256
873.044	3310
873.173	3188
873.303	3260
873.432	3226
873.561	3241
873.69	3138
873.819	3157
873.948	3203
874.077	3104
874.206	3055
874.335	3100
874.464	3226
874.593	3336
874.722	3226
874.851	3359
874.979	3313
875.108	3302
875.237	3199
875.365	3157
875.494	3138
875.623	3218
875.751	3051
875.88	3108
876.008	3154
876.136	3241
876.265	3351
876.393	3526
876.521	3431
876.65	3367
876.778	3317
876.906	3256
877.034	3188
877.162	3214
877.29	3173
877.418	3253
877.546	3237
877.674	3218
877.802	3184
877.93	3233
878.058	3146
878.185	3093
878.313	3207
878.441	3207
878.568	3058
878.696	3161
878.824	3222
878.951	3264
879.079	3435
879.206	3599
879.333	3431
879.461	3306
879.588	3355
879.715	3488
879.842	3553
879.97	3382
880.097	3173
880.224	3108
880.351	3199
880.478	3188
880.605	3161
880.732	3214
880.859	3523
880.986	3294
881.112	3332
881.239	3207
881.366	3081
881.493	3017
881.619	3020
881.746	3062
881.872	3070
881.999	3077
882.125	3142
882.252	3260
882.378	3310
882.505	3439
882.631	3260
882.757	3195
882.883	3230
883.01	3184
883.136	3157
883.262	3135
883.388	3138
883.514	3313
883.64	3382
883.766	3332
883.892	3173
884.018	3233
884.143	3409
884.269	3538
884.395	3218
884.52	3157
884.646	3173
884.772	3150
884.897	3104
885.023	3192
885.148	3317
885.274	3428
885.399	3389
885.524	3306
885.65	3253
885.775	3294
885.9	3268
886.025	3389
886.15	3340
886.275	3340
886.4	3241
886.525	3291
886.65	3264
886.775	3256
886.9	3523
887.025	3629
887.149	3370
887.274	3253
887.399	3142
887.523	3207
887.648	3180
887.773	3184
887.897	3412
888.021	3378
888.146	3287
888.27	3420
888.395	3557
888.519	3469
888.643	3450
888.767	3447
888.891	3313
889.015	3199
889.139	3264
889.263	3275
889.387	3370
889.511	3530
889.635	3447
889.759	3298
889.883	3298
890.006	3382
890.13	3485
890.254	3268
890.377	3321
890.501	3203
890.624	3184
890.748	3264
890.871	3169
890.995	3100
891.118	3070
891.241	3165
891.364	3214
891.488	3317
891.611	3222
891.734	3203
891.857	3294
891.98	3245
892.103	3332
892.226	3241
892.349	3211
892.471	3085
892.594	3226
892.717	3306
892.839	3260
892.962	3275
893.085	3332
893.207	3279
893.33	3161
893.452	3184
893.575	3332
893.697	3245
893.819	3473
893.941	3534
894.064	3462
894.186	3253
894.308	3245
894.43	3397
894.552	3534
894.674	3473
894.796	3294
894.918	3321
895.04	3272
895.161	3416
895.283	3355
895.405	3306
895.526	3367
895.648	3405
895.769	3412
895.891	3424
896.012	3447
896.134	3462
896.255	3420
896.376	3378
896.498	3329
896.619	3431
896.74	3359
896.861	3397
896.982	3644
897.103	3819
897.224	3606
897.345	3500
897.466	3420
897.587	3485
897.708	3629
897.828	3534
897.949	3401
898.07	3329
898.19	3420
898.311	3580
898.431	3443
898.552	3507
898.672	3580
898.792	3545
898.913	3507
899.033	3424
899.153	3272
899.273	3226
899.393	3260
899.513	3298
899.633	3287
899.753	3310
899.873	3329
899.993	3393
900.113	3340
900.232	3363
900.352	3313
900.472	3298
900.591	3192
900.711	3287
900.83	3226
900.95	3386
901.069	3473
901.189	3321
901.308	3150
901.427	3127
901.546	3184
901.665	3279
901.784	3332
901.904	3192
902.023	3138
902.141	3036
902.26	2986
902.379	3085
902.498	3108
902.617	3066
902.735	3176
902.854	3226
902.973	3184
903.091	2998
903.21	3085
903.328	3142
903.446	3131
903.565	3085
903.683	3173
903.801	3108
903.919	3249
904.038	3291
904.156	3180
904.274	3306
904.392	3222
904.51	3283
904.627	3340
904.745	3447
904.863	3519
904.981	3253
905.098	3192
905.216	3237
905.334	3260
905.451	3275
905.569	3310
905.686	3397
905.803	3466
905.921	3245
906.038	3412
906.155	3306
906.272	3287
906.389	3336
906.506	3256
906.623	3226
906.74	3287
906.857	3173
906.974	3245
907.091	3416
907.208	3553
907.324	3447
907.441	3370
907.557	3226
907.674	3211
907.79	3218
907.907	3279
908.023	3370
908.139	3363
908.256	3359
908.372	3340
908.488	3367
908.604	3275
908.72	3226
908.836	3264
908.952	3317
909.068	3321
909.184	3462
909.3	3382
909.415	3488
909.531	3458
909.647	3241
909.762	3283
909.878	3283
909.993	3367
910.108	3340
910.224	3336
910.339	3450
910.454	3367
910.57	3275
910.685	3249
910.8	3587
910.915	3526
911.03	3435
911.145	3264
911.259	3256
911.374	3294
911.489	3214
911.604	3222
911.718	3123
911.833	3146
911.947	3039
912.062	2975
912.176	3165
912.291	3192
912.405	3199
912.519	3389
912.633	3473
912.748	3321
912.862	3268
912.976	3192
913.09	3055
913.204	3123
913.318	3184
913.431	3325
913.545	3344
913.659	3397
913.772	3351
913.886	3195
914	3176
914.113	3378
914.226	3443
914.34	3348
914.453	3260
914.566	3374
914.68	3291
914.793	3325
914.906	3146
915.019	3089
915.132	3100
915.245	3203
915.358	3207
915.47	3211
915.583	3256
915.696	3283
915.809	3374
915.921	3443
916.034	3241
916.146	3272
916.259	3211
916.371	3386
916.483	3370
916.595	3249
916.708	3348
916.82	3321
916.932	3317
917.044	3348
917.156	3370
917.268	3237
917.38	3268
917.491	3298
917.603	3378
917.715	3405
917.826	3428
917.938	3393
918.049	3268
918.161	3420
918.272	3572
918.384	3564
918.495	3485
918.606	3287
918.717	3332
918.828	3359
918.939	3397
919.05	3287
919.161	3412
919.272	3192
919.383	3275
919.494	3477
919.604	3675
919.715	3545
919.826	3397
919.936	3447
920.047	3606
920.157	3561
920.267	3770
920.378	3648
920.488	3572
920.598	3751
920.708	3960
920.818	3808
920.928	3835
921.038	3983
921.148	3991
921.258	3698
921.368	3648
921.477	3576
921.587	3549
921.697	3454
921.806	3622
921.916	3530
922.025	3389
922.134	3386
922.244	3317
922.353	3412
922.462	3268
922.571	3214
922.68	3142
922.789	3093
922.898	3142
923.007	3081
923.116	3218
923.224	3176
923.333	3176
923.442	3104
923.55	3062
923.659	3093
923.767	3260
923.876	3108
923.984	3199
924.092	3074
924.201	3192
924.309	3253
924.417	3233
924.525	3184
924.633	3214
924.741	4013
924.849	3047
924.956	3272
925.064	3077
925.172	3036
925.279	3085
925.387	3199
925.494	3188
925.602	3393
925.709	3340
925.816	3154
925.924	3279
926.031	3355
926.138	3317
926.245	3374
926.352	3268
926.459	3420
926.566	3435
926.673	3321
926.779	3253
926.886	3256
926.993	3154
927.099	3119
927.206	3131
927.312	3127
927.419	3222
927.525	3211
927.631	3256
927.737	3173
927.843	3093
927.95	3055
928.056	3138
928.162	3195
928.267	3237
928.373	3808
928.479	3283
928.585	3074
928.69	3245
928.796	3272
928.901	3214
929.007	3024
929.112	3203
929.218	3173
929.323	3157
929.428	3138
929.533	3348
929.638	3123
929.743	3176
929.848	3302
929.953	3249
930.058	3135
930.163	2975
930.267	3058
930.372	3195
930.477	3043
930.581	3325
930.685	3154
930.79	3066
930.894	3112
930.998	3066
931.103	3272
931.207	2918
931.311	2948
931.415	2925
931.519	2762
931.623	2804
