Data from test_V78500241_378.txt Node
Date: Fri Mar 25 16:17:49 CST 2022
User: usil
Spectrometer: V785-0024
Trigger mode: 0
Integration Time (sec): 4.000000E-1
Scans to average: 1
Nonlinearity correction enabled: false
Boxcar width: 0
Storing dark spectrum: false
XAxis mode: Wavelengths
Number of Pixels in Spectrum: 1024
>>>>>Begin Spectral Data<<<<<
801.071	2895
801.214	2967
801.356	2838
801.499	2914
801.641	2876
801.783	2944
801.926	3066
802.068	2971
802.211	2994
802.353	3062
802.496	2952
802.638	2986
802.78	3043
802.923	3081
803.065	3017
803.208	2891
803.35	2906
803.492	2910
803.635	2902
803.777	2781
803.919	2842
804.061	3218
804.204	2933
804.346	2880
804.488	2853
804.63	2982
804.773	2857
804.915	2902
805.057	3066
805.199	2922
805.341	2975
805.483	3032
805.626	2982
805.768	2952
805.91	3081
806.052	3127
806.194	2994
806.336	3249
806.478	3024
806.62	2975
806.762	2967
806.904	3047
807.046	3146
807.188	2994
807.33	2918
807.472	3020
807.614	2922
807.756	2994
807.898	2883
808.04	2891
808.182	2925
808.324	2929
808.465	2849
808.607	2857
808.749	2781
808.891	2853
809.033	2979
809.174	2971
809.316	2902
809.458	2872
809.6	2800
809.741	2743
809.883	2800
810.025	2838
810.166	2849
810.308	2838
810.45	2853
810.591	2785
810.733	2754
810.875	2815
811.016	2739
811.158	2773
811.299	2807
811.441	2922
811.582	2883
811.724	2804
811.865	2868
812.007	2902
812.148	2842
812.29	2849
812.431	2906
812.573	2944
812.714	2986
812.855	3032
812.997	3066
813.138	3135
813.279	3005
813.421	3005
813.562	2960
813.703	2857
813.845	2895
813.986	2785
814.127	2705
814.268	2811
814.41	2819
814.551	2826
814.692	2853
814.833	2826
814.974	2906
815.115	2929
815.256	2834
815.397	2785
815.539	2830
815.68	2769
815.821	2811
815.962	2929
816.103	2914
816.244	2857
816.385	2853
816.526	2952
816.666	2887
816.807	2750
816.948	2895
817.089	2922
817.23	2834
817.371	2785
817.512	2807
817.653	2857
817.793	2819
817.934	2857
818.075	2963
818.216	2975
818.356	3047
818.497	2887
818.638	2796
818.778	2838
818.919	2762
819.06	2773
819.2	2899
819.341	2823
819.481	2792
819.622	2902
819.762	3085
819.903	3043
820.043	2941
820.184	2899
820.324	2883
820.465	2998
820.605	3013
820.746	3043
820.886	2914
821.026	3070
821.167	3150
821.307	3283
821.447	3264
821.588	3226
821.728	3195
821.868	3188
822.008	3055
822.149	3203
822.289	3214
822.429	3108
822.569	3089
822.709	3195
822.849	3001
822.99	3055
823.13	3138
823.27	3211
823.41	3119
823.55	3135
823.69	3169
823.83	3180
823.97	3123
824.11	2975
824.25	3032
824.389	3062
824.529	3093
824.669	3066
824.809	3184
824.949	3256
825.089	3195
825.228	3157
825.368	3017
825.508	2944
825.648	2956
825.787	3055
825.927	2990
826.067	2963
826.206	2933
826.346	3028
826.485	3070
826.625	3097
826.765	3249
826.904	3154
827.044	2994
827.183	2918
827.323	2861
827.462	2941
827.601	2918
827.741	2906
827.88	2925
828.02	2857
828.159	2967
828.298	3036
828.437	3077
828.577	3028
828.716	3260
828.855	3077
828.994	2899
829.134	2872
829.273	2956
829.412	2876
829.551	2849
829.69	2899
829.829	2967
829.968	3112
830.107	3024
830.246	3013
830.385	2899
830.524	2842
830.663	2823
830.802	2727
830.941	2636
831.08	2632
831.219	2766
831.357	2781
831.496	2944
831.635	2701
831.774	2655
831.913	2655
832.051	2530
832.19	2552
832.329	2689
832.467	2526
832.606	2495
832.744	2594
832.883	2583
833.022	2560
833.16	2655
833.299	2701
833.437	2689
833.576	2693
833.714	2712
833.852	2739
833.991	2773
834.129	2853
834.267	2830
834.406	2769
834.544	2823
834.682	2857
834.821	2876
834.959	3051
835.097	2922
835.235	3028
835.373	3028
835.511	3020
835.65	2948
835.788	2944
835.926	2823
836.064	2819
836.202	2838
836.34	3043
836.478	3123
836.615	3051
836.753	3119
836.891	3184
837.029	3173
837.167	3066
837.305	3097
837.443	3043
837.58	3005
837.718	3085
837.856	3058
837.993	3009
838.131	3123
838.269	3077
838.406	3074
838.544	3074
838.681	2914
838.819	2933
838.956	2834
839.094	2811
839.231	2887
839.369	3009
839.506	3332
839.643	3154
839.781	2979
839.918	2944
840.055	3032
840.193	3032
840.33	3093
840.467	3119
840.604	3119
840.742	3389
840.879	3017
841.016	3020
841.153	3108
841.29	3287
841.427	3291
841.564	3230
841.701	3348
841.838	3203
841.975	3195
842.112	3230
842.249	3074
842.385	3009
842.522	3245
842.659	3062
842.796	3058
842.933	3081
843.069	3051
843.206	3036
843.343	3165
843.479	3085
843.616	3127
843.752	2895
843.889	2861
844.025	3039
844.162	2853
844.298	3047
844.435	2922
844.571	2925
844.708	3104
844.844	3173
844.98	3218
845.117	3188
845.253	3074
845.389	3047
845.525	3055
845.661	3116
845.798	3036
845.934	3119
846.07	3074
846.206	3195
846.342	3279
846.478	3241
846.614	3074
846.75	3047
846.886	3020
847.022	3245
847.158	3131
847.294	3199
847.429	3249
847.565	3165
847.701	3473
847.837	3009
847.972	2975
848.108	3157
848.244	3104
848.379	2975
848.515	2941
848.65	2944
848.786	2948
848.921	3013
849.057	3093
849.192	3154
849.328	3047
849.463	3066
849.598	3074
849.734	3058
849.869	2990
850.004	2899
850.14	2979
850.275	2872
850.41	2834
850.545	2883
850.68	2944
850.815	2948
850.95	2956
851.085	3176
851.22	3089
851.355	3028
851.49	2971
851.625	3005
851.76	3024
851.895	2952
852.03	2895
852.165	3024
852.299	3119
852.434	3188
852.569	3150
852.703	3138
852.838	3233
852.973	3321
853.107	3306
853.242	3161
853.376	3119
853.511	2982
853.645	3017
853.78	3203
853.914	3100
854.048	3097
854.183	3085
854.317	3154
854.451	3302
854.585	3157
854.72	3085
854.854	3207
854.988	3051
855.122	3123
855.256	2975
855.39	3081
855.524	3245
855.658	3184
855.792	3176
855.926	3169
856.06	3218
856.194	3279
856.327	3135
856.461	3047
856.595	3070
856.729	3070
856.862	3180
856.996	3123
857.13	3138
857.263	3173
857.397	3260
857.53	3100
857.664	3150
857.797	3203
857.931	3222
858.064	3112
858.197	3188
858.331	3127
858.464	3119
858.597	3001
858.731	3119
858.864	3112
858.997	3070
859.13	3116
859.263	3150
859.396	3226
859.529	3097
859.662	3051
859.795	3043
859.928	3138
860.061	3249
860.194	3237
860.327	3112
860.46	3097
860.592	3253
860.725	3253
860.858	3256
860.99	3074
861.123	3036
861.256	3055
861.388	3138
861.521	3857
861.653	3039
861.786	2998
861.918	2960
862.05	3074
862.183	3089
862.315	3123
862.447	3192
862.58	3039
862.712	2918
862.844	2880
862.976	3005
863.108	2967
863.24	3431
863.372	2895
863.504	2967
863.636	2960
863.768	3013
863.9	2963
864.032	2925
864.164	2941
864.296	3047
864.428	3093
864.559	3089
864.691	3058
864.823	3028
864.954	3051
865.086	3005
865.217	2994
865.349	2918
865.48	2960
865.612	2971
865.743	3154
865.875	2963
866.006	2952
866.137	2956
866.269	2937
866.4	2967
866.531	2975
866.662	2887
866.793	2895
866.924	2880
867.055	2979
867.186	2944
867.317	2838
867.448	2807
867.579	2838
867.71	2834
867.841	2811
867.972	2914
868.103	2944
868.233	2902
868.364	2849
868.495	2887
868.625	3081
868.756	3154
868.886	2948
869.017	3020
869.147	3154
869.278	3135
869.408	2998
869.539	3028
869.669	3089
869.799	3028
869.929	3104
870.06	3135
870.19	3279
870.32	3321
870.45	3298
870.58	3374
870.71	3458
870.84	3416
870.97	3287
871.1	3249
871.23	3504
871.36	3458
871.489	3294
871.619	3405
871.749	3428
871.879	3409
872.008	3428
872.138	3348
872.267	3291
872.397	3161
872.526	3123
872.656	2982
872.785	3135
872.915	3249
873.044	3298
873.173	3230
873.303	3245
873.432	3214
873.561	3207
873.69	3123
873.819	3146
873.948	3233
874.077	3119
874.206	3001
874.335	3081
874.464	3214
874.593	3294
874.722	3230
874.851	3367
874.979	3351
875.108	3253
875.237	3230
875.365	3165
875.494	3135
875.623	3222
875.751	3043
875.88	3142
876.008	3188
876.136	3222
876.265	3378
876.393	3492
876.521	3416
876.65	3355
876.778	3336
876.906	3226
877.034	3188
877.162	3249
877.29	3165
877.418	3275
877.546	3241
877.674	3214
877.802	3249
877.93	3218
878.058	3119
878.185	3123
878.313	3207
878.441	3222
878.568	3074
878.696	3157
878.824	3222
878.951	3336
879.079	3466
879.206	3644
879.333	3420
879.461	3329
879.588	3351
879.715	3485
879.842	3561
879.97	3367
880.097	3188
880.224	3119
880.351	3195
880.478	3211
880.605	3150
880.732	3195
880.859	3504
880.986	3298
881.112	3313
881.239	3192
881.366	3097
881.493	3039
881.619	3051
881.746	3028
881.872	3081
881.999	3070
882.125	3135
882.252	3237
882.378	3279
882.505	3435
882.631	3287
882.757	3154
882.883	3188
883.01	3195
883.136	3165
883.262	3055
883.388	3127
883.514	3321
883.64	3332
883.766	3291
883.892	3180
884.018	3218
884.143	3401
884.269	3561
884.395	3230
884.52	3192
884.646	3176
884.772	3104
884.897	3093
885.023	3211
885.148	3329
885.274	3447
885.399	3367
885.524	3272
885.65	3275
885.775	3294
885.9	3283
886.025	3431
886.15	3393
886.275	3249
886.4	3203
886.525	3264
886.65	3291
886.775	3253
886.9	3496
887.025	3637
887.149	3329
887.274	3222
887.399	3188
887.523	3165
887.648	3157
887.773	3165
887.897	3401
888.021	3363
888.146	3279
888.27	3412
888.395	3526
888.519	3416
888.643	3462
888.767	3473
888.891	3291
889.015	3260
889.139	3298
889.263	3245
889.387	3386
889.511	3492
889.635	3458
889.759	3317
889.883	3302
890.006	3386
890.13	3485
890.254	3283
890.377	3306
890.501	3161
890.624	3230
890.748	3302
890.871	3192
890.995	3085
891.118	3081
891.241	3184
891.364	3211
891.488	3302
891.611	3169
891.734	3199
891.857	3298
891.98	3230
892.103	3329
892.226	3279
892.349	3173
892.471	3074
892.594	3214
892.717	3294
892.839	3245
892.962	3294
893.085	3397
893.207	3264
893.33	3131
893.452	3180
893.575	3409
893.697	3226
893.819	3466
893.941	3500
894.064	3458
894.186	3233
894.308	3264
894.43	3466
894.552	3549
894.674	3481
894.796	3249
894.918	3275
895.04	3253
895.161	3435
895.283	3386
895.405	3298
895.526	3332
895.648	3420
895.769	3435
895.891	3458
896.012	3447
896.134	3454
896.255	3412
896.376	3397
896.498	3389
896.619	3382
896.74	3386
896.861	3397
896.982	3694
897.103	3869
897.224	3603
897.345	3507
897.466	3416
897.587	3500
897.708	3641
897.828	3500
897.949	3473
898.07	3313
898.19	3431
898.311	3591
898.431	3420
898.552	3488
898.672	3576
898.792	3599
898.913	3542
899.033	3378
899.153	3302
899.273	3241
899.393	3298
899.513	3302
899.633	3275
899.753	3359
899.873	3283
899.993	3359
900.113	3344
900.232	3336
900.352	3291
900.472	3268
900.591	3241
900.711	3253
900.83	3241
900.95	3382
901.069	3492
901.189	3370
901.308	3180
901.427	3116
901.546	3180
901.665	3359
901.784	3317
901.904	3199
902.023	3142
902.141	3024
902.26	2994
902.379	3161
902.498	3066
902.617	3032
902.735	3154
902.854	3268
902.973	3218
903.091	3032
903.21	3051
903.328	3100
903.446	3097
903.565	3108
903.683	3188
903.801	3116
903.919	3283
904.038	3279
904.156	3165
904.274	3298
904.392	3249
904.51	3302
904.627	3310
904.745	3447
904.863	3466
904.981	3272
905.098	3169
905.216	3199
905.334	3272
905.451	3268
905.569	3279
905.686	3443
905.803	3424
905.921	3272
906.038	3405
906.155	3359
906.272	3291
906.389	3302
906.506	3230
906.623	3226
906.74	3264
906.857	3203
906.974	3260
907.091	3477
907.208	3568
907.324	3447
907.441	3386
907.557	3195
907.674	3237
907.79	3184
907.907	3291
908.023	3351
908.139	3378
908.256	3313
908.372	3370
908.488	3336
908.604	3294
908.72	3245
908.836	3275
908.952	3264
909.068	3340
909.184	3469
909.3	3397
909.415	3538
909.531	3473
909.647	3233
909.762	3264
909.878	3233
909.993	3355
910.108	3298
910.224	3340
910.339	3405
910.454	3329
910.57	3294
910.685	3203
910.8	3572
910.915	3492
911.03	3424
911.145	3237
911.259	3222
911.374	3332
911.489	3237
911.604	3218
911.718	3169
911.833	3173
911.947	3055
912.062	2956
912.176	3135
912.291	3161
912.405	3207
912.519	3412
912.633	3447
912.748	3336
912.862	3249
912.976	3157
913.09	3116
913.204	3173
913.318	3230
913.431	3325
913.545	3294
913.659	3435
913.772	3336
913.886	3188
914	3233
914.113	3329
914.226	3435
914.34	3348
914.453	3199
914.566	3412
914.68	3260
914.793	3283
914.906	3131
915.019	3138
915.132	3055
915.245	3154
915.358	3184
915.47	3214
915.583	3272
915.696	3241
915.809	3382
915.921	3348
916.034	3233
916.146	3249
916.259	3233
916.371	3348
916.483	3344
916.595	3249
916.708	3344
916.82	3367
916.932	3313
917.044	3340
917.156	3317
917.268	3253
917.38	3291
917.491	3264
917.603	3355
917.715	3389
917.826	3462
917.938	3374
918.049	3241
918.161	3431
918.272	3553
918.384	3545
918.495	3462
918.606	3283
918.717	3260
918.828	3363
918.939	3416
919.05	3272
919.161	3370
919.272	3207
919.383	3253
919.494	3549
919.604	3660
919.715	3481
919.826	3412
919.936	3454
920.047	3599
920.157	3549
920.267	3770
920.378	3671
920.488	3603
920.598	3823
920.708	3972
920.818	3804
920.928	3857
921.038	4017
921.148	4063
921.258	3766
921.368	3648
921.477	3610
921.587	3561
921.697	3507
921.806	3667
921.916	3580
922.025	3397
922.134	3424
922.244	3367
922.353	3462
922.462	3310
922.571	3230
922.68	3161
922.789	3123
922.898	3150
923.007	3108
923.116	3253
923.224	3226
923.333	3222
923.442	3135
923.55	3154
923.659	3195
923.767	3268
923.876	3161
923.984	3291
924.092	3154
924.201	3256
924.309	3230
924.417	3275
924.525	3207
924.633	3294
924.741	4223
924.849	3097
924.956	3336
925.064	3150
925.172	3081
925.279	3116
925.387	3211
925.494	3199
925.602	3393
925.709	3363
925.816	3260
925.924	3302
926.031	3447
926.138	3359
926.245	3454
926.352	3268
926.459	3431
926.566	3511
926.673	3348
926.779	3313
926.886	3264
926.993	3180
927.099	3173
927.206	3169
927.312	3169
927.419	3279
927.525	3253
927.631	3329
927.737	3165
927.843	3146
927.95	3062
928.056	3199
928.162	3207
928.267	3287
928.373	3926
928.479	3359
928.585	3108
928.69	3249
928.796	3355
928.901	3207
929.007	3116
929.112	3249
929.218	3214
929.323	3173
929.428	3195
929.533	3306
929.638	3180
929.743	3192
929.848	3298
929.953	3264
930.058	3184
930.163	3020
930.267	3104
930.372	3233
930.477	3062
930.581	3382
930.685	3214
930.79	3062
930.894	3165
930.998	3135
931.103	3264
931.207	2975
931.311	3001
931.415	2990
931.519	2785
931.623	2864
