Data from test_V78500241_304.txt Node
Date: Fri Mar 25 16:17:18 CST 2022
User: usil
Spectrometer: V785-0024
Trigger mode: 0
Integration Time (sec): 4.000000E-1
Scans to average: 1
Nonlinearity correction enabled: false
Boxcar width: 0
Storing dark spectrum: false
XAxis mode: Wavelengths
Number of Pixels in Spectrum: 1024
>>>>>Begin Spectral Data<<<<<
801.071	2914
801.214	2937
801.356	2880
801.499	2887
801.641	2845
801.783	2941
801.926	3055
802.068	2929
802.211	2986
802.353	3028
802.496	2960
802.638	3036
802.78	3017
802.923	3077
803.065	2986
803.208	2906
803.35	2941
803.492	2918
803.635	2933
803.777	2739
803.919	2815
804.061	3211
804.204	2963
804.346	2891
804.488	2823
804.63	2975
804.773	2853
804.915	2910
805.057	3066
805.199	2902
805.341	2963
805.483	3039
805.626	2990
805.768	2956
805.91	3093
806.052	3127
806.194	3024
806.336	3241
806.478	3017
806.62	2986
806.762	3005
806.904	3070
807.046	3203
807.188	2952
807.33	2880
807.472	3028
807.614	2929
807.756	2979
807.898	2918
808.04	2899
808.182	2933
808.324	2952
808.465	2857
808.607	2872
808.749	2811
808.891	2838
809.033	2948
809.174	2979
809.316	2906
809.458	2872
809.6	2720
809.741	2792
809.883	2746
810.025	2857
810.166	2864
810.308	2819
810.45	2883
810.591	2777
810.733	2773
810.875	2880
811.016	2785
811.158	2754
811.299	2788
811.441	2925
811.582	2895
811.724	2796
811.865	2823
812.007	2891
812.148	2838
812.29	2876
812.431	2876
812.573	2922
812.714	2967
812.855	3039
812.997	3055
813.138	3161
813.279	3005
813.421	2941
813.562	2952
813.703	2891
813.845	2868
813.986	2777
814.127	2746
814.268	2804
814.41	2849
814.551	2826
814.692	2872
814.833	2807
814.974	2880
815.115	2975
815.256	2830
815.397	2842
815.539	2838
815.68	2788
815.821	2788
815.962	2922
816.103	2914
816.244	2823
816.385	2880
816.526	2994
816.666	2895
816.807	2762
816.948	2868
817.089	2952
817.23	2838
817.371	2788
817.512	2815
817.653	2872
817.793	2819
817.934	2880
818.075	2986
818.216	3001
818.356	3039
818.497	2899
818.638	2792
818.778	2811
818.919	2830
819.06	2724
819.2	2899
819.341	2807
819.481	2792
819.622	2922
819.762	3089
819.903	3036
820.043	2933
820.184	2918
820.324	2853
820.465	3013
820.605	3005
820.746	3036
820.886	2952
821.026	3119
821.167	3157
821.307	3218
821.447	3264
821.588	3260
821.728	3173
821.868	3199
822.008	3062
822.149	3222
822.289	3218
822.429	3066
822.569	3093
822.709	3207
822.849	3039
822.99	3047
823.13	3142
823.27	3165
823.41	3131
823.55	3138
823.69	3146
823.83	3180
823.97	3108
824.11	2990
824.25	2944
824.389	3093
824.529	3066
824.669	3066
824.809	3222
824.949	3264
825.089	3230
825.228	3173
825.368	3013
825.508	2937
825.648	2982
825.787	3039
825.927	3028
826.067	3001
826.206	2952
826.346	3032
826.485	3112
826.625	3085
826.765	3256
826.904	3237
827.044	2956
827.183	2929
827.323	2857
827.462	2975
827.601	2948
827.741	2948
827.88	2963
828.02	2849
828.159	2933
828.298	3032
828.437	3100
828.577	3058
828.716	3298
828.855	3055
828.994	2952
829.134	2891
829.273	2887
829.412	2834
829.551	2864
829.69	2902
829.829	2994
829.968	3119
830.107	2982
830.246	3028
830.385	2925
830.524	2864
830.663	2826
830.802	2739
830.941	2629
831.08	2644
831.219	2743
831.357	2762
831.496	2948
831.635	2689
831.774	2625
831.913	2674
832.051	2526
832.19	2564
832.329	2655
832.467	2552
832.606	2473
832.744	2579
832.883	2571
833.022	2606
833.16	2644
833.299	2659
833.437	2697
833.576	2701
833.714	2727
833.852	2731
833.991	2743
834.129	2823
834.267	2807
834.406	2754
834.544	2849
834.682	2872
834.821	2872
834.959	3081
835.097	2876
835.235	3032
835.373	3001
835.511	2982
835.65	2990
835.788	2944
835.926	2834
836.064	2826
836.202	2830
836.34	3108
836.478	3161
836.615	3051
836.753	3150
836.891	3192
837.029	3123
837.167	3127
837.305	3077
837.443	3047
837.58	2967
837.718	3146
837.856	3036
837.993	2998
838.131	3119
838.269	3081
838.406	3081
838.544	3100
838.681	2906
838.819	2899
838.956	2811
839.094	2826
839.231	2895
839.369	3020
839.506	3355
839.643	3184
839.781	2998
839.918	2937
840.055	3062
840.193	3032
840.33	3055
840.467	3108
840.604	3138
840.742	3401
840.879	3047
841.016	3058
841.153	3112
841.29	3325
841.427	3241
841.564	3275
841.701	3325
841.838	3218
841.975	3184
842.112	3192
842.249	3081
842.385	3047
842.522	3253
842.659	3085
842.796	3055
842.933	3077
843.069	3051
843.206	3039
843.343	3157
843.479	3154
843.616	3108
843.752	2899
843.889	2883
844.025	3081
844.162	2857
844.298	3039
844.435	2925
844.571	2914
844.708	3051
844.844	3173
844.98	3233
845.117	3207
845.253	3066
845.389	3001
845.525	3104
845.661	3097
845.798	2986
845.934	3142
846.07	3077
846.206	3256
846.342	3298
846.478	3199
846.614	3070
846.75	3058
846.886	3009
847.022	3245
847.158	3135
847.294	3154
847.429	3207
847.565	3195
847.701	3462
847.837	3017
847.972	2982
848.108	3154
848.244	3108
848.379	2990
848.515	2948
848.65	2895
848.786	2960
848.921	2975
849.057	3085
849.192	3116
849.328	3066
849.463	3116
849.598	3047
849.734	3043
849.869	2960
850.004	2910
850.14	2960
850.275	2895
850.41	2811
850.545	2849
850.68	2929
850.815	2944
850.95	2960
851.085	3176
851.22	3074
851.355	3051
851.49	2948
851.625	2990
851.76	3009
851.895	2864
852.03	2918
852.165	3028
852.299	3047
852.434	3184
852.569	3131
852.703	3161
852.838	3226
852.973	3313
853.107	3317
853.242	3127
853.376	3055
853.511	2979
853.645	3051
853.78	3218
853.914	3104
854.048	3123
854.183	3089
854.317	3146
854.451	3325
854.585	3127
854.72	3085
854.854	3218
854.988	3108
855.122	3100
855.256	2994
855.39	3108
855.524	3249
855.658	3203
855.792	3161
855.926	3195
856.06	3260
856.194	3249
856.327	3199
856.461	3089
856.595	3119
856.729	3112
856.862	3279
856.996	3180
857.13	3249
857.263	3218
857.397	3268
857.53	3116
857.664	3233
857.797	3302
857.931	3291
858.064	3195
858.197	3283
858.331	3184
858.464	3146
858.597	3032
858.731	3184
858.864	3207
858.997	3112
859.13	3207
859.263	3207
859.396	3253
859.529	3123
859.662	3104
859.795	3070
859.928	3146
860.061	3348
860.194	3329
860.327	3165
860.46	3119
860.592	3260
860.725	3306
860.858	3249
860.99	3142
861.123	3089
861.256	3100
861.388	3165
861.521	3953
861.653	3062
861.786	3024
861.918	3055
862.05	3097
862.183	3150
862.315	3192
862.447	3211
862.58	3108
862.712	2994
862.844	2914
862.976	3043
863.108	3062
863.24	3351
863.372	2895
863.504	2975
863.636	2975
863.768	3066
863.9	3020
864.032	2971
864.164	3028
864.296	3051
864.428	3108
864.559	3119
864.691	3100
864.823	3097
864.954	3047
865.086	3089
865.217	3020
865.349	2998
865.48	3024
865.612	3047
865.743	3165
865.875	3066
866.006	2998
866.137	3024
866.269	2948
866.4	2967
866.531	2967
866.662	2933
866.793	2941
866.924	2937
867.055	3001
867.186	2948
867.317	2906
867.448	2910
867.579	2864
867.71	2906
867.841	2845
867.972	2944
868.103	2941
868.233	2902
868.364	2944
868.495	2944
868.625	3112
868.756	3207
868.886	3013
869.017	3074
869.147	3211
869.278	3218
869.408	3077
869.539	3036
869.669	3138
869.799	3081
869.929	3154
870.06	3131
870.19	3386
870.32	3298
870.45	3317
870.58	3401
870.71	3485
870.84	3492
870.97	3332
871.1	3283
871.23	3511
871.36	3500
871.489	3409
871.619	3431
871.749	3439
871.879	3477
872.008	3519
872.138	3439
872.267	3310
872.397	3165
872.526	3131
872.656	3013
872.785	3165
872.915	3275
873.044	3332
873.173	3245
873.303	3291
873.432	3306
873.561	3222
873.69	3192
873.819	3195
873.948	3188
874.077	3127
874.206	3062
874.335	3131
874.464	3241
874.593	3355
874.722	3256
874.851	3409
874.979	3367
875.108	3378
875.237	3207
875.365	3146
875.494	3245
875.623	3298
875.751	3165
875.88	3138
876.008	3176
876.136	3245
876.265	3401
876.393	3523
876.521	3439
876.65	3439
876.778	3374
876.906	3268
877.034	3226
877.162	3268
877.29	3256
877.418	3317
877.546	3298
877.674	3291
877.802	3272
877.93	3226
878.058	3165
878.185	3146
878.313	3245
878.441	3302
878.568	3123
878.696	3188
878.824	3260
878.951	3321
879.079	3477
879.206	3648
879.333	3477
879.461	3363
879.588	3389
879.715	3538
879.842	3587
879.97	3431
880.097	3180
880.224	3161
880.351	3233
880.478	3264
880.605	3253
880.732	3203
880.859	3511
880.986	3348
881.112	3367
881.239	3230
881.366	3116
881.493	3058
881.619	3070
881.746	3104
881.872	3150
881.999	3127
882.125	3180
882.252	3268
882.378	3363
882.505	3492
882.631	3298
882.757	3173
882.883	3230
883.01	3230
883.136	3207
883.262	3146
883.388	3146
883.514	3351
883.64	3420
883.766	3355
883.892	3214
884.018	3253
884.143	3466
884.269	3599
884.395	3218
884.52	3199
884.646	3199
884.772	3157
884.897	3127
885.023	3222
885.148	3416
885.274	3462
885.399	3409
885.524	3317
885.65	3294
885.775	3329
885.9	3302
886.025	3439
886.15	3389
886.275	3332
886.4	3283
886.525	3336
886.65	3321
886.775	3313
886.9	3538
887.025	3629
887.149	3447
887.274	3294
887.399	3226
887.523	3214
887.648	3214
887.773	3237
887.897	3374
888.021	3401
888.146	3321
888.27	3454
888.395	3591
888.519	3488
888.643	3492
888.767	3477
888.891	3325
889.015	3272
889.139	3355
889.263	3294
889.387	3431
889.511	3530
889.635	3500
889.759	3294
889.883	3329
890.006	3363
890.13	3511
890.254	3329
890.377	3393
890.501	3233
890.624	3199
890.748	3310
890.871	3222
890.995	3165
891.118	3100
891.241	3218
891.364	3249
891.488	3317
891.611	3218
891.734	3230
891.857	3336
891.98	3237
892.103	3355
892.226	3310
892.349	3203
892.471	3127
892.594	3306
892.717	3306
892.839	3279
892.962	3317
893.085	3348
893.207	3378
893.33	3157
893.452	3211
893.575	3409
893.697	3268
893.819	3469
893.941	3561
894.064	3462
894.186	3291
894.308	3302
894.43	3496
894.552	3553
894.674	3466
894.796	3302
894.918	3344
895.04	3317
895.161	3458
895.283	3382
895.405	3310
895.526	3431
895.648	3496
895.769	3424
895.891	3454
896.012	3549
896.134	3485
896.255	3424
896.376	3401
896.498	3382
896.619	3469
896.74	3367
896.861	3447
896.982	3720
897.103	3876
897.224	3633
897.345	3511
897.466	3454
897.587	3507
897.708	3652
897.828	3584
897.949	3462
898.07	3348
898.19	3420
898.311	3606
898.431	3466
898.552	3523
898.672	3629
898.792	3587
898.913	3523
899.033	3477
899.153	3329
899.273	3241
899.393	3298
899.513	3336
899.633	3355
899.753	3359
899.873	3344
899.993	3386
900.113	3351
900.232	3416
900.352	3340
900.472	3302
900.591	3199
900.711	3332
900.83	3310
900.95	3454
901.069	3481
901.189	3348
901.308	3195
901.427	3131
901.546	3241
901.665	3291
901.784	3329
901.904	3233
902.023	3161
902.141	3020
902.26	3013
902.379	3135
902.498	3146
902.617	3085
902.735	3272
902.854	3237
902.973	3222
903.091	3093
903.21	3085
903.328	3195
903.446	3119
903.565	3100
903.683	3230
903.801	3195
903.919	3256
904.038	3302
904.156	3207
904.274	3329
904.392	3256
904.51	3329
904.627	3325
904.745	3435
904.863	3515
904.981	3283
905.098	3195
905.216	3249
905.334	3313
905.451	3363
905.569	3336
905.686	3477
905.803	3504
905.921	3310
906.038	3428
906.155	3386
906.272	3306
906.389	3359
906.506	3253
906.623	3291
906.74	3302
906.857	3226
906.974	3287
907.091	3473
907.208	3591
907.324	3500
907.441	3405
907.557	3249
907.674	3279
907.79	3222
907.907	3317
908.023	3393
908.139	3420
908.256	3329
908.372	3382
908.488	3382
908.604	3325
908.72	3260
908.836	3336
908.952	3287
909.068	3370
909.184	3526
909.3	3401
909.415	3485
909.531	3507
909.647	3332
909.762	3310
909.878	3291
909.993	3363
910.108	3355
910.224	3409
910.339	3431
910.454	3336
910.57	3310
910.685	3287
910.8	3599
910.915	3553
911.03	3412
911.145	3325
911.259	3291
911.374	3321
911.489	3260
911.604	3264
911.718	3154
911.833	3138
911.947	3066
912.062	3028
912.176	3180
912.291	3207
912.405	3264
912.519	3450
912.633	3504
912.748	3348
912.862	3317
912.976	3184
913.09	3070
913.204	3150
913.318	3226
913.431	3374
913.545	3386
913.659	3469
913.772	3336
913.886	3256
914	3203
914.113	3374
914.226	3416
914.34	3359
914.453	3184
914.566	3447
914.68	3279
914.793	3363
914.906	3142
915.019	3154
915.132	3089
915.245	3188
915.358	3203
915.47	3264
915.583	3287
915.696	3321
915.809	3386
915.921	3435
916.034	3256
916.146	3268
916.259	3245
916.371	3363
916.483	3367
916.595	3275
916.708	3310
916.82	3351
916.932	3340
917.044	3405
917.156	3367
917.268	3279
917.38	3329
917.491	3294
917.603	3412
917.715	3481
917.826	3485
917.938	3325
918.049	3256
918.161	3420
918.272	3553
918.384	3587
918.495	3507
918.606	3351
918.717	3298
918.828	3370
918.939	3401
919.05	3310
919.161	3351
919.272	3199
919.383	3302
919.494	3500
919.604	3705
919.715	3485
919.826	3469
919.936	3492
920.047	3599
920.157	3568
920.267	3774
920.378	3625
920.488	3542
920.598	3774
920.708	3926
920.818	3812
920.928	3854
921.038	4048
921.148	4036
921.258	3713
921.368	3648
921.477	3549
921.587	3549
921.697	3447
921.806	3625
921.916	3507
922.025	3393
922.134	3382
922.244	3329
922.353	3420
922.462	3294
922.571	3230
922.68	3146
922.789	3070
922.898	3123
923.007	3089
923.116	3253
923.224	3192
923.333	3214
923.442	3112
923.55	3131
923.659	3146
923.767	3230
923.876	3131
923.984	3249
924.092	3131
924.201	3211
924.309	3256
924.417	3332
924.525	3260
924.633	3253
924.741	4188
924.849	3100
924.956	3279
925.064	3127
925.172	3070
925.279	3161
925.387	3230
925.494	3214
925.602	3393
925.709	3378
925.816	3211
925.924	3332
926.031	3450
926.138	3367
926.245	3401
926.352	3310
926.459	3466
926.566	3515
926.673	3367
926.779	3291
926.886	3321
926.993	3184
927.099	3180
927.206	3169
927.312	3154
927.419	3230
927.525	3275
927.631	3310
927.737	3214
927.843	3157
927.95	3036
928.056	3173
928.162	3214
928.267	3272
928.373	3892
928.479	3405
928.585	3085
928.69	3310
928.796	3363
928.901	3218
929.007	3074
929.112	3275
929.218	3207
929.323	3203
929.428	3184
929.533	3355
929.638	3192
929.743	3214
929.848	3287
929.953	3260
930.058	3241
930.163	3051
930.267	3055
930.372	3253
930.477	3077
930.581	3317
930.685	3211
930.79	3165
930.894	3180
930.998	3142
931.103	3302
931.207	2994
931.311	3020
931.415	2971
931.519	2811
931.623	2838
