Data from test_V78500241_1019.txt Node
Date: Fri Mar 25 16:22:15 CST 2022
User: usil
Spectrometer: V785-0024
Trigger mode: 0
Integration Time (sec): 4.000000E-1
Scans to average: 1
Nonlinearity correction enabled: false
Boxcar width: 0
Storing dark spectrum: false
XAxis mode: Wavelengths
Number of Pixels in Spectrum: 1024
>>>>>Begin Spectral Data<<<<<
801.071	2891
801.214	2944
801.356	2796
801.499	2914
801.641	2849
801.783	2906
801.926	3074
802.068	2971
802.211	2986
802.353	3028
802.496	2956
802.638	3005
802.78	3032
802.923	3047
803.065	3001
803.208	2876
803.35	2918
803.492	2906
803.635	2895
803.777	2766
803.919	2823
804.061	3165
804.204	2960
804.346	2902
804.488	2811
804.63	2975
804.773	2895
804.915	2910
805.057	3074
805.199	2925
805.341	2979
805.483	3017
805.626	2971
805.768	2963
805.91	3062
806.052	3097
806.194	2990
806.336	3233
806.478	3020
806.62	2956
806.762	2952
806.904	3009
807.046	3146
807.188	2948
807.33	2876
807.472	2971
807.614	2883
807.756	2963
807.898	2933
808.04	2891
808.182	2941
808.324	2948
808.465	2922
808.607	2853
808.749	2777
808.891	2834
809.033	2922
809.174	2929
809.316	2880
809.458	2906
809.6	2754
809.741	2743
809.883	2754
810.025	2842
810.166	2842
810.308	2830
810.45	2849
810.591	2758
810.733	2762
810.875	2838
811.016	2758
811.158	2762
811.299	2811
811.441	2910
811.582	2891
811.724	2830
811.865	2838
812.007	2868
812.148	2880
812.29	2861
812.431	2872
812.573	2937
812.714	2944
812.855	3055
812.997	3062
813.138	3089
813.279	2986
813.421	2956
813.562	2967
813.703	2864
813.845	2887
813.986	2788
814.127	2731
814.268	2796
814.41	2826
814.551	2796
814.692	2849
814.833	2800
814.974	2842
815.115	2941
815.256	2811
815.397	2830
815.539	2826
815.68	2754
815.821	2785
815.962	2952
816.103	2929
816.244	2868
816.385	2861
816.526	2925
816.666	2906
816.807	2724
816.948	2861
817.089	2914
817.23	2853
817.371	2762
817.512	2785
817.653	2815
817.793	2838
817.934	2864
818.075	2967
818.216	2986
818.356	3024
818.497	2861
818.638	2785
818.778	2830
818.919	2785
819.06	2758
819.2	2861
819.341	2804
819.481	2777
819.622	2918
819.762	3074
819.903	3028
820.043	2906
820.184	2876
820.324	2899
820.465	2990
820.605	3009
820.746	3005
820.886	2922
821.026	3093
821.167	3100
821.307	3275
821.447	3287
821.588	3226
821.728	3188
821.868	3203
822.008	3066
822.149	3131
822.289	3245
822.429	3074
822.569	3093
822.709	3165
822.849	3039
822.99	3104
823.13	3119
823.27	3195
823.41	3085
823.55	3173
823.69	3138
823.83	3192
823.97	3104
824.11	2982
824.25	2967
824.389	3024
824.529	3116
824.669	3085
824.809	3157
824.949	3226
825.089	3253
825.228	3188
825.368	3055
825.508	2952
825.648	2982
825.787	3005
825.927	3005
826.067	2982
826.206	2994
826.346	3070
826.485	3047
826.625	3093
826.765	3268
826.904	3176
827.044	3017
827.183	2948
827.323	2838
827.462	2979
827.601	2933
827.741	2982
827.88	2971
828.02	2853
828.159	2990
828.298	3077
828.437	3169
828.577	3074
828.716	3249
828.855	3142
828.994	2914
829.134	2922
829.273	2910
829.412	2918
829.551	2868
829.69	2929
829.829	3024
829.968	3165
830.107	3058
830.246	3051
830.385	2918
830.524	2925
830.663	2826
830.802	2788
830.941	2674
831.08	2701
831.219	2777
831.357	2807
831.496	3005
831.635	2716
831.774	2712
831.913	2670
832.051	2568
832.19	2632
832.329	2697
832.467	2552
832.606	2522
832.744	2651
832.883	2640
833.022	2613
833.16	2720
833.299	2693
833.437	2739
833.576	2777
833.714	2758
833.852	2754
833.991	2819
834.129	2883
834.267	2853
834.406	2838
834.544	2914
834.682	2891
834.821	2925
834.959	3097
835.097	2941
835.235	3108
835.373	3032
835.511	3051
835.65	2994
835.788	2990
835.926	2868
836.064	2838
836.202	2883
836.34	3112
836.478	3165
836.615	3089
836.753	3154
836.891	3237
837.029	3176
837.167	3108
837.305	3108
837.443	3127
837.58	3001
837.718	3157
837.856	3047
837.993	3058
838.131	3131
838.269	3131
838.406	3146
838.544	3112
838.681	2982
838.819	2914
838.956	2902
839.094	2906
839.231	2914
839.369	3074
839.506	3374
839.643	3241
839.781	3020
839.918	2975
840.055	3085
840.193	3062
840.33	3070
840.467	3135
840.604	3199
840.742	3454
840.879	3074
841.016	3169
841.153	3135
841.29	3340
841.427	3317
841.564	3325
841.701	3363
841.838	3264
841.975	3199
842.112	3226
842.249	3100
842.385	3058
842.522	3298
842.659	3146
842.796	3066
842.933	3135
843.069	3093
843.206	3089
843.343	3237
843.479	3138
843.616	3176
843.752	2918
843.889	2895
844.025	3104
844.162	2944
844.298	3058
844.435	2982
844.571	2925
844.708	3123
844.844	3233
844.98	3268
845.117	3218
845.253	3093
845.389	3047
845.525	3104
845.661	3123
845.798	3009
845.934	3154
846.07	3112
846.206	3230
846.342	3321
846.478	3256
846.614	3089
846.75	3043
846.886	3097
847.022	3241
847.158	3138
847.294	3245
847.429	3253
847.565	3233
847.701	3523
847.837	3047
847.972	3066
848.108	3176
848.244	3180
848.379	3017
848.515	2990
848.65	2960
848.786	2952
848.921	3036
849.057	3142
849.192	3199
849.328	3104
849.463	3135
849.598	3089
849.734	3070
849.869	3001
850.004	2941
850.14	3001
850.275	2929
850.41	2895
850.545	2876
850.68	2937
850.815	2979
850.95	3017
851.085	3203
851.22	3116
851.355	3058
851.49	3028
851.625	3036
851.76	3066
851.895	2986
852.03	2922
852.165	3055
852.299	3142
852.434	3199
852.569	3214
852.703	3188
852.838	3275
852.973	3355
853.107	3351
853.242	3173
853.376	3100
853.511	3005
853.645	3093
853.78	3260
853.914	3100
854.048	3138
854.183	3097
854.317	3150
854.451	3329
854.585	3188
854.72	3123
854.854	3188
854.988	3074
855.122	3112
855.256	2982
855.39	3154
855.524	3253
855.658	3173
855.792	3154
855.926	3218
856.06	3211
856.194	3268
856.327	3161
856.461	3108
856.595	3104
856.729	3131
856.862	3222
856.996	3161
857.13	3203
857.263	3226
857.397	3306
857.53	3142
857.664	3222
857.797	3222
857.931	3298
858.064	3180
858.197	3245
858.331	3123
858.464	3154
858.597	3070
858.731	3138
858.864	3169
858.997	3104
859.13	3176
859.263	3165
859.396	3241
859.529	3112
859.662	3116
859.795	3058
859.928	3173
860.061	3325
860.194	3306
860.327	3142
860.46	3097
860.592	3207
860.725	3268
860.858	3302
860.99	3135
861.123	3055
861.256	3108
861.388	3173
861.521	3842
861.653	3066
861.786	2994
861.918	3005
862.05	3066
862.183	3119
862.315	3154
862.447	3214
862.58	3100
862.712	2967
862.844	2872
862.976	3066
863.108	3032
863.24	3443
863.372	2910
863.504	2986
863.636	2937
863.768	3074
863.9	3028
864.032	2925
864.164	2979
864.296	3051
864.428	3142
864.559	3108
864.691	3085
864.823	3104
864.954	3089
865.086	3066
865.217	3032
865.349	2982
865.48	3001
865.612	3055
865.743	3188
865.875	3005
866.006	2929
866.137	2979
866.269	2922
866.4	2952
866.531	2971
866.662	2914
866.793	2902
866.924	2906
867.055	2979
867.186	2941
867.317	2902
867.448	2876
867.579	2853
867.71	2864
867.841	2857
867.972	2872
868.103	2925
868.233	2910
868.364	2883
868.495	2929
868.625	3058
868.756	3192
868.886	2994
869.017	3036
869.147	3161
869.278	3173
869.408	3074
869.539	3070
869.669	3142
869.799	3077
869.929	3211
870.06	3127
870.19	3340
870.32	3313
870.45	3310
870.58	3355
870.71	3443
870.84	3435
870.97	3260
871.1	3260
871.23	3462
871.36	3443
871.489	3374
871.619	3397
871.749	3454
871.879	3458
872.008	3515
872.138	3355
872.267	3298
872.397	3142
872.526	3085
872.656	3017
872.785	3112
872.915	3291
873.044	3294
873.173	3272
873.303	3233
873.432	3211
873.561	3241
873.69	3165
873.819	3176
873.948	3211
874.077	3135
874.206	3085
874.335	3097
874.464	3207
874.593	3332
874.722	3268
874.851	3389
874.979	3370
875.108	3336
875.237	3211
875.365	3161
875.494	3184
875.623	3249
875.751	3093
875.88	3138
876.008	3199
876.136	3226
876.265	3386
876.393	3523
876.521	3443
876.65	3428
876.778	3294
876.906	3264
877.034	3233
877.162	3264
877.29	3218
877.418	3260
877.546	3233
877.674	3268
877.802	3268
877.93	3233
878.058	3146
878.185	3138
878.313	3237
878.441	3214
878.568	3066
878.696	3173
878.824	3233
878.951	3294
879.079	3477
879.206	3656
879.333	3431
879.461	3359
879.588	3367
879.715	3485
879.842	3576
879.97	3405
880.097	3157
880.224	3146
880.351	3184
880.478	3249
880.605	3211
880.732	3195
880.859	3504
880.986	3344
881.112	3355
881.239	3241
881.366	3154
881.493	3043
881.619	3032
881.746	3089
881.872	3119
881.999	3135
882.125	3146
882.252	3241
882.378	3291
882.505	3439
882.631	3291
882.757	3165
882.883	3226
883.01	3207
883.136	3180
883.262	3093
883.388	3157
883.514	3359
883.64	3370
883.766	3306
883.892	3203
884.018	3207
884.143	3435
884.269	3538
884.395	3188
884.52	3195
884.646	3180
884.772	3161
884.897	3123
885.023	3188
885.148	3321
885.274	3443
885.399	3397
885.524	3302
885.65	3272
885.775	3302
885.9	3294
886.025	3420
886.15	3416
886.275	3317
886.4	3260
886.525	3321
886.65	3310
886.775	3329
886.9	3504
887.025	3633
887.149	3409
887.274	3260
887.399	3165
887.523	3195
887.648	3161
887.773	3169
887.897	3389
888.021	3401
888.146	3367
888.27	3428
888.395	3591
888.519	3450
888.643	3439
888.767	3447
888.891	3302
889.015	3253
889.139	3294
889.263	3230
889.387	3416
889.511	3526
889.635	3477
889.759	3306
889.883	3336
890.006	3409
890.13	3488
890.254	3317
890.377	3367
890.501	3226
890.624	3203
890.748	3302
890.871	3169
890.995	3112
891.118	3066
891.241	3211
891.364	3218
891.488	3298
891.611	3184
891.734	3249
891.857	3306
891.98	3226
892.103	3382
892.226	3249
892.349	3218
892.471	3131
892.594	3256
892.717	3306
892.839	3279
892.962	3302
893.085	3363
893.207	3275
893.33	3154
893.452	3226
893.575	3325
893.697	3279
893.819	3469
893.941	3439
894.064	3454
894.186	3249
894.308	3237
894.43	3450
894.552	3519
894.674	3473
894.796	3264
894.918	3355
895.04	3310
895.161	3420
895.283	3397
895.405	3279
895.526	3348
895.648	3431
895.769	3469
895.891	3439
896.012	3488
896.134	3439
896.255	3454
896.376	3378
896.498	3374
896.619	3492
896.74	3351
896.861	3420
896.982	3694
897.103	3857
897.224	3614
897.345	3534
897.466	3416
897.587	3523
897.708	3584
897.828	3549
897.949	3431
898.07	3351
898.19	3412
898.311	3652
898.431	3450
898.552	3511
898.672	3599
898.792	3545
898.913	3542
899.033	3431
899.153	3275
899.273	3268
899.393	3264
899.513	3344
899.633	3336
899.753	3382
899.873	3306
899.993	3412
900.113	3355
900.232	3386
900.352	3355
900.472	3275
900.591	3214
900.711	3325
900.83	3260
900.95	3401
901.069	3454
901.189	3370
901.308	3161
901.427	3150
901.546	3192
901.665	3275
901.784	3325
901.904	3214
902.023	3131
902.141	3020
902.26	2975
902.379	3116
902.498	3055
902.617	3097
902.735	3230
902.854	3283
902.973	3199
903.091	3047
903.21	3100
903.328	3138
903.446	3138
903.565	3119
903.683	3264
903.801	3157
903.919	3241
904.038	3260
904.156	3184
904.274	3294
904.392	3230
904.51	3279
904.627	3332
904.745	3466
904.863	3519
904.981	3275
905.098	3226
905.216	3260
905.334	3298
905.451	3306
905.569	3340
905.686	3416
905.803	3443
905.921	3329
906.038	3431
906.155	3325
906.272	3272
906.389	3317
906.506	3253
906.623	3291
906.74	3291
906.857	3195
906.974	3256
907.091	3420
907.208	3603
907.324	3485
907.441	3363
907.557	3245
907.674	3222
907.79	3214
907.907	3291
908.023	3405
908.139	3382
908.256	3317
908.372	3374
908.488	3359
908.604	3291
908.72	3245
908.836	3260
908.952	3287
909.068	3329
909.184	3473
909.3	3374
909.415	3492
909.531	3431
909.647	3302
909.762	3287
909.878	3260
909.993	3367
910.108	3329
910.224	3348
910.339	3409
910.454	3336
910.57	3294
910.685	3253
910.8	3584
910.915	3519
911.03	3439
911.145	3306
911.259	3279
911.374	3344
911.489	3249
911.604	3256
911.718	3119
911.833	3154
911.947	3013
912.062	2982
912.176	3154
912.291	3203
912.405	3237
912.519	3401
912.633	3454
912.748	3332
912.862	3264
912.976	3184
913.09	3070
913.204	3173
913.318	3192
913.431	3329
913.545	3359
913.659	3424
913.772	3321
913.886	3195
914	3184
914.113	3336
914.226	3393
914.34	3374
914.453	3268
914.566	3374
914.68	3268
914.793	3321
914.906	3142
915.019	3131
915.132	3070
915.245	3161
915.358	3176
915.47	3203
915.583	3275
915.696	3321
915.809	3401
915.921	3424
916.034	3264
916.146	3226
916.259	3188
916.371	3378
916.483	3348
916.595	3256
916.708	3348
916.82	3332
916.932	3351
917.044	3367
917.156	3370
917.268	3214
917.38	3306
917.491	3291
917.603	3401
917.715	3450
917.826	3488
917.938	3348
918.049	3233
918.161	3439
918.272	3568
918.384	3568
918.495	3504
918.606	3367
918.717	3256
918.828	3401
918.939	3416
919.05	3344
919.161	3386
919.272	3161
919.383	3272
919.494	3504
919.604	3698
919.715	3458
919.826	3409
919.936	3477
920.047	3561
920.157	3576
920.267	3751
920.378	3564
920.488	3591
920.598	3800
920.708	3964
920.818	3880
920.928	3835
921.038	4029
921.148	3968
921.258	3694
921.368	3606
921.477	3587
921.587	3557
921.697	3458
921.806	3633
921.916	3523
922.025	3325
922.134	3332
922.244	3329
922.353	3428
922.462	3313
922.571	3230
922.68	3138
922.789	3074
922.898	3157
923.007	3150
923.116	3233
923.224	3157
923.333	3173
923.442	3119
923.55	3104
923.659	3176
923.767	3188
923.876	3085
923.984	3283
924.092	3074
924.201	3214
924.309	3226
924.417	3237
924.525	3165
924.633	3260
924.741	4204
924.849	3055
924.956	3230
925.064	3100
925.172	3055
925.279	3142
925.387	3184
925.494	3207
925.602	3336
925.709	3355
925.816	3211
925.924	3268
926.031	3416
926.138	3306
926.245	3294
926.352	3199
926.459	3397
926.566	3488
926.673	3340
926.779	3237
926.886	3222
926.993	3138
927.099	3135
927.206	3116
927.312	3116
927.419	3253
927.525	3199
927.631	3260
927.737	3142
927.843	3131
927.95	3005
928.056	3097
928.162	3199
928.267	3233
928.373	3831
928.479	3287
928.585	3081
928.69	3226
928.796	3283
928.901	3169
929.007	3085
929.112	3233
929.218	3180
929.323	3157
929.428	3154
929.533	3336
929.638	3119
929.743	3154
929.848	3237
929.953	3203
930.058	3131
930.163	3024
930.267	3062
930.372	3199
930.477	3024
930.581	3344
930.685	3180
930.79	3066
930.894	3100
930.998	3089
931.103	3253
931.207	2975
931.311	2952
931.415	2922
931.519	2792
931.623	2807
