Data from test_V78500241_1965.txt Node
Date: Fri Mar 25 16:28:48 CST 2022
User: usil
Spectrometer: V785-0024
Trigger mode: 0
Integration Time (sec): 4.000000E-1
Scans to average: 1
Nonlinearity correction enabled: false
Boxcar width: 0
Storing dark spectrum: false
XAxis mode: Wavelengths
Number of Pixels in Spectrum: 1024
>>>>>Begin Spectral Data<<<<<
801.071	2895
801.214	2944
801.356	2906
801.499	2902
801.641	2887
801.783	2902
801.926	3043
802.068	2963
802.211	2979
802.353	3047
802.496	3001
802.638	3024
802.78	3066
802.923	3070
803.065	2994
803.208	2899
803.35	2891
803.492	2929
803.635	2937
803.777	2731
803.919	2864
804.061	3230
804.204	2929
804.346	2899
804.488	2845
804.63	2952
804.773	2887
804.915	2895
805.057	3062
805.199	2944
805.341	2986
805.483	3032
805.626	2979
805.768	3009
805.91	3093
806.052	3131
806.194	2971
806.336	3233
806.478	3020
806.62	2906
806.762	2956
806.904	3020
807.046	3180
807.188	2975
807.33	2872
807.472	2998
807.614	2925
807.756	2990
807.898	2914
808.04	2918
808.182	2971
808.324	2971
808.465	2895
808.607	2891
808.749	2788
808.891	2876
809.033	2971
809.174	2979
809.316	2880
809.458	2910
809.6	2750
809.741	2750
809.883	2754
810.025	2819
810.166	2864
810.308	2842
810.45	2872
810.591	2758
810.733	2758
810.875	2804
811.016	2807
811.158	2727
811.299	2807
811.441	2914
811.582	2887
811.724	2807
811.865	2823
812.007	2891
812.148	2906
812.29	2864
812.431	2902
812.573	2922
812.714	2971
812.855	3013
812.997	3043
813.138	3104
813.279	3047
813.421	2963
813.562	3005
813.703	2834
813.845	2914
813.986	2727
814.127	2724
814.268	2804
814.41	2845
814.551	2811
814.692	2876
814.833	2815
814.974	2925
815.115	2986
815.256	2807
815.397	2826
815.539	2864
815.68	2766
815.821	2796
815.962	2937
816.103	2918
816.244	2853
816.385	2883
816.526	2925
816.666	2902
816.807	2731
816.948	2918
817.089	2929
817.23	2830
817.371	2807
817.512	2792
817.653	2823
817.793	2830
817.934	2891
818.075	2944
818.216	2952
818.356	3020
818.497	2872
818.638	2785
818.778	2838
818.919	2792
819.06	2766
819.2	2864
819.341	2819
819.481	2819
819.622	2922
819.762	3104
819.903	3039
820.043	2918
820.184	2929
820.324	2880
820.465	3005
820.605	3001
820.746	2998
820.886	2937
821.026	3093
821.167	3150
821.307	3272
821.447	3325
821.588	3237
821.728	3184
821.868	3169
822.008	3070
822.149	3203
822.289	3264
822.429	3051
822.569	3104
822.709	3218
822.849	3005
822.99	3058
823.13	3112
823.27	3195
823.41	3112
823.55	3161
823.69	3173
823.83	3230
823.97	3085
824.11	3032
824.25	2963
824.389	3093
824.529	3097
824.669	3036
824.809	3188
824.949	3237
825.089	3249
825.228	3161
825.368	2975
825.508	2963
825.648	2948
825.787	3020
825.927	3020
826.067	2941
826.206	2925
826.346	3039
826.485	3093
826.625	3089
826.765	3233
826.904	3230
827.044	3005
827.183	2922
827.323	2857
827.462	2956
827.601	2880
827.741	2922
827.88	2956
828.02	2853
828.159	2971
828.298	3032
828.437	3116
828.577	3036
828.716	3253
828.855	3081
828.994	2922
829.134	2876
829.273	2910
829.412	2868
829.551	2880
829.69	2902
829.829	3009
829.968	3127
830.107	2979
830.246	3020
830.385	2918
830.524	2861
830.663	2834
830.802	2712
830.941	2651
831.08	2663
831.219	2746
831.357	2754
831.496	2929
831.635	2716
831.774	2659
831.913	2621
832.051	2541
832.19	2579
832.329	2663
832.467	2549
832.606	2507
832.744	2598
832.883	2602
833.022	2560
833.16	2613
833.299	2674
833.437	2667
833.576	2674
833.714	2727
833.852	2697
833.991	2769
834.129	2815
834.267	2834
834.406	2777
834.544	2895
834.682	2845
834.821	2887
834.959	3062
835.097	2937
835.235	3047
835.373	2982
835.511	3032
835.65	2960
835.788	2929
835.926	2823
836.064	2826
836.202	2823
836.34	3077
836.478	3173
836.615	3024
836.753	3119
836.891	3222
837.029	3157
837.167	3112
837.305	3058
837.443	3024
837.58	2967
837.718	3081
837.856	3070
837.993	3017
838.131	3108
838.269	3100
838.406	3108
838.544	3085
838.681	2925
838.819	2918
838.956	2777
839.094	2830
839.231	2902
839.369	2990
839.506	3378
839.643	3203
839.781	2990
839.918	2944
840.055	3013
840.193	3028
840.33	3070
840.467	3108
840.604	3138
840.742	3428
840.879	3081
841.016	3062
841.153	3131
841.29	3325
841.427	3294
841.564	3226
841.701	3283
841.838	3218
841.975	3135
842.112	3199
842.249	3062
842.385	3013
842.522	3226
842.659	3112
842.796	3043
842.933	3070
843.069	3036
843.206	3051
843.343	3199
843.479	3081
843.616	3138
843.752	2922
843.889	2853
844.025	3051
844.162	2849
844.298	3077
844.435	2895
844.571	2902
844.708	3043
844.844	3180
844.98	3203
845.117	3173
845.253	3032
845.389	2990
845.525	3100
845.661	3108
845.798	3017
845.934	3138
846.07	3028
846.206	3199
846.342	3340
846.478	3245
846.614	3104
846.75	3028
846.886	3013
847.022	3211
847.158	3108
847.294	3154
847.429	3203
847.565	3188
847.701	3500
847.837	3039
847.972	2971
848.108	3214
848.244	3150
848.379	2967
848.515	2922
848.65	2925
848.786	2979
848.921	3013
849.057	3070
849.192	3142
849.328	3051
849.463	3097
849.598	3089
849.734	3070
849.869	2967
850.004	2918
850.14	3028
850.275	2902
850.41	2811
850.545	2880
850.68	2937
850.815	2929
850.95	2967
851.085	3169
851.22	3123
851.355	3039
851.49	2967
851.625	2994
851.76	3001
851.895	2906
852.03	2887
852.165	3047
852.299	3112
852.434	3154
852.569	3131
852.703	3161
852.838	3256
852.973	3351
853.107	3336
853.242	3165
853.376	3081
853.511	2979
853.645	3039
853.78	3222
853.914	3116
854.048	3116
854.183	3062
854.317	3119
854.451	3321
854.585	3150
854.72	3070
854.854	3207
854.988	3062
855.122	3093
855.256	2967
855.39	3085
855.524	3230
855.658	3180
855.792	3127
855.926	3218
856.06	3245
856.194	3253
856.327	3157
856.461	3097
856.595	3066
856.729	3051
856.862	3192
856.996	3173
857.13	3184
857.263	3245
857.397	3249
857.53	3100
857.664	3154
857.797	3222
857.931	3249
858.064	3154
858.197	3249
858.331	3093
858.464	3108
858.597	2979
858.731	3150
858.864	3074
858.997	3100
859.13	3146
859.263	3154
859.396	3176
859.529	3097
859.662	3028
859.795	3039
859.928	3142
860.061	3249
860.194	3268
860.327	3119
860.46	3043
860.592	3268
860.725	3222
860.858	3233
860.99	3081
861.123	3009
861.256	3077
861.388	3123
861.521	3854
861.653	3032
861.786	2933
861.918	2986
862.05	3032
862.183	3085
862.315	3173
862.447	3192
862.58	3081
862.712	2933
862.844	2895
862.976	3028
863.108	2994
863.24	3397
863.372	2861
863.504	2986
863.636	2971
863.768	3001
863.9	3001
864.032	2918
864.164	2937
864.296	3039
864.428	3097
864.559	3112
864.691	3047
864.823	3047
864.954	3028
865.086	3036
865.217	2963
865.349	2952
865.48	2979
865.612	3005
865.743	3154
865.875	2937
866.006	2918
866.137	2952
866.269	2971
866.4	2906
866.531	2883
866.662	2902
866.793	2883
866.924	2868
867.055	2986
867.186	2948
867.317	2891
867.448	2823
867.579	2823
867.71	2834
867.841	2823
867.972	2887
868.103	2876
868.233	2891
868.364	2868
868.495	2910
868.625	3051
868.756	3123
868.886	2963
869.017	3020
869.147	3165
869.278	3180
869.408	3043
869.539	2986
869.669	3074
869.799	3055
869.929	3123
870.06	3104
870.19	3294
870.32	3291
870.45	3325
870.58	3363
870.71	3439
870.84	3424
870.97	3298
871.1	3237
871.23	3454
871.36	3458
871.489	3370
871.619	3401
871.749	3424
871.879	3405
872.008	3477
872.138	3355
872.267	3275
872.397	3112
872.526	3066
872.656	3017
872.785	3093
872.915	3253
873.044	3321
873.173	3222
873.303	3256
873.432	3233
873.561	3222
873.69	3138
873.819	3142
873.948	3230
874.077	3097
874.206	3047
874.335	3032
874.464	3203
874.593	3317
874.722	3218
874.851	3370
874.979	3348
875.108	3329
875.237	3180
875.365	3192
875.494	3138
875.623	3253
875.751	3062
875.88	3112
876.008	3199
876.136	3203
876.265	3348
876.393	3504
876.521	3393
876.65	3393
876.778	3313
876.906	3253
877.034	3211
877.162	3233
877.29	3173
877.418	3245
877.546	3214
877.674	3241
877.802	3195
877.93	3233
878.058	3150
878.185	3074
878.313	3203
878.441	3214
878.568	3081
878.696	3108
878.824	3207
878.951	3313
879.079	3393
879.206	3603
879.333	3428
879.461	3287
879.588	3378
879.715	3477
879.842	3587
879.97	3370
880.097	3173
880.224	3138
880.351	3199
880.478	3211
880.605	3192
880.732	3207
880.859	3507
880.986	3325
881.112	3329
881.239	3237
881.366	3093
881.493	3058
881.619	2998
881.746	3089
881.872	3100
881.999	3108
882.125	3161
882.252	3237
882.378	3298
882.505	3424
882.631	3264
882.757	3150
882.883	3249
883.01	3203
883.136	3150
883.262	3116
883.388	3116
883.514	3336
883.64	3344
883.766	3310
883.892	3173
884.018	3241
884.143	3409
884.269	3633
884.395	3195
884.52	3176
884.646	3173
884.772	3112
884.897	3074
885.023	3169
885.148	3370
885.274	3401
885.399	3386
885.524	3294
885.65	3237
885.775	3325
885.9	3291
886.025	3473
886.15	3351
886.275	3287
886.4	3214
886.525	3313
886.65	3253
886.775	3287
886.9	3462
887.025	3625
887.149	3389
887.274	3249
887.399	3138
887.523	3226
887.648	3135
887.773	3192
887.897	3363
888.021	3378
888.146	3298
888.27	3424
888.395	3500
888.519	3405
888.643	3416
888.767	3424
888.891	3294
889.015	3245
889.139	3291
889.263	3253
889.387	3397
889.511	3496
889.635	3447
889.759	3287
889.883	3313
890.006	3393
890.13	3450
890.254	3287
890.377	3348
890.501	3237
890.624	3176
890.748	3268
890.871	3157
890.995	3089
891.118	3066
891.241	3192
891.364	3188
891.488	3310
891.611	3146
891.734	3222
891.857	3279
891.98	3211
892.103	3355
892.226	3272
892.349	3214
892.471	3081
892.594	3233
892.717	3272
892.839	3260
892.962	3279
893.085	3374
893.207	3272
893.33	3157
893.452	3275
893.575	3355
893.697	3256
893.819	3466
893.941	3481
894.064	3504
894.186	3256
894.308	3222
894.43	3420
894.552	3504
894.674	3447
894.796	3275
894.918	3298
895.04	3291
895.161	3405
895.283	3389
895.405	3298
895.526	3374
895.648	3367
895.769	3412
895.891	3485
896.012	3405
896.134	3504
896.255	3389
896.376	3367
896.498	3401
896.619	3431
896.74	3351
896.861	3420
896.982	3705
897.103	3907
897.224	3584
897.345	3492
897.466	3431
897.587	3496
897.708	3622
897.828	3545
897.949	3450
898.07	3351
898.19	3393
898.311	3568
898.431	3466
898.552	3507
898.672	3587
898.792	3591
898.913	3485
899.033	3458
899.153	3264
899.273	3218
899.393	3287
899.513	3298
899.633	3340
899.753	3332
899.873	3310
899.993	3397
900.113	3317
900.232	3393
900.352	3344
900.472	3306
900.591	3237
900.711	3317
900.83	3211
900.95	3405
901.069	3458
901.189	3367
901.308	3169
901.427	3161
901.546	3146
901.665	3260
901.784	3294
901.904	3199
902.023	3146
902.141	2986
902.26	3017
902.379	3131
902.498	3055
902.617	3077
902.735	3199
902.854	3249
902.973	3203
903.091	3020
903.21	3077
903.328	3127
903.446	3154
903.565	3131
903.683	3195
903.801	3112
903.919	3272
904.038	3272
904.156	3173
904.274	3310
904.392	3218
904.51	3283
904.627	3344
904.745	3462
904.863	3500
904.981	3256
905.098	3165
905.216	3188
905.334	3332
905.451	3279
905.569	3336
905.686	3469
905.803	3420
905.921	3256
906.038	3397
906.155	3325
906.272	3268
906.389	3313
906.506	3214
906.623	3241
906.74	3287
906.857	3176
906.974	3237
907.091	3439
907.208	3584
907.324	3511
907.441	3336
907.557	3237
907.674	3260
907.79	3207
907.907	3275
908.023	3378
908.139	3378
908.256	3298
908.372	3363
908.488	3325
908.604	3268
908.72	3218
908.836	3287
908.952	3256
909.068	3363
909.184	3431
909.3	3424
909.415	3500
909.531	3466
909.647	3241
909.762	3302
909.878	3249
909.993	3386
910.108	3359
910.224	3340
910.339	3424
910.454	3306
910.57	3249
910.685	3237
910.8	3572
910.915	3507
911.03	3450
911.145	3283
911.259	3294
911.374	3298
911.489	3233
911.604	3222
911.718	3100
911.833	3131
911.947	3017
912.062	2967
912.176	3195
912.291	3173
912.405	3233
912.519	3416
912.633	3447
912.748	3332
912.862	3268
912.976	3157
913.09	3070
913.204	3138
913.318	3199
913.431	3332
913.545	3329
913.659	3393
913.772	3302
913.886	3214
914	3192
914.113	3340
914.226	3435
914.34	3359
914.453	3192
914.566	3435
914.68	3287
914.793	3283
914.906	3119
915.019	3112
915.132	3051
915.245	3169
915.358	3169
915.47	3233
915.583	3233
915.696	3313
915.809	3409
915.921	3389
916.034	3233
916.146	3218
916.259	3237
916.371	3336
916.483	3378
916.595	3260
916.708	3367
916.82	3325
916.932	3336
917.044	3340
917.156	3359
917.268	3245
917.38	3283
917.491	3237
917.603	3382
917.715	3397
917.826	3447
917.938	3348
918.049	3260
918.161	3409
918.272	3587
918.384	3587
918.495	3458
918.606	3340
918.717	3264
918.828	3389
918.939	3454
919.05	3306
919.161	3378
919.272	3180
919.383	3260
919.494	3515
919.604	3660
919.715	3469
919.826	3428
919.936	3454
920.047	3584
920.157	3530
920.267	3740
920.378	3606
920.488	3572
920.598	3804
920.708	3960
920.818	3880
920.928	3831
921.038	3987
921.148	3983
921.258	3690
921.368	3660
921.477	3553
921.587	3545
921.697	3447
921.806	3618
921.916	3492
922.025	3336
922.134	3355
922.244	3279
922.353	3393
922.462	3279
922.571	3218
922.68	3085
922.789	3093
922.898	3154
923.007	3081
923.116	3169
923.224	3173
923.333	3184
923.442	3116
923.55	3058
923.659	3131
923.767	3192
923.876	3135
923.984	3218
924.092	3074
924.201	3207
924.309	3203
924.417	3268
924.525	3222
924.633	3230
924.741	4147
924.849	3055
924.956	3226
925.064	3108
925.172	3055
925.279	3112
925.387	3176
925.494	3222
925.602	3344
925.709	3336
925.816	3203
925.924	3253
926.031	3321
926.138	3306
926.245	3378
926.352	3222
926.459	3416
926.566	3458
926.673	3291
926.779	3249
926.886	3230
926.993	3180
927.099	3093
927.206	3066
927.312	3116
927.419	3233
927.525	3199
927.631	3256
927.737	3104
927.843	3157
927.95	3047
928.056	3131
928.162	3154
928.267	3226
928.373	3876
928.479	3313
928.585	3074
928.69	3218
928.796	3233
928.901	3173
929.007	3062
929.112	3195
929.218	3173
929.323	3165
929.428	3154
929.533	3279
929.638	3104
929.743	3161
929.848	3237
929.953	3192
930.058	3154
930.163	3005
930.267	3032
930.372	3161
930.477	3020
930.581	3310
930.685	3146
930.79	3036
930.894	3138
930.998	3081
931.103	3279
931.207	2963
931.311	2899
931.415	2914
931.519	2788
931.623	2796
