Data from test_V78500241_1897.txt Node
Date: Fri Mar 25 16:28:20 CST 2022
User: usil
Spectrometer: V785-0024
Trigger mode: 0
Integration Time (sec): 4.000000E-1
Scans to average: 1
Nonlinearity correction enabled: false
Boxcar width: 0
Storing dark spectrum: false
XAxis mode: Wavelengths
Number of Pixels in Spectrum: 1024
>>>>>Begin Spectral Data<<<<<
801.071	2906
801.214	2929
801.356	2883
801.499	2891
801.641	2914
801.783	2929
801.926	3036
802.068	2971
802.211	2982
802.353	3055
802.496	2963
802.638	2990
802.78	3051
802.923	3077
803.065	2986
803.208	2872
803.35	2941
803.492	2952
803.635	2937
803.777	2807
803.919	2880
804.061	3218
804.204	2979
804.346	2895
804.488	2811
804.63	2998
804.773	2864
804.915	2933
805.057	3066
805.199	2914
805.341	2929
805.483	3047
805.626	3024
805.768	2956
805.91	3093
806.052	3062
806.194	3036
806.336	3184
806.478	3039
806.62	2944
806.762	3020
806.904	3058
807.046	3154
807.188	2990
807.33	2941
807.472	2998
807.614	2910
807.756	2998
807.898	2941
808.04	2910
808.182	2990
808.324	2941
808.465	2922
808.607	2861
808.749	2819
808.891	2842
809.033	2956
809.174	2967
809.316	2880
809.458	2876
809.6	2769
809.741	2777
809.883	2750
810.025	2861
810.166	2861
810.308	2864
810.45	2849
810.591	2746
810.733	2811
810.875	2872
811.016	2800
811.158	2750
811.299	2800
811.441	2941
811.582	2891
811.724	2834
811.865	2804
812.007	2922
812.148	2895
812.29	2845
812.431	2910
812.573	2979
812.714	2994
812.855	3043
812.997	3055
813.138	3127
813.279	3005
813.421	2967
813.562	2986
813.703	2887
813.845	2883
813.986	2777
814.127	2746
814.268	2872
814.41	2834
814.551	2819
814.692	2864
814.833	2766
814.974	2929
815.115	2952
815.256	2826
815.397	2845
815.539	2845
815.68	2758
815.821	2781
815.962	2948
816.103	2933
816.244	2910
816.385	2880
816.526	2994
816.666	2929
816.807	2731
816.948	2891
817.089	2891
817.23	2857
817.371	2754
817.512	2804
817.653	2853
817.793	2845
817.934	2872
818.075	2994
818.216	2994
818.356	2982
818.497	2891
818.638	2815
818.778	2807
818.919	2807
819.06	2746
819.2	2857
819.341	2781
819.481	2823
819.622	2944
819.762	3085
819.903	3070
820.043	2891
820.184	2922
820.324	2872
820.465	3013
820.605	3020
820.746	3020
820.886	2956
821.026	3089
821.167	3176
821.307	3249
821.447	3313
821.588	3211
821.728	3218
821.868	3195
822.008	3112
822.149	3188
822.289	3237
822.429	3112
822.569	3119
822.709	3173
822.849	3036
822.99	3081
823.13	3199
823.27	3233
823.41	3100
823.55	3097
823.69	3154
823.83	3199
823.97	3119
824.11	3017
824.25	3013
824.389	3085
824.529	3119
824.669	3039
824.809	3199
824.949	3272
825.089	3199
825.228	3184
825.368	3017
825.508	2948
825.648	2937
825.787	3043
825.927	3047
826.067	2986
826.206	2982
826.346	3062
826.485	3066
826.625	3116
826.765	3298
826.904	3214
827.044	2990
827.183	2944
827.323	2864
827.462	2971
827.601	2918
827.741	2922
827.88	2918
828.02	2872
828.159	2971
828.298	3001
828.437	3138
828.577	3051
828.716	3207
828.855	3070
828.994	2887
829.134	2876
829.273	2918
829.412	2861
829.551	2872
829.69	2899
829.829	2982
829.968	3142
830.107	3013
830.246	3032
830.385	2887
830.524	2857
830.663	2823
830.802	2735
830.941	2659
831.08	2629
831.219	2769
831.357	2739
831.496	2956
831.635	2724
831.774	2629
831.913	2678
832.051	2552
832.19	2556
832.329	2651
832.467	2545
832.606	2476
832.744	2579
832.883	2594
833.022	2602
833.16	2648
833.299	2705
833.437	2674
833.576	2697
833.714	2708
833.852	2762
833.991	2720
834.129	2804
834.267	2815
834.406	2773
834.544	2845
834.682	2891
834.821	2830
834.959	3032
835.097	2918
835.235	3100
835.373	3001
835.511	3024
835.65	2990
835.788	2971
835.926	2845
836.064	2819
836.202	2819
836.34	3077
836.478	3195
836.615	3077
836.753	3142
836.891	3188
837.029	3142
837.167	3142
837.305	3093
837.443	2990
837.58	2956
837.718	3119
837.856	3081
837.993	3017
838.131	3100
838.269	3062
838.406	3119
838.544	3081
838.681	2933
838.819	2887
838.956	2792
839.094	2815
839.231	2895
839.369	3051
839.506	3336
839.643	3192
839.781	2960
839.918	2948
840.055	3074
840.193	3062
840.33	3104
840.467	3100
840.604	3146
840.742	3397
840.879	3032
841.016	3051
841.153	3081
841.29	3332
841.427	3287
841.564	3272
841.701	3272
841.838	3188
841.975	3192
842.112	3203
842.249	3070
842.385	3055
842.522	3253
842.659	3077
842.796	3051
842.933	3085
843.069	3013
843.206	3055
843.343	3180
843.479	3112
843.616	3138
843.752	2845
843.889	2842
844.025	3081
844.162	2891
844.298	3074
844.435	2933
844.571	2906
844.708	3062
844.844	3184
844.98	3222
845.117	3192
845.253	3028
845.389	3024
845.525	3131
845.661	3085
845.798	3020
845.934	3131
846.07	3070
846.206	3230
846.342	3332
846.478	3222
846.614	3100
846.75	3062
846.886	3024
847.022	3233
847.158	3104
847.294	3207
847.429	3260
847.565	3253
847.701	3488
847.837	3024
847.972	3020
848.108	3165
848.244	3116
848.379	2971
848.515	2929
848.65	2929
848.786	2975
848.921	3001
849.057	3123
849.192	3116
849.328	3043
849.463	3100
849.598	3089
849.734	3051
849.869	2990
850.004	2876
850.14	2963
850.275	2937
850.41	2838
850.545	2906
850.68	2933
850.815	2948
850.95	2971
851.085	3192
851.22	3112
851.355	3028
851.49	2941
851.625	3001
851.76	3020
851.895	2918
852.03	2902
852.165	3017
852.299	3066
852.434	3211
852.569	3085
852.703	3195
852.838	3233
852.973	3302
853.107	3317
853.242	3173
853.376	3066
853.511	2956
853.645	2998
853.78	3199
853.914	3085
854.048	3093
854.183	3108
854.317	3169
854.451	3298
854.585	3169
854.72	3081
854.854	3211
854.988	3036
855.122	3081
855.256	2990
855.39	3112
855.524	3233
855.658	3192
855.792	3161
855.926	3195
856.06	3211
856.194	3275
856.327	3154
856.461	3055
856.595	3077
856.729	3062
856.862	3211
856.996	3154
857.13	3222
857.263	3230
857.397	3241
857.53	3077
857.664	3226
857.797	3222
857.931	3245
858.064	3150
858.197	3203
858.331	3142
858.464	3089
858.597	3001
858.731	3085
858.864	3127
858.997	3085
859.13	3154
859.263	3150
859.396	3176
859.529	3043
859.662	3066
859.795	3077
859.928	3146
860.061	3256
860.194	3272
860.327	3135
860.46	3077
860.592	3214
860.725	3253
860.858	3237
860.99	3100
861.123	3055
861.256	3043
861.388	3169
861.521	3808
861.653	3043
861.786	2982
861.918	2998
862.05	3058
862.183	3112
862.315	3173
862.447	3214
862.58	3104
862.712	2956
862.844	2918
862.976	3005
863.108	3028
863.24	3336
863.372	2845
863.504	2975
863.636	2960
863.768	3024
863.9	2948
864.032	2902
864.164	2952
864.296	3005
864.428	3055
864.559	3104
864.691	3104
864.823	3062
864.954	3043
865.086	3051
865.217	2994
865.349	2982
865.48	2982
865.612	3066
865.743	3142
865.875	2990
866.006	2941
866.137	2986
866.269	2918
866.4	2914
866.531	2952
866.662	2902
866.793	2864
866.924	2899
867.055	3009
867.186	2899
867.317	2842
867.448	2838
867.579	2857
867.71	2857
867.841	2804
867.972	2914
868.103	2868
868.233	2883
868.364	2880
868.495	2891
868.625	3062
868.756	3150
868.886	2960
869.017	3009
869.147	3146
869.278	3150
869.408	3005
869.539	3028
869.669	3055
869.799	3009
869.929	3138
870.06	3077
870.19	3294
870.32	3287
870.45	3298
870.58	3351
870.71	3420
870.84	3443
870.97	3329
871.1	3203
871.23	3500
871.36	3443
871.489	3363
871.619	3367
871.749	3393
871.879	3450
872.008	3466
872.138	3340
872.267	3294
872.397	3169
872.526	3093
872.656	3055
872.785	3085
872.915	3226
873.044	3264
873.173	3211
873.303	3237
873.432	3241
873.561	3233
873.69	3165
873.819	3138
873.948	3188
874.077	3104
874.206	3028
874.335	3150
874.464	3256
874.593	3351
874.722	3256
874.851	3359
874.979	3325
875.108	3294
875.237	3184
875.365	3161
875.494	3176
875.623	3203
875.751	3119
875.88	3093
876.008	3169
876.136	3218
876.265	3382
876.393	3507
876.521	3428
876.65	3405
876.778	3302
876.906	3237
877.034	3192
877.162	3226
877.29	3195
877.418	3275
877.546	3230
877.674	3203
877.802	3237
877.93	3218
878.058	3135
878.185	3097
878.313	3176
878.441	3218
878.568	3066
878.696	3184
878.824	3253
878.951	3302
879.079	3454
879.206	3587
879.333	3405
879.461	3313
879.588	3386
879.715	3488
879.842	3587
879.97	3321
880.097	3146
880.224	3093
880.351	3199
880.478	3264
880.605	3199
880.732	3199
880.859	3462
880.986	3317
881.112	3306
881.239	3192
881.366	3074
881.493	3047
881.619	3013
881.746	3058
881.872	3089
881.999	3100
882.125	3116
882.252	3214
882.378	3310
882.505	3439
882.631	3306
882.757	3123
882.883	3230
883.01	3211
883.136	3173
883.262	3100
883.388	3077
883.514	3321
883.64	3389
883.766	3275
883.892	3161
884.018	3214
884.143	3409
884.269	3545
884.395	3226
884.52	3127
884.646	3169
884.772	3116
884.897	3116
885.023	3222
885.148	3355
885.274	3370
885.399	3336
885.524	3260
885.65	3230
885.775	3287
885.9	3272
886.025	3435
886.15	3348
886.275	3283
886.4	3214
886.525	3329
886.65	3287
886.775	3249
886.9	3507
887.025	3629
887.149	3447
887.274	3233
887.399	3169
887.523	3188
887.648	3195
887.773	3195
887.897	3348
888.021	3420
888.146	3283
888.27	3424
888.395	3511
888.519	3469
888.643	3481
888.767	3454
888.891	3272
889.015	3211
889.139	3329
889.263	3260
889.387	3412
889.511	3507
889.635	3454
889.759	3283
889.883	3245
890.006	3397
890.13	3488
890.254	3256
890.377	3313
890.501	3192
890.624	3154
890.748	3313
890.871	3184
890.995	3097
891.118	3055
891.241	3188
891.364	3195
891.488	3321
891.611	3192
891.734	3203
891.857	3253
891.98	3226
892.103	3325
892.226	3275
892.349	3203
892.471	3116
892.594	3173
892.717	3317
892.839	3310
892.962	3283
893.085	3393
893.207	3317
893.33	3195
893.452	3230
893.575	3344
893.697	3260
893.819	3477
893.941	3504
894.064	3454
894.186	3233
894.308	3275
894.43	3435
894.552	3496
894.674	3500
894.796	3249
894.918	3287
895.04	3283
895.161	3431
895.283	3340
895.405	3275
895.526	3306
895.648	3428
895.769	3420
895.891	3462
896.012	3462
896.134	3462
896.255	3382
896.376	3405
896.498	3363
896.619	3428
896.74	3393
896.861	3412
896.982	3671
897.103	3797
897.224	3606
897.345	3492
897.466	3409
897.587	3488
897.708	3614
897.828	3526
897.949	3481
898.07	3310
898.19	3382
898.311	3576
898.431	3466
898.552	3485
898.672	3572
898.792	3587
898.913	3515
899.033	3401
899.153	3272
899.273	3195
899.393	3287
899.513	3287
899.633	3302
899.753	3348
899.873	3264
899.993	3389
900.113	3329
900.232	3382
900.352	3317
900.472	3275
900.591	3192
900.711	3321
900.83	3230
900.95	3412
901.069	3500
901.189	3340
901.308	3211
901.427	3116
901.546	3127
901.665	3302
901.784	3310
901.904	3218
902.023	3135
902.141	3028
902.26	2979
902.379	3165
902.498	3085
902.617	3055
902.735	3180
902.854	3237
902.973	3195
903.091	3024
903.21	3051
903.328	3146
903.446	3077
903.565	3074
903.683	3195
903.801	3104
903.919	3203
904.038	3260
904.156	3173
904.274	3329
904.392	3260
904.51	3287
904.627	3321
904.745	3405
904.863	3485
904.981	3260
905.098	3165
905.216	3211
905.334	3275
905.451	3294
905.569	3325
905.686	3439
905.803	3439
905.921	3260
906.038	3409
906.155	3332
906.272	3287
906.389	3370
906.506	3218
906.623	3272
906.74	3275
906.857	3157
906.974	3272
907.091	3454
907.208	3587
907.324	3447
907.441	3386
907.557	3245
907.674	3264
907.79	3203
907.907	3275
908.023	3386
908.139	3370
908.256	3351
908.372	3389
908.488	3340
908.604	3264
908.72	3226
908.836	3272
908.952	3294
909.068	3317
909.184	3435
909.3	3397
909.415	3492
909.531	3477
909.647	3253
909.762	3275
909.878	3283
909.993	3359
910.108	3336
910.224	3291
910.339	3409
910.454	3298
910.57	3306
910.685	3211
910.8	3572
910.915	3515
911.03	3424
911.145	3249
911.259	3291
911.374	3329
911.489	3211
911.604	3211
911.718	3123
911.833	3146
911.947	3024
912.062	3009
912.176	3150
912.291	3173
912.405	3195
912.519	3431
912.633	3462
912.748	3317
912.862	3294
912.976	3188
913.09	3081
913.204	3146
913.318	3218
913.431	3321
913.545	3336
913.659	3416
913.772	3329
913.886	3218
914	3176
914.113	3355
914.226	3416
914.34	3351
914.453	3218
914.566	3397
914.68	3279
914.793	3275
914.906	3138
915.019	3150
915.132	3081
915.245	3135
915.358	3169
915.47	3184
915.583	3264
915.696	3291
915.809	3428
915.921	3386
916.034	3245
916.146	3264
916.259	3211
916.371	3393
916.483	3397
916.595	3298
916.708	3325
916.82	3302
916.932	3325
917.044	3329
917.156	3412
917.268	3245
917.38	3340
917.491	3291
917.603	3355
917.715	3450
917.826	3466
917.938	3382
918.049	3256
918.161	3393
918.272	3584
918.384	3584
918.495	3500
918.606	3336
918.717	3272
918.828	3382
918.939	3412
919.05	3283
919.161	3370
919.272	3230
919.383	3291
919.494	3481
919.604	3671
919.715	3473
919.826	3393
919.936	3454
920.047	3618
920.157	3549
920.267	3751
920.378	3553
920.488	3580
920.598	3732
920.708	3953
920.818	3816
920.928	3835
921.038	4021
921.148	3983
921.258	3675
921.368	3595
921.477	3557
921.587	3557
921.697	3431
921.806	3667
921.916	3507
922.025	3317
922.134	3355
922.244	3294
922.353	3420
922.462	3256
922.571	3218
922.68	3100
922.789	3093
922.898	3135
923.007	3100
923.116	3245
923.224	3176
923.333	3176
923.442	3081
923.55	3104
923.659	3116
923.767	3218
923.876	3138
923.984	3264
924.092	3089
924.201	3214
924.309	3214
924.417	3260
924.525	3180
924.633	3245
924.741	4013
924.849	3028
924.956	3279
925.064	3097
925.172	3085
925.279	3077
925.387	3230
925.494	3188
925.602	3359
925.709	3310
925.816	3211
925.924	3264
926.031	3374
926.138	3359
926.245	3313
926.352	3233
926.459	3420
926.566	3507
926.673	3291
926.779	3249
926.886	3237
926.993	3146
927.099	3131
927.206	3100
927.312	3116
927.419	3211
927.525	3237
927.631	3241
927.737	3150
927.843	3135
927.95	3001
928.056	3127
928.162	3146
928.267	3268
928.373	3884
928.479	3321
928.585	3070
928.69	3199
928.796	3268
928.901	3184
929.007	3043
929.112	3230
929.218	3169
929.323	3142
929.428	3146
929.533	3329
929.638	3119
929.743	3176
929.848	3264
929.953	3161
930.058	3112
930.163	3013
930.267	3047
930.372	3195
930.477	3017
930.581	3302
930.685	3180
930.79	3085
930.894	3116
930.998	3085
931.103	3279
931.207	2929
931.311	2956
931.415	2906
931.519	2769
931.623	2788
