Data from test_V78500241_928.txt Node
Date: Fri Mar 25 16:21:37 CST 2022
User: usil
Spectrometer: V785-0024
Trigger mode: 0
Integration Time (sec): 4.000000E-1
Scans to average: 1
Nonlinearity correction enabled: false
Boxcar width: 0
Storing dark spectrum: false
XAxis mode: Wavelengths
Number of Pixels in Spectrum: 1024
>>>>>Begin Spectral Data<<<<<
801.071	2952
801.214	2971
801.356	2902
801.499	2925
801.641	2941
801.783	2963
801.926	3074
802.068	2948
802.211	3001
802.353	3081
802.496	2963
802.638	3043
802.78	3062
802.923	3081
803.065	3001
803.208	2902
803.35	2925
803.492	3005
803.635	2990
803.777	2739
803.919	2842
804.061	3173
804.204	2979
804.346	2952
804.488	2876
804.63	3058
804.773	2887
804.915	2933
805.057	3066
805.199	2941
805.341	3017
805.483	3028
805.626	3009
805.768	3001
805.91	3104
806.052	3161
806.194	3097
806.336	3256
806.478	3043
806.62	2956
806.762	2971
806.904	3100
807.046	3173
807.188	2998
807.33	2963
807.472	2998
807.614	2895
807.756	2990
807.898	2933
808.04	2914
808.182	2986
808.324	2979
808.465	2918
808.607	2883
808.749	2804
808.891	2887
809.033	2952
809.174	2982
809.316	2864
809.458	2910
809.6	2777
809.741	2785
809.883	2815
810.025	2872
810.166	2849
810.308	2864
810.45	2861
810.591	2777
810.733	2807
810.875	2857
811.016	2811
811.158	2766
811.299	2845
811.441	2914
811.582	2891
811.724	2826
811.865	2876
812.007	2948
812.148	2933
812.29	2880
812.431	2857
812.573	2918
812.714	2975
812.855	3043
812.997	3062
813.138	3173
813.279	3028
813.421	3017
813.562	2990
813.703	2914
813.845	2880
813.986	2773
814.127	2750
814.268	2845
814.41	2845
814.551	2834
814.692	2883
814.833	2804
814.974	2906
815.115	2986
815.256	2823
815.397	2849
815.539	2891
815.68	2750
815.821	2796
815.962	2948
816.103	2956
816.244	2849
816.385	2853
816.526	2998
816.666	2952
816.807	2766
816.948	2910
817.089	2914
817.23	2845
817.371	2804
817.512	2807
817.653	2842
817.793	2849
817.934	2887
818.075	2960
818.216	2986
818.356	3051
818.497	2933
818.638	2815
818.778	2830
818.919	2807
819.06	2781
819.2	2887
819.341	2842
819.481	2830
819.622	2944
819.762	3119
819.903	3032
820.043	2929
820.184	2922
820.324	2906
820.465	3001
820.605	3020
820.746	3055
820.886	2979
821.026	3100
821.167	3207
821.307	3241
821.447	3272
821.588	3237
821.728	3230
821.868	3226
822.008	3108
822.149	3173
822.289	3268
822.429	3077
822.569	3077
822.709	3188
822.849	3089
822.99	3100
823.13	3173
823.27	3226
823.41	3127
823.55	3173
823.69	3165
823.83	3214
823.97	3104
824.11	3013
824.25	3020
824.389	3070
824.529	3142
824.669	3051
824.809	3237
824.949	3283
825.089	3230
825.228	3180
825.368	2982
825.508	2948
825.648	2971
825.787	3024
825.927	3024
826.067	2986
826.206	2994
826.346	3077
826.485	3066
826.625	3062
826.765	3287
826.904	3249
827.044	3020
827.183	2975
827.323	2864
827.462	3024
827.601	2922
827.741	2918
827.88	2975
828.02	2887
828.159	3009
828.298	3051
828.437	3173
828.577	3051
828.716	3230
828.855	3039
828.994	2929
829.134	2906
829.273	2891
829.412	2857
829.551	2883
829.69	2902
829.829	2979
829.968	3150
830.107	3039
830.246	3005
830.385	2922
830.524	2887
830.663	2842
830.802	2739
830.941	2667
831.08	2678
831.219	2781
831.357	2811
831.496	2956
831.635	2727
831.774	2651
831.913	2693
832.051	2564
832.19	2617
832.329	2708
832.467	2541
832.606	2473
832.744	2621
832.883	2571
833.022	2610
833.16	2686
833.299	2689
833.437	2735
833.576	2724
833.714	2735
833.852	2735
833.991	2785
834.129	2872
834.267	2819
834.406	2800
834.544	2861
834.682	2883
834.821	2853
834.959	3070
835.097	2902
835.235	3055
835.373	3009
835.511	3028
835.65	2963
835.788	2956
835.926	2800
836.064	2804
836.202	2864
836.34	3074
836.478	3150
836.615	3070
836.753	3116
836.891	3188
837.029	3154
837.167	3127
837.305	3089
837.443	3020
837.58	2971
837.718	3131
837.856	3043
837.993	3009
838.131	3119
838.269	3077
838.406	3108
838.544	3123
838.681	2918
838.819	2944
838.956	2823
839.094	2834
839.231	2937
839.369	2975
839.506	3329
839.643	3188
839.781	3009
839.918	2979
840.055	3024
840.193	3055
840.33	3077
840.467	3138
840.604	3192
840.742	3412
840.879	3081
841.016	3032
841.153	3116
841.29	3298
841.427	3298
841.564	3310
841.701	3321
841.838	3218
841.975	3150
842.112	3218
842.249	3100
842.385	3081
842.522	3230
842.659	3093
842.796	3058
842.933	3108
843.069	3036
843.206	3058
843.343	3188
843.479	3100
843.616	3161
843.752	2887
843.889	2891
844.025	3070
844.162	2887
844.298	3089
844.435	2982
844.571	2944
844.708	3055
844.844	3188
844.98	3260
845.117	3218
845.253	3032
845.389	3005
845.525	3104
845.661	3097
845.798	2998
845.934	3131
846.07	3051
846.206	3211
846.342	3306
846.478	3241
846.614	3131
846.75	3024
846.886	3036
847.022	3222
847.158	3116
847.294	3192
847.429	3222
847.565	3195
847.701	3477
847.837	2998
847.972	3028
848.108	3176
848.244	3165
848.379	2986
848.515	2941
848.65	2918
848.786	2937
848.921	2986
849.057	3070
849.192	3119
849.328	3112
849.463	3104
849.598	3055
849.734	3062
849.869	2998
850.004	2922
850.14	2960
850.275	2933
850.41	2842
850.545	2857
850.68	2922
850.815	2933
850.95	3001
851.085	3203
851.22	3070
851.355	3043
851.49	2994
851.625	3032
851.76	3024
851.895	2944
852.03	2899
852.165	3036
852.299	3138
852.434	3188
852.569	3142
852.703	3203
852.838	3268
852.973	3348
853.107	3306
853.242	3169
853.376	3146
853.511	2998
853.645	2994
853.78	3237
853.914	3150
854.048	3104
854.183	3108
854.317	3180
854.451	3310
854.585	3127
854.72	3108
854.854	3233
854.988	3058
855.122	3093
855.256	2971
855.39	3123
855.524	3230
855.658	3192
855.792	3146
855.926	3180
856.06	3233
856.194	3260
856.327	3176
856.461	3039
856.595	3085
856.729	3066
856.862	3214
856.996	3127
857.13	3195
857.263	3214
857.397	3237
857.53	3157
857.664	3169
857.797	3226
857.931	3272
858.064	3161
858.197	3230
858.331	3104
858.464	3077
858.597	3017
858.731	3108
858.864	3116
858.997	3089
859.13	3131
859.263	3180
859.396	3195
859.529	3066
859.662	3081
859.795	3051
859.928	3161
860.061	3283
860.194	3275
860.327	3119
860.46	3089
860.592	3233
860.725	3256
860.858	3230
860.99	3093
861.123	3055
861.256	3074
861.388	3138
861.521	3804
861.653	3032
861.786	3009
861.918	3024
862.05	3051
862.183	3070
862.315	3180
862.447	3165
862.58	3085
862.712	2910
862.844	2849
862.976	2998
863.108	2994
863.24	3363
863.372	2845
863.504	2944
863.636	2956
863.768	3047
863.9	2910
864.032	2906
864.164	2937
864.296	3013
864.428	3097
864.559	3104
864.691	3055
864.823	3100
864.954	3039
865.086	3074
865.217	2975
865.349	2986
865.48	2994
865.612	3032
865.743	3157
865.875	2960
866.006	2937
866.137	2990
866.269	2922
866.4	2925
866.531	2925
866.662	2906
866.793	2880
866.924	2895
867.055	2998
867.186	2933
867.317	2891
867.448	2815
867.579	2849
867.71	2826
867.841	2811
867.972	2887
868.103	2887
868.233	2891
868.364	2887
868.495	2910
868.625	3047
868.756	3169
868.886	2963
869.017	3093
869.147	3169
869.278	3165
869.408	3055
869.539	3017
869.669	3135
869.799	3013
869.929	3146
870.06	3108
870.19	3313
870.32	3291
870.45	3310
870.58	3367
870.71	3462
870.84	3469
870.97	3253
871.1	3222
871.23	3469
871.36	3477
871.489	3332
871.619	3370
871.749	3428
871.879	3450
872.008	3439
872.138	3363
872.267	3291
872.397	3142
872.526	3108
872.656	3017
872.785	3097
872.915	3233
873.044	3306
873.173	3230
873.303	3264
873.432	3233
873.561	3233
873.69	3131
873.819	3146
873.948	3154
874.077	3116
874.206	3013
874.335	3112
874.464	3230
874.593	3336
874.722	3253
874.851	3378
874.979	3351
875.108	3310
875.237	3211
875.365	3176
875.494	3154
875.623	3249
875.751	3081
875.88	3093
876.008	3184
876.136	3256
876.265	3382
876.393	3530
876.521	3393
876.65	3424
876.778	3340
876.906	3245
877.034	3180
877.162	3233
877.29	3146
877.418	3275
877.546	3211
877.674	3264
877.802	3211
877.93	3214
878.058	3184
878.185	3081
878.313	3218
878.441	3218
878.568	3066
878.696	3161
878.824	3218
878.951	3302
879.079	3405
879.206	3629
879.333	3443
879.461	3321
879.588	3370
879.715	3485
879.842	3591
879.97	3401
880.097	3180
880.224	3108
880.351	3150
880.478	3222
880.605	3173
880.732	3146
880.859	3500
880.986	3317
881.112	3313
881.239	3222
881.366	3074
881.493	3036
881.619	3009
881.746	3093
881.872	3097
881.999	3093
882.125	3150
882.252	3249
882.378	3279
882.505	3431
882.631	3275
882.757	3165
882.883	3176
883.01	3222
883.136	3157
883.262	3089
883.388	3123
883.514	3325
883.64	3382
883.766	3313
883.892	3207
884.018	3241
884.143	3374
884.269	3557
884.395	3211
884.52	3154
884.646	3169
884.772	3116
884.897	3062
885.023	3199
885.148	3313
885.274	3431
885.399	3386
885.524	3287
885.65	3222
885.775	3351
885.9	3272
886.025	3401
886.15	3359
886.275	3294
886.4	3214
886.525	3294
886.65	3214
886.775	3264
886.9	3511
887.025	3622
887.149	3412
887.274	3211
887.399	3214
887.523	3237
887.648	3165
887.773	3184
887.897	3332
888.021	3416
888.146	3279
888.27	3443
888.395	3553
888.519	3447
888.643	3416
888.767	3466
888.891	3313
889.015	3245
889.139	3253
889.263	3256
889.387	3428
889.511	3538
889.635	3435
889.759	3279
889.883	3291
890.006	3355
890.13	3507
890.254	3249
890.377	3355
890.501	3222
890.624	3192
890.748	3298
890.871	3180
890.995	3104
891.118	3077
891.241	3188
891.364	3253
891.488	3317
891.611	3157
891.734	3233
891.857	3256
891.98	3256
892.103	3317
892.226	3256
892.349	3188
892.471	3093
892.594	3241
892.717	3329
892.839	3256
892.962	3313
893.085	3363
893.207	3264
893.33	3150
893.452	3214
893.575	3325
893.697	3241
893.819	3496
893.941	3500
894.064	3477
894.186	3264
894.308	3268
894.43	3462
894.552	3545
894.674	3488
894.796	3226
894.918	3329
895.04	3287
895.161	3450
895.283	3363
895.405	3275
895.526	3416
895.648	3424
895.769	3420
895.891	3439
896.012	3477
896.134	3469
896.255	3454
896.376	3386
896.498	3393
896.619	3386
896.74	3359
896.861	3424
896.982	3686
897.103	3812
897.224	3614
897.345	3477
897.466	3416
897.587	3519
897.708	3648
897.828	3561
897.949	3424
898.07	3336
898.19	3420
898.311	3625
898.431	3439
898.552	3511
898.672	3610
898.792	3584
898.913	3504
899.033	3405
899.153	3279
899.273	3211
899.393	3302
899.513	3340
899.633	3294
899.753	3317
899.873	3298
899.993	3359
900.113	3317
900.232	3416
900.352	3325
900.472	3302
900.591	3173
900.711	3287
900.83	3226
900.95	3401
901.069	3466
901.189	3340
901.308	3207
901.427	3131
901.546	3188
901.665	3332
901.784	3313
901.904	3199
902.023	3154
902.141	3024
902.26	2982
902.379	3146
902.498	3062
902.617	3043
902.735	3188
902.854	3230
902.973	3184
903.091	3051
903.21	3070
903.328	3180
903.446	3100
903.565	3108
903.683	3184
903.801	3123
903.919	3253
904.038	3306
904.156	3169
904.274	3287
904.392	3283
904.51	3294
904.627	3306
904.745	3378
904.863	3488
904.981	3260
905.098	3150
905.216	3222
905.334	3291
905.451	3260
905.569	3306
905.686	3435
905.803	3447
905.921	3256
906.038	3420
906.155	3317
906.272	3260
906.389	3332
906.506	3218
906.623	3272
906.74	3256
906.857	3180
906.974	3268
907.091	3481
907.208	3515
907.324	3481
907.441	3397
907.557	3256
907.674	3207
907.79	3218
907.907	3306
908.023	3367
908.139	3393
908.256	3306
908.372	3389
908.488	3317
908.604	3253
908.72	3233
908.836	3256
908.952	3313
909.068	3332
909.184	3488
909.3	3386
909.415	3492
909.531	3473
909.647	3253
909.762	3294
909.878	3241
909.993	3340
910.108	3340
910.224	3363
910.339	3397
910.454	3336
910.57	3287
910.685	3211
910.8	3557
910.915	3504
911.03	3428
911.145	3313
911.259	3287
911.374	3340
911.489	3230
911.604	3211
911.718	3055
911.833	3108
911.947	2998
912.062	2986
912.176	3169
912.291	3157
912.405	3214
912.519	3416
912.633	3462
912.748	3294
912.862	3287
912.976	3142
913.09	3055
913.204	3116
913.318	3211
913.431	3325
913.545	3317
913.659	3409
913.772	3310
913.886	3218
914	3188
914.113	3367
914.226	3439
914.34	3367
914.453	3230
914.566	3424
914.68	3272
914.793	3306
914.906	3169
915.019	3119
915.132	3085
915.245	3161
915.358	3188
915.47	3222
915.583	3294
915.696	3260
915.809	3409
915.921	3439
916.034	3253
916.146	3260
916.259	3207
916.371	3370
916.483	3355
916.595	3325
916.708	3348
916.82	3378
916.932	3313
917.044	3355
917.156	3351
917.268	3241
917.38	3306
917.491	3321
917.603	3363
917.715	3462
917.826	3473
917.938	3378
918.049	3272
918.161	3443
918.272	3576
918.384	3614
918.495	3462
918.606	3306
918.717	3253
918.828	3363
918.939	3409
919.05	3302
919.161	3378
919.272	3203
919.383	3268
919.494	3466
919.604	3671
919.715	3485
919.826	3389
919.936	3485
920.047	3595
920.157	3504
920.267	3743
920.378	3618
920.488	3568
920.598	3823
920.708	3949
920.818	3816
920.928	3823
921.038	4002
921.148	3991
921.258	3682
921.368	3618
921.477	3595
921.587	3526
921.697	3466
921.806	3614
921.916	3515
922.025	3374
922.134	3386
922.244	3340
922.353	3401
922.462	3291
922.571	3218
922.68	3089
922.789	3051
922.898	3108
923.007	3093
923.116	3188
923.224	3154
923.333	3192
923.442	3104
923.55	3070
923.659	3150
923.767	3184
923.876	3093
923.984	3192
924.092	3119
924.201	3173
924.309	3230
924.417	3176
924.525	3176
924.633	3230
924.741	4192
924.849	3028
924.956	3268
925.064	3108
925.172	2994
925.279	3112
925.387	3222
925.494	3127
925.602	3363
925.709	3306
925.816	3154
925.924	3241
926.031	3374
926.138	3298
926.245	3325
926.352	3249
926.459	3439
926.566	3481
926.673	3325
926.779	3256
926.886	3230
926.993	3112
927.099	3142
927.206	3116
927.312	3089
927.419	3214
927.525	3199
927.631	3245
927.737	3131
927.843	3108
927.95	2979
928.056	3116
928.162	3150
928.267	3230
928.373	3865
928.479	3294
928.585	3112
928.69	3180
928.796	3249
928.901	3161
929.007	3039
929.112	3245
929.218	3165
929.323	3165
929.428	3169
929.533	3325
929.638	3123
929.743	3150
929.848	3264
929.953	3180
930.058	3112
930.163	3036
930.267	3074
930.372	3188
930.477	3047
930.581	3298
930.685	3138
930.79	3055
930.894	3131
930.998	3047
931.103	3222
931.207	2975
931.311	2922
931.415	2925
931.519	2766
931.623	2804
