Data from test_V78500241_237.txt Node
Date: Fri Mar 25 16:16:50 CST 2022
User: usil
Spectrometer: V785-0024
Trigger mode: 0
Integration Time (sec): 4.000000E-1
Scans to average: 1
Nonlinearity correction enabled: false
Boxcar width: 0
Storing dark spectrum: false
XAxis mode: Wavelengths
Number of Pixels in Spectrum: 1024
>>>>>Begin Spectral Data<<<<<
801.071	2925
801.214	2937
801.356	2853
801.499	2941
801.641	2895
801.783	2948
801.926	3051
802.068	2986
802.211	3005
802.353	3028
802.496	2967
802.638	3017
802.78	3039
802.923	3062
803.065	2960
803.208	2899
803.35	2906
803.492	2910
803.635	2925
803.777	2773
803.919	2876
804.061	3184
804.204	2963
804.346	2906
804.488	2834
804.63	3005
804.773	2910
804.915	2933
805.057	3074
805.199	2941
805.341	3005
805.483	3032
805.626	3043
805.768	2963
805.91	3062
806.052	3131
806.194	3017
806.336	3222
806.478	3001
806.62	2963
806.762	3017
806.904	3020
807.046	3154
807.188	2994
807.33	2922
807.472	2990
807.614	2902
807.756	2975
807.898	2944
808.04	2906
808.182	2956
808.324	2963
808.465	2876
808.607	2952
808.749	2811
808.891	2842
809.033	2986
809.174	3001
809.316	2906
809.458	2895
809.6	2766
809.741	2769
809.883	2769
810.025	2807
810.166	2853
810.308	2842
810.45	2868
810.591	2804
810.733	2769
810.875	2807
811.016	2766
811.158	2754
811.299	2781
811.441	2948
811.582	2872
811.724	2819
811.865	2842
812.007	2895
812.148	2895
812.29	2834
812.431	2891
812.573	2944
812.714	2941
812.855	3070
812.997	3036
813.138	3093
813.279	3005
813.421	3005
813.562	2937
813.703	2887
813.845	2891
813.986	2769
814.127	2769
814.268	2861
814.41	2838
814.551	2796
814.692	2864
814.833	2819
814.974	2891
815.115	2956
815.256	2834
815.397	2823
815.539	2876
815.68	2777
815.821	2792
815.962	2971
816.103	2918
816.244	2914
816.385	2864
816.526	2967
816.666	2956
816.807	2762
816.948	2887
817.089	2902
817.23	2872
817.371	2815
817.512	2807
817.653	2864
817.793	2796
817.934	2883
818.075	2944
818.216	2994
818.356	3036
818.497	2876
818.638	2781
818.778	2861
818.919	2823
819.06	2785
819.2	2845
819.341	2788
819.481	2830
819.622	2941
819.762	3123
819.903	3058
820.043	2906
820.184	2887
820.324	2899
820.465	3013
820.605	3032
820.746	3051
820.886	2967
821.026	3093
821.167	3150
821.307	3287
821.447	3275
821.588	3222
821.728	3211
821.868	3211
822.008	3074
822.149	3192
822.289	3237
822.429	3108
822.569	3051
822.709	3165
822.849	3043
822.99	3104
823.13	3184
823.27	3195
823.41	3093
823.55	3154
823.69	3142
823.83	3176
823.97	3070
824.11	3005
824.25	2967
824.389	3097
824.529	3104
824.669	3062
824.809	3249
824.949	3256
825.089	3260
825.228	3154
825.368	3047
825.508	2986
825.648	2994
825.787	3047
825.927	2994
826.067	2967
826.206	2960
826.346	3036
826.485	3112
826.625	3119
826.765	3306
826.904	3169
827.044	3005
827.183	2933
827.323	2845
827.462	2967
827.601	2933
827.741	2967
827.88	2982
828.02	2876
828.159	2986
828.298	3043
828.437	3112
828.577	3055
828.716	3226
828.855	3070
828.994	2922
829.134	2902
829.273	2956
829.412	2883
829.551	2864
829.69	2910
829.829	3001
829.968	3173
830.107	3039
830.246	2990
830.385	2899
830.524	2887
830.663	2815
830.802	2743
830.941	2670
831.08	2663
831.219	2766
831.357	2754
831.496	2948
831.635	2712
831.774	2651
831.913	2667
832.051	2579
832.19	2537
832.329	2697
832.467	2575
832.606	2473
832.744	2602
832.883	2579
833.022	2587
833.16	2655
833.299	2701
833.437	2693
833.576	2670
833.714	2739
833.852	2735
833.991	2731
834.129	2815
834.267	2815
834.406	2804
834.544	2872
834.682	2891
834.821	2857
834.959	3074
835.097	2952
835.235	3055
835.373	3001
835.511	3036
835.65	2967
835.788	2929
835.926	2834
836.064	2811
836.202	2872
836.34	3119
836.478	3135
836.615	3047
836.753	3097
836.891	3218
837.029	3157
837.167	3116
837.305	3074
837.443	3070
837.58	2956
837.718	3146
837.856	3062
837.993	3028
838.131	3112
838.269	3089
838.406	3127
838.544	3100
838.681	2937
838.819	2967
838.956	2800
839.094	2838
839.231	2887
839.369	3032
839.506	3329
839.643	3218
839.781	3024
839.918	2941
840.055	3036
840.193	3055
840.33	3081
840.467	3112
840.604	3131
840.742	3435
840.879	3108
841.016	3047
841.153	3074
841.29	3355
841.427	3287
841.564	3283
841.701	3351
841.838	3260
841.975	3150
842.112	3195
842.249	3116
842.385	3036
842.522	3218
842.659	3104
842.796	3047
842.933	3093
843.069	3039
843.206	3058
843.343	3157
843.479	3150
843.616	3176
843.752	2906
843.889	2880
844.025	3062
844.162	2906
844.298	3100
844.435	2944
844.571	2891
844.708	3077
844.844	3180
844.98	3222
845.117	3199
845.253	3066
845.389	2998
845.525	3097
845.661	3089
845.798	3024
845.934	3097
846.07	3036
846.206	3233
846.342	3325
846.478	3211
846.614	3081
846.75	3051
846.886	3005
847.022	3249
847.158	3138
847.294	3192
847.429	3249
847.565	3207
847.701	3454
847.837	3024
847.972	2975
848.108	3169
848.244	3173
848.379	2975
848.515	2925
848.65	2933
848.786	2979
848.921	3032
849.057	3093
849.192	3157
849.328	3074
849.463	3108
849.598	3085
849.734	3036
849.869	2952
850.004	2941
850.14	2982
850.275	2922
850.41	2849
850.545	2872
850.68	2933
850.815	2941
850.95	2998
851.085	3195
851.22	3089
851.355	3043
851.49	2975
851.625	3028
851.76	2979
851.895	2960
852.03	2887
852.165	3036
852.299	3138
852.434	3154
852.569	3161
852.703	3142
852.838	3256
852.973	3329
853.107	3351
853.242	3169
853.376	3112
853.511	2982
853.645	3024
853.78	3233
853.914	3138
854.048	3108
854.183	3116
854.317	3184
854.451	3317
854.585	3138
854.72	3081
854.854	3203
854.988	3043
855.122	3074
855.256	2967
855.39	3131
855.524	3199
855.658	3176
855.792	3165
855.926	3203
856.06	3253
856.194	3268
856.327	3165
856.461	3081
856.595	3047
856.729	3077
856.862	3218
856.996	3157
857.13	3157
857.263	3207
857.397	3291
857.53	3142
857.664	3195
857.797	3199
857.931	3310
858.064	3142
858.197	3207
858.331	3161
858.464	3135
858.597	3009
858.731	3112
858.864	3138
858.997	3089
859.13	3165
859.263	3207
859.396	3211
859.529	3085
859.662	3085
859.795	3017
859.928	3154
860.061	3275
860.194	3302
860.327	3142
860.46	3104
860.592	3230
860.725	3218
860.858	3260
860.99	3138
861.123	3066
861.256	3043
861.388	3131
861.521	3838
861.653	2979
861.786	3009
861.918	2998
862.05	3066
862.183	3108
862.315	3135
862.447	3226
862.58	3097
862.712	2963
862.844	2876
862.976	3051
863.108	2990
863.24	3275
863.372	2876
863.504	2948
863.636	2963
863.768	3047
863.9	2960
864.032	2922
864.164	2952
864.296	3032
864.428	3138
864.559	3127
864.691	3093
864.823	3074
864.954	3032
865.086	3043
865.217	2998
865.349	2986
865.48	2982
865.612	3024
865.743	3131
865.875	2994
866.006	2948
866.137	2941
866.269	2937
866.4	2914
866.531	2937
866.662	2880
866.793	2914
866.924	2918
867.055	2990
867.186	2933
867.317	2902
867.448	2868
867.579	2864
867.71	2845
867.841	2826
867.972	2922
868.103	2902
868.233	2944
868.364	2899
868.495	2883
868.625	3085
868.756	3180
868.886	2971
869.017	3028
869.147	3188
869.278	3176
869.408	3017
869.539	3074
869.669	3112
869.799	3070
869.929	3112
870.06	3081
870.19	3325
870.32	3275
870.45	3340
870.58	3378
870.71	3469
870.84	3454
870.97	3325
871.1	3226
871.23	3523
871.36	3458
871.489	3363
871.619	3420
871.749	3416
871.879	3488
872.008	3515
872.138	3329
872.267	3298
872.397	3127
872.526	3074
872.656	3066
872.785	3062
872.915	3226
873.044	3336
873.173	3233
873.303	3253
873.432	3199
873.561	3256
873.69	3180
873.819	3157
873.948	3199
874.077	3112
874.206	3020
874.335	3097
874.464	3230
874.593	3393
874.722	3245
874.851	3405
874.979	3386
875.108	3332
875.237	3188
875.365	3150
875.494	3154
875.623	3256
875.751	3116
875.88	3150
876.008	3161
876.136	3211
876.265	3386
876.393	3519
876.521	3439
876.65	3389
876.778	3325
876.906	3253
877.034	3146
877.162	3233
877.29	3203
877.418	3283
877.546	3230
877.674	3226
877.802	3260
877.93	3230
878.058	3195
878.185	3100
878.313	3222
878.441	3180
878.568	3093
878.696	3138
878.824	3264
878.951	3283
879.079	3443
879.206	3679
879.333	3443
879.461	3348
879.588	3382
879.715	3473
879.842	3587
879.97	3370
880.097	3207
880.224	3123
880.351	3195
880.478	3211
880.605	3195
880.732	3203
880.859	3511
880.986	3313
881.112	3340
881.239	3218
881.366	3123
881.493	3039
881.619	3017
881.746	3051
881.872	3085
881.999	3142
882.125	3097
882.252	3230
882.378	3298
882.505	3458
882.631	3332
882.757	3146
882.883	3222
883.01	3222
883.136	3184
883.262	3093
883.388	3074
883.514	3332
883.64	3378
883.766	3306
883.892	3211
884.018	3237
884.143	3401
884.269	3561
884.395	3211
884.52	3157
884.646	3199
884.772	3100
884.897	3127
885.023	3214
885.148	3329
885.274	3435
885.399	3420
885.524	3287
885.65	3264
885.775	3310
885.9	3268
886.025	3447
886.15	3401
886.275	3291
886.4	3211
886.525	3329
886.65	3302
886.775	3291
886.9	3507
887.025	3675
887.149	3401
887.274	3298
887.399	3218
887.523	3226
887.648	3180
887.773	3184
887.897	3389
888.021	3389
888.146	3287
888.27	3450
888.395	3557
888.519	3424
888.643	3469
888.767	3488
888.891	3355
889.015	3260
889.139	3287
889.263	3233
889.387	3439
889.511	3515
889.635	3450
889.759	3272
889.883	3313
890.006	3393
890.13	3473
890.254	3268
890.377	3367
890.501	3203
890.624	3203
890.748	3310
890.871	3195
890.995	3112
891.118	3081
891.241	3214
891.364	3241
891.488	3321
891.611	3230
891.734	3207
891.857	3317
891.98	3218
892.103	3332
892.226	3245
892.349	3192
892.471	3123
892.594	3275
892.717	3306
892.839	3249
892.962	3332
893.085	3355
893.207	3294
893.33	3157
893.452	3192
893.575	3340
893.697	3264
893.819	3393
893.941	3507
894.064	3428
894.186	3256
894.308	3268
894.43	3409
894.552	3545
894.674	3443
894.796	3268
894.918	3336
895.04	3268
895.161	3443
895.283	3409
895.405	3351
895.526	3348
895.648	3431
895.769	3424
895.891	3450
896.012	3477
896.134	3469
896.255	3405
896.376	3405
896.498	3367
896.619	3443
896.74	3378
896.861	3393
896.982	3686
897.103	3850
897.224	3618
897.345	3488
897.466	3454
897.587	3534
897.708	3641
897.828	3545
897.949	3428
898.07	3355
898.19	3401
898.311	3599
898.431	3431
898.552	3515
898.672	3591
898.792	3595
898.913	3485
899.033	3409
899.153	3287
899.273	3253
899.393	3310
899.513	3321
899.633	3329
899.753	3351
899.873	3313
899.993	3389
900.113	3370
900.232	3378
900.352	3348
900.472	3298
900.591	3214
900.711	3298
900.83	3256
900.95	3393
901.069	3545
901.189	3355
901.308	3188
901.427	3127
901.546	3195
901.665	3306
901.784	3355
901.904	3199
902.023	3184
902.141	3028
902.26	2998
902.379	3184
902.498	3119
902.617	3062
902.735	3199
902.854	3226
902.973	3184
903.091	3043
903.21	3055
903.328	3165
903.446	3138
903.565	3100
903.683	3211
903.801	3142
903.919	3245
904.038	3287
904.156	3180
904.274	3317
904.392	3211
904.51	3291
904.627	3344
904.745	3477
904.863	3504
904.981	3272
905.098	3176
905.216	3249
905.334	3275
905.451	3351
905.569	3310
905.686	3447
905.803	3454
905.921	3329
906.038	3447
906.155	3321
906.272	3294
906.389	3332
906.506	3218
906.623	3268
906.74	3302
906.857	3211
906.974	3230
907.091	3488
907.208	3633
907.324	3507
907.441	3412
907.557	3249
907.674	3222
907.79	3233
907.907	3268
908.023	3367
908.139	3389
908.256	3355
908.372	3344
908.488	3329
908.604	3268
908.72	3256
908.836	3317
908.952	3283
909.068	3332
909.184	3504
909.3	3389
909.415	3530
909.531	3488
909.647	3298
909.762	3279
909.878	3226
909.993	3348
910.108	3382
910.224	3332
910.339	3428
910.454	3363
910.57	3306
910.685	3260
910.8	3595
910.915	3530
911.03	3428
911.145	3310
911.259	3268
911.374	3283
911.489	3192
911.604	3264
911.718	3150
911.833	3188
911.947	3039
912.062	2982
912.176	3192
912.291	3226
912.405	3157
912.519	3473
912.633	3473
912.748	3329
912.862	3279
912.976	3161
913.09	3074
913.204	3207
913.318	3195
913.431	3325
913.545	3355
913.659	3428
913.772	3382
913.886	3192
914	3173
914.113	3351
914.226	3454
914.34	3370
914.453	3249
914.566	3420
914.68	3306
914.793	3336
914.906	3161
915.019	3146
915.132	3097
915.245	3203
915.358	3233
915.47	3283
915.583	3260
915.696	3298
915.809	3386
915.921	3412
916.034	3260
916.146	3283
916.259	3245
916.371	3374
916.483	3351
916.595	3272
916.708	3313
916.82	3310
916.932	3370
917.044	3351
917.156	3359
917.268	3233
917.38	3310
917.491	3340
917.603	3386
917.715	3462
917.826	3443
917.938	3409
918.049	3302
918.161	3420
918.272	3545
918.384	3572
918.495	3485
918.606	3344
918.717	3279
918.828	3386
918.939	3420
919.05	3279
919.161	3351
919.272	3199
919.383	3264
919.494	3488
919.604	3656
919.715	3542
919.826	3412
919.936	3447
920.047	3595
920.157	3561
920.267	3781
920.378	3618
920.488	3591
920.598	3781
920.708	3953
920.818	3781
920.928	3850
921.038	4055
921.148	4002
921.258	3682
921.368	3637
921.477	3591
921.587	3557
921.697	3481
921.806	3633
921.916	3515
922.025	3382
922.134	3397
922.244	3325
922.353	3393
922.462	3253
922.571	3245
922.68	3135
922.789	3108
922.898	3127
923.007	3112
923.116	3226
923.224	3157
923.333	3169
923.442	3135
923.55	3074
923.659	3146
923.767	3230
923.876	3119
923.984	3192
924.092	3116
924.201	3203
924.309	3222
924.417	3256
924.525	3157
924.633	3268
924.741	4207
924.849	3058
924.956	3241
925.064	3108
925.172	3047
925.279	3123
925.387	3222
925.494	3218
925.602	3374
925.709	3317
925.816	3146
925.924	3325
926.031	3389
926.138	3332
926.245	3351
926.352	3264
926.459	3435
926.566	3469
926.673	3340
926.779	3241
926.886	3272
926.993	3161
927.099	3146
927.206	3146
927.312	3131
927.419	3253
927.525	3211
927.631	3245
927.737	3169
927.843	3108
927.95	3036
928.056	3138
928.162	3176
928.267	3306
928.373	3926
928.479	3298
928.585	3081
928.69	3233
928.796	3275
928.901	3214
929.007	3043
929.112	3214
929.218	3203
929.323	3146
929.428	3157
929.533	3325
929.638	3089
929.743	3207
929.848	3272
929.953	3260
930.058	3165
930.163	2963
930.267	3074
930.372	3195
930.477	3039
930.581	3317
930.685	3211
930.79	3074
930.894	3135
930.998	3081
931.103	3275
931.207	2971
931.311	2967
931.415	2952
931.519	2792
931.623	2819
