Data from test_V78500241_169.txt Node
Date: Fri Mar 25 16:16:22 CST 2022
User: usil
Spectrometer: V785-0024
Trigger mode: 0
Integration Time (sec): 4.000000E-1
Scans to average: 1
Nonlinearity correction enabled: false
Boxcar width: 0
Storing dark spectrum: false
XAxis mode: Wavelengths
Number of Pixels in Spectrum: 1024
>>>>>Begin Spectral Data<<<<<
801.071	2960
801.214	2998
801.356	2883
801.499	2914
801.641	2883
801.783	2937
801.926	3085
802.068	2975
802.211	2994
802.353	3039
802.496	2975
802.638	3036
802.78	3009
802.923	3070
803.065	3005
803.208	2941
803.35	2937
803.492	2937
803.635	2929
803.777	2807
803.919	2864
804.061	3260
804.204	2963
804.346	2937
804.488	2868
804.63	2986
804.773	2922
804.915	2963
805.057	3112
805.199	2906
805.341	2971
805.483	3074
805.626	3024
805.768	2986
805.91	3097
806.052	3097
806.194	3047
806.336	3211
806.478	3039
806.62	2937
806.762	3047
806.904	3074
807.046	3192
807.188	3020
807.33	2906
807.472	3005
807.614	2925
807.756	2960
807.898	2948
808.04	2914
808.182	2971
808.324	2902
808.465	2883
808.607	2902
808.749	2838
808.891	2849
809.033	2979
809.174	2952
809.316	2914
809.458	2925
809.6	2788
809.741	2792
809.883	2773
810.025	2887
810.166	2872
810.308	2845
810.45	2872
810.591	2800
810.733	2766
810.875	2864
811.016	2777
811.158	2781
811.299	2834
811.441	2952
811.582	2929
811.724	2815
811.865	2819
812.007	2929
812.148	2914
812.29	2868
812.431	2941
812.573	2952
812.714	3020
812.855	3047
812.997	3066
813.138	3150
813.279	3024
813.421	3017
813.562	2948
813.703	2922
813.845	2895
813.986	2800
814.127	2743
814.268	2777
814.41	2819
814.551	2800
814.692	2906
814.833	2823
814.974	2922
815.115	2963
815.256	2864
815.397	2853
815.539	2883
815.68	2788
815.821	2823
815.962	2963
816.103	2941
816.244	2895
816.385	2868
816.526	2994
816.666	2922
816.807	2731
816.948	2948
817.089	2868
817.23	2842
817.371	2800
817.512	2819
817.653	2876
817.793	2807
817.934	2883
818.075	2960
818.216	3013
818.356	2998
818.497	2929
818.638	2834
818.778	2834
818.919	2769
819.06	2773
819.2	2918
819.341	2804
819.481	2811
819.622	2933
819.762	3100
819.903	3058
820.043	2971
820.184	2899
820.324	2944
820.465	3070
820.605	3055
820.746	2982
820.886	2948
821.026	3100
821.167	3135
821.307	3222
821.447	3287
821.588	3275
821.728	3195
821.868	3207
822.008	3070
822.149	3180
822.289	3214
822.429	3085
822.569	3081
822.709	3188
822.849	3047
822.99	3062
823.13	3211
823.27	3256
823.41	3055
823.55	3173
823.69	3154
823.83	3176
823.97	3085
824.11	2998
824.25	2994
824.389	3108
824.529	3119
824.669	3028
824.809	3195
824.949	3241
825.089	3211
825.228	3165
825.368	2998
825.508	2952
825.648	3005
825.787	3036
825.927	3028
826.067	2948
826.206	2956
826.346	3036
826.485	3070
826.625	3119
826.765	3249
826.904	3207
827.044	3013
827.183	2967
827.323	2906
827.462	3020
827.601	2902
827.741	2952
827.88	3009
828.02	2838
828.159	2998
828.298	3036
828.437	3119
828.577	3077
828.716	3249
828.855	3089
828.994	2925
829.134	2895
829.273	2906
829.412	2895
829.551	2845
829.69	2883
829.829	3009
829.968	3142
830.107	3039
830.246	3039
830.385	2922
830.524	2868
830.663	2853
830.802	2762
830.941	2701
831.08	2655
831.219	2758
831.357	2830
831.496	2941
831.635	2716
831.774	2667
831.913	2674
832.051	2549
832.19	2549
832.329	2697
832.467	2537
832.606	2473
832.744	2571
832.883	2602
833.022	2610
833.16	2651
833.299	2678
833.437	2724
833.576	2712
833.714	2731
833.852	2720
833.991	2788
834.129	2811
834.267	2857
834.406	2811
834.544	2880
834.682	2883
834.821	2883
834.959	3100
835.097	2899
835.235	3070
835.373	3001
835.511	3058
835.65	2994
835.788	2952
835.926	2819
836.064	2815
836.202	2861
836.34	3119
836.478	3165
836.615	3036
836.753	3135
836.891	3241
837.029	3180
837.167	3142
837.305	3062
837.443	3039
837.58	2994
837.718	3157
837.856	3093
837.993	3051
838.131	3146
838.269	3097
838.406	3127
838.544	3089
838.681	2914
838.819	2918
838.956	2830
839.094	2880
839.231	2944
839.369	3047
839.506	3355
839.643	3218
839.781	3013
839.918	2982
840.055	3051
840.193	3070
840.33	3074
840.467	3127
840.604	3180
840.742	3382
840.879	3043
841.016	3058
841.153	3116
841.29	3351
841.427	3340
841.564	3298
841.701	3302
841.838	3237
841.975	3230
842.112	3211
842.249	3089
842.385	3062
842.522	3321
842.659	3089
842.796	3058
842.933	3119
843.069	3066
843.206	3062
843.343	3199
843.479	3116
843.616	3157
843.752	2925
843.889	2880
844.025	3077
844.162	2880
844.298	3154
844.435	2971
844.571	2925
844.708	3058
844.844	3230
844.98	3233
845.117	3218
845.253	3070
845.389	3024
845.525	3066
845.661	3104
845.798	3024
845.934	3112
846.07	3077
846.206	3211
846.342	3363
846.478	3218
846.614	3112
846.75	3032
846.886	3039
847.022	3279
847.158	3127
847.294	3192
847.429	3302
847.565	3195
847.701	3496
847.837	3047
847.972	2990
848.108	3188
848.244	3165
848.379	3005
848.515	2975
848.65	2960
848.786	2990
848.921	3047
849.057	3142
849.192	3169
849.328	3058
849.463	3112
849.598	3089
849.734	3024
849.869	3005
850.004	2956
850.14	2986
850.275	2933
850.41	2834
850.545	2864
850.68	2937
850.815	2956
850.95	2956
851.085	3199
851.22	3108
851.355	3058
851.49	2982
851.625	3009
851.76	3013
851.895	2944
852.03	2918
852.165	3036
852.299	3089
852.434	3241
852.569	3131
852.703	3211
852.838	3256
852.973	3363
853.107	3340
853.242	3119
853.376	3089
853.511	2990
853.645	3001
853.78	3283
853.914	3104
854.048	3123
854.183	3093
854.317	3161
854.451	3317
854.585	3142
854.72	3119
854.854	3214
854.988	3077
855.122	3077
855.256	2979
855.39	3138
855.524	3237
855.658	3241
855.792	3192
855.926	3195
856.06	3203
856.194	3249
856.327	3161
856.461	3097
856.595	3085
856.729	3116
856.862	3199
856.996	3169
857.13	3211
857.263	3233
857.397	3268
857.53	3138
857.664	3218
857.797	3264
857.931	3226
858.064	3176
858.197	3226
858.331	3135
858.464	3108
858.597	3009
858.731	3131
858.864	3154
858.997	3085
859.13	3176
859.263	3211
859.396	3192
859.529	3081
859.662	3093
859.795	3077
859.928	3150
860.061	3283
860.194	3298
860.327	3119
860.46	3123
860.592	3264
860.725	3222
860.858	3256
860.99	3112
861.123	3077
861.256	3100
861.388	3138
861.521	3774
861.653	3051
861.786	2998
861.918	3017
862.05	3074
862.183	3112
862.315	3135
862.447	3203
862.58	3051
862.712	2963
862.844	2880
862.976	3017
863.108	3024
863.24	3306
863.372	2872
863.504	2986
863.636	2948
863.768	3017
863.9	3001
864.032	2925
864.164	2910
864.296	3051
864.428	3104
864.559	3131
864.691	3116
864.823	3055
864.954	3066
865.086	3047
865.217	2986
865.349	2971
865.48	3020
865.612	3043
865.743	3169
865.875	2956
866.006	2948
866.137	2941
866.269	2960
866.4	2929
866.531	2956
866.662	2902
866.793	2944
866.924	2906
867.055	2956
867.186	2941
867.317	2910
867.448	2857
867.579	2842
867.71	2853
867.841	2834
867.972	2857
868.103	2887
868.233	2887
868.364	2883
868.495	2902
868.625	3100
868.756	3211
868.886	2994
869.017	3028
869.147	3188
869.278	3180
869.408	3093
869.539	3005
869.669	3074
869.799	3055
869.929	3119
870.06	3093
870.19	3359
870.32	3355
870.45	3287
870.58	3389
870.71	3450
870.84	3469
870.97	3291
871.1	3264
871.23	3500
871.36	3469
871.489	3355
871.619	3431
871.749	3401
871.879	3477
872.008	3511
872.138	3386
872.267	3268
872.397	3142
872.526	3074
872.656	3013
872.785	3127
872.915	3256
873.044	3329
873.173	3241
873.303	3241
873.432	3203
873.561	3264
873.69	3226
873.819	3154
873.948	3195
874.077	3081
874.206	3047
874.335	3097
874.464	3233
874.593	3378
874.722	3287
874.851	3412
874.979	3393
875.108	3298
875.237	3180
875.365	3176
875.494	3207
875.623	3264
875.751	3074
875.88	3127
876.008	3245
876.136	3222
876.265	3412
876.393	3485
876.521	3397
876.65	3428
876.778	3363
876.906	3272
877.034	3230
877.162	3268
877.29	3192
877.418	3283
877.546	3245
877.674	3264
877.802	3253
877.93	3241
878.058	3173
878.185	3123
878.313	3245
878.441	3218
878.568	3085
878.696	3150
878.824	3317
878.951	3294
879.079	3500
879.206	3644
879.333	3523
879.461	3321
879.588	3363
879.715	3504
879.842	3603
879.97	3401
880.097	3195
880.224	3135
880.351	3207
880.478	3230
880.605	3245
880.732	3203
880.859	3523
880.986	3317
881.112	3340
881.239	3222
881.366	3100
881.493	3013
881.619	3051
881.746	3104
881.872	3066
881.999	3085
882.125	3154
882.252	3260
882.378	3317
882.505	3428
882.631	3287
882.757	3157
882.883	3241
883.01	3222
883.136	3180
883.262	3062
883.388	3119
883.514	3302
883.64	3389
883.766	3310
883.892	3222
884.018	3253
884.143	3420
884.269	3576
884.395	3214
884.52	3146
884.646	3157
884.772	3123
884.897	3138
885.023	3203
885.148	3340
885.274	3424
885.399	3374
885.524	3283
885.65	3249
885.775	3302
885.9	3291
886.025	3458
886.15	3389
886.275	3298
886.4	3268
886.525	3302
886.65	3275
886.775	3260
886.9	3492
887.025	3629
887.149	3416
887.274	3233
887.399	3180
887.523	3237
887.648	3218
887.773	3214
887.897	3370
888.021	3424
888.146	3291
888.27	3424
888.395	3496
888.519	3492
888.643	3473
888.767	3447
888.891	3302
889.015	3275
889.139	3294
889.263	3279
889.387	3405
889.511	3530
889.635	3504
889.759	3279
889.883	3302
890.006	3447
890.13	3496
890.254	3268
890.377	3382
890.501	3237
890.624	3203
890.748	3302
890.871	3169
890.995	3100
891.118	3058
891.241	3214
891.364	3222
891.488	3363
891.611	3214
891.734	3237
891.857	3272
891.98	3253
892.103	3370
892.226	3287
892.349	3233
892.471	3123
892.594	3272
892.717	3325
892.839	3294
892.962	3332
893.085	3363
893.207	3306
893.33	3112
893.452	3218
893.575	3351
893.697	3287
893.819	3496
893.941	3530
894.064	3443
894.186	3275
894.308	3256
894.43	3439
894.552	3549
894.674	3450
894.796	3283
894.918	3325
895.04	3302
895.161	3447
895.283	3428
895.405	3321
895.526	3389
895.648	3420
895.769	3443
895.891	3496
896.012	3488
896.134	3492
896.255	3412
896.376	3382
896.498	3370
896.619	3462
896.74	3359
896.861	3416
896.982	3690
897.103	3842
897.224	3606
897.345	3504
897.466	3454
897.587	3545
897.708	3652
897.828	3557
897.949	3428
898.07	3355
898.19	3401
898.311	3618
898.431	3420
898.552	3526
898.672	3572
898.792	3610
898.913	3515
899.033	3416
899.153	3283
899.273	3214
899.393	3313
899.513	3329
899.633	3306
899.753	3321
899.873	3351
899.993	3416
900.113	3378
900.232	3386
900.352	3317
900.472	3329
900.591	3188
900.711	3313
900.83	3192
900.95	3424
901.069	3477
901.189	3374
901.308	3199
901.427	3135
901.546	3214
901.665	3306
901.784	3359
901.904	3218
902.023	3154
902.141	3036
902.26	3005
902.379	3195
902.498	3093
902.617	3066
902.735	3203
902.854	3237
902.973	3214
903.091	3077
903.21	3081
903.328	3135
903.446	3195
903.565	3074
903.683	3230
903.801	3165
903.919	3241
904.038	3310
904.156	3195
904.274	3306
904.392	3287
904.51	3325
904.627	3378
904.745	3443
904.863	3511
904.981	3310
905.098	3214
905.216	3218
905.334	3306
905.451	3332
905.569	3355
905.686	3416
905.803	3435
905.921	3291
906.038	3477
906.155	3386
906.272	3306
906.389	3378
906.506	3233
906.623	3260
906.74	3249
906.857	3184
906.974	3291
907.091	3485
907.208	3568
907.324	3504
907.441	3443
907.557	3222
907.674	3264
907.79	3222
907.907	3245
908.023	3405
908.139	3447
908.256	3370
908.372	3397
908.488	3389
908.604	3268
908.72	3233
908.836	3321
908.952	3317
909.068	3340
909.184	3466
909.3	3412
909.415	3511
909.531	3496
909.647	3287
909.762	3306
909.878	3310
909.993	3351
910.108	3329
910.224	3382
910.339	3443
910.454	3374
910.57	3336
910.685	3264
910.8	3587
910.915	3545
911.03	3435
911.145	3279
911.259	3302
911.374	3332
911.489	3211
911.604	3245
911.718	3157
911.833	3150
911.947	3017
912.062	2979
912.176	3173
912.291	3237
912.405	3237
912.519	3481
912.633	3485
912.748	3386
912.862	3302
912.976	3176
913.09	3074
913.204	3173
913.318	3222
913.431	3348
913.545	3325
913.659	3424
913.772	3363
913.886	3226
914	3237
914.113	3340
914.226	3435
914.34	3363
914.453	3253
914.566	3435
914.68	3332
914.793	3344
914.906	3165
915.019	3123
915.132	3085
915.245	3180
915.358	3233
915.47	3275
915.583	3264
915.696	3325
915.809	3469
915.921	3450
916.034	3241
916.146	3264
916.259	3245
916.371	3386
916.483	3424
916.595	3306
916.708	3393
916.82	3374
916.932	3363
917.044	3336
917.156	3359
917.268	3241
917.38	3310
917.491	3294
917.603	3405
917.715	3443
917.826	3462
917.938	3389
918.049	3291
918.161	3409
918.272	3587
918.384	3603
918.495	3534
918.606	3321
918.717	3351
918.828	3344
918.939	3439
919.05	3355
919.161	3389
919.272	3165
919.383	3329
919.494	3526
919.604	3717
919.715	3492
919.826	3409
919.936	3473
920.047	3595
920.157	3549
920.267	3808
920.378	3656
920.488	3576
920.598	3759
920.708	3991
920.818	3838
920.928	3842
921.038	4036
921.148	4025
921.258	3690
921.368	3652
921.477	3606
921.587	3530
921.697	3473
921.806	3671
921.916	3504
922.025	3382
922.134	3367
922.244	3313
922.353	3435
922.462	3279
922.571	3233
922.68	3127
922.789	3055
922.898	3169
923.007	3131
923.116	3207
923.224	3176
923.333	3203
923.442	3100
923.55	3070
923.659	3195
923.767	3214
923.876	3081
923.984	3306
924.092	3089
924.201	3245
924.309	3241
924.417	3268
924.525	3199
924.633	3249
924.741	4196
924.849	3066
924.956	3298
925.064	3097
925.172	3077
925.279	3070
925.387	3260
925.494	3233
925.602	3363
925.709	3344
925.816	3214
925.924	3283
926.031	3367
926.138	3329
926.245	3363
926.352	3233
926.459	3405
926.566	3454
926.673	3310
926.779	3310
926.886	3256
926.993	3127
927.099	3123
927.206	3150
927.312	3146
927.419	3268
927.525	3211
927.631	3283
927.737	3169
927.843	3142
927.95	3036
928.056	3157
928.162	3176
928.267	3272
928.373	3899
928.479	3348
928.585	3093
928.69	3249
928.796	3268
928.901	3119
929.007	3077
929.112	3241
929.218	3192
929.323	3146
929.428	3180
929.533	3344
929.638	3138
929.743	3176
929.848	3245
929.953	3241
930.058	3112
930.163	3005
930.267	3055
930.372	3157
930.477	3066
930.581	3340
930.685	3169
930.79	3097
930.894	3154
930.998	3108
931.103	3306
931.207	2948
931.311	2944
931.415	2941
931.519	2807
931.623	2819
