Data from test_V78500241_610.txt Node
Date: Fri Mar 25 16:19:25 CST 2022
User: usil
Spectrometer: V785-0024
Trigger mode: 0
Integration Time (sec): 4.000000E-1
Scans to average: 1
Nonlinearity correction enabled: false
Boxcar width: 0
Storing dark spectrum: false
XAxis mode: Wavelengths
Number of Pixels in Spectrum: 1024
>>>>>Begin Spectral Data<<<<<
801.071	2925
801.214	2902
801.356	2857
801.499	2891
801.641	2834
801.783	2876
801.926	3051
802.068	2967
802.211	3024
802.353	3013
802.496	2956
802.638	3024
802.78	3009
802.923	3032
803.065	3039
803.208	2899
803.35	2876
803.492	2910
803.635	2937
803.777	2762
803.919	2834
804.061	3203
804.204	2925
804.346	2914
804.488	2838
804.63	3001
804.773	2880
804.915	2891
805.057	3058
805.199	2937
805.341	2986
805.483	3009
805.626	2956
805.768	2914
805.91	3058
806.052	3108
806.194	3024
806.336	3264
806.478	2982
806.62	2971
806.762	2952
806.904	3028
807.046	3165
807.188	2929
807.33	2925
807.472	2979
807.614	2925
807.756	2979
807.898	2941
808.04	2922
808.182	2975
808.324	2922
808.465	2883
808.607	2914
808.749	2773
808.891	2861
809.033	2982
809.174	2990
809.316	2853
809.458	2868
809.6	2769
809.741	2758
809.883	2746
810.025	2857
810.166	2887
810.308	2823
810.45	2819
810.591	2731
810.733	2727
810.875	2842
811.016	2792
811.158	2769
811.299	2773
811.441	2910
811.582	2880
811.724	2811
811.865	2788
812.007	2925
812.148	2872
812.29	2838
812.431	2902
812.573	2910
812.714	2967
812.855	2998
812.997	3074
813.138	3097
813.279	2971
813.421	2975
813.562	2918
813.703	2826
813.845	2868
813.986	2785
814.127	2708
814.268	2800
814.41	2834
814.551	2811
814.692	2849
814.833	2823
814.974	2857
815.115	2963
815.256	2807
815.397	2785
815.539	2853
815.68	2750
815.821	2781
815.962	2887
816.103	2914
816.244	2868
816.385	2891
816.526	2994
816.666	2899
816.807	2735
816.948	2845
817.089	2910
817.23	2811
817.371	2788
817.512	2796
817.653	2834
817.793	2804
817.934	2876
818.075	2960
818.216	2979
818.356	3024
818.497	2864
818.638	2830
818.778	2811
818.919	2781
819.06	2743
819.2	2883
819.341	2788
819.481	2811
819.622	2918
819.762	3093
819.903	3005
820.043	2899
820.184	2925
820.324	2861
820.465	3001
820.605	2986
820.746	3001
820.886	2918
821.026	3093
821.167	3165
821.307	3253
821.447	3287
821.588	3237
821.728	3173
821.868	3165
822.008	3085
822.149	3184
822.289	3233
822.429	3036
822.569	3131
822.709	3165
822.849	3036
822.99	3089
823.13	3150
823.27	3150
823.41	3081
823.55	3112
823.69	3146
823.83	3188
823.97	3074
824.11	2990
824.25	2963
824.389	3062
824.529	3081
824.669	3074
824.809	3154
824.949	3279
825.089	3203
825.228	3142
825.368	2990
825.508	2944
825.648	2910
825.787	3005
825.927	3013
826.067	2933
826.206	2990
826.346	3043
826.485	3077
826.625	3112
826.765	3249
826.904	3195
827.044	2979
827.183	2906
827.323	2861
827.462	3017
827.601	2922
827.741	2952
827.88	2956
828.02	2811
828.159	2960
828.298	3001
828.437	3070
828.577	3036
828.716	3199
828.855	3047
828.994	2899
829.134	2868
829.273	2906
829.412	2872
829.551	2864
829.69	2868
829.829	2971
829.968	3112
830.107	3013
830.246	3013
830.385	2902
830.524	2880
830.663	2807
830.802	2720
830.941	2640
831.08	2610
831.219	2731
831.357	2739
831.496	2895
831.635	2708
831.774	2655
831.913	2648
832.051	2556
832.19	2568
832.329	2670
832.467	2514
832.606	2465
832.744	2556
832.883	2568
833.022	2594
833.16	2610
833.299	2670
833.437	2724
833.576	2655
833.714	2686
833.852	2701
833.991	2785
834.129	2834
834.267	2845
834.406	2796
834.544	2857
834.682	2849
834.821	2883
834.959	3066
835.097	2895
835.235	3013
835.373	2975
835.511	3013
835.65	2925
835.788	2963
835.926	2830
836.064	2788
836.202	2819
836.34	3077
836.478	3131
836.615	3001
836.753	3127
836.891	3131
837.029	3157
837.167	3142
837.305	3077
837.443	3020
837.58	2948
837.718	3135
837.856	3039
837.993	3009
838.131	3154
838.269	3047
838.406	3077
838.544	3100
838.681	2925
838.819	2906
838.956	2796
839.094	2792
839.231	2899
839.369	3020
839.506	3397
839.643	3192
839.781	2937
839.918	2918
840.055	3036
840.193	3032
840.33	3058
840.467	3066
840.604	3116
840.742	3409
840.879	3039
841.016	3032
841.153	3085
841.29	3359
841.427	3268
841.564	3264
841.701	3298
841.838	3218
841.975	3169
842.112	3211
842.249	3070
842.385	3028
842.522	3253
842.659	3085
842.796	3077
842.933	3097
843.069	3013
843.206	3013
843.343	3180
843.479	3070
843.616	3104
843.752	2910
843.889	2849
844.025	3097
844.162	2853
844.298	3097
844.435	2925
844.571	2891
844.708	3051
844.844	3165
844.98	3218
845.117	3150
845.253	3024
845.389	3028
845.525	3085
845.661	3058
845.798	3020
845.934	3089
846.07	3051
846.206	3203
846.342	3291
846.478	3207
846.614	3100
846.75	3028
846.886	3032
847.022	3249
847.158	3123
847.294	3176
847.429	3203
847.565	3203
847.701	3469
847.837	3051
847.972	2998
848.108	3100
848.244	3108
848.379	3005
848.515	2922
848.65	2925
848.786	2967
848.921	2975
849.057	3089
849.192	3142
849.328	3062
849.463	3100
849.598	3032
849.734	3020
849.869	2975
850.004	2937
850.14	2986
850.275	2914
850.41	2880
850.545	2902
850.68	2948
850.815	2967
850.95	2971
851.085	3256
851.22	3104
851.355	3020
851.49	3005
851.625	3013
851.76	3013
851.895	2967
852.03	2937
852.165	3062
852.299	3085
852.434	3226
852.569	3150
852.703	3184
852.838	3260
852.973	3370
853.107	3363
853.242	3211
853.376	3112
853.511	2990
853.645	3070
853.78	3298
853.914	3169
854.048	3138
854.183	3123
854.317	3199
854.451	3329
854.585	3161
854.72	3116
854.854	3279
854.988	3100
855.122	3116
855.256	3017
855.39	3169
855.524	3275
855.658	3230
855.792	3180
855.926	3211
856.06	3275
856.194	3302
856.327	3169
856.461	3154
856.595	3123
856.729	3116
856.862	3298
856.996	3135
857.13	3237
857.263	3245
857.397	3332
857.53	3157
857.664	3279
857.797	3268
857.931	3302
858.064	3165
858.197	3230
858.331	3165
858.464	3112
858.597	3032
858.731	3150
858.864	3173
858.997	3127
859.13	3218
859.263	3226
859.396	3268
859.529	3165
859.662	3085
859.795	3138
859.928	3165
860.061	3306
860.194	3313
860.327	3176
860.46	3108
860.592	3279
860.725	3302
860.858	3256
860.99	3176
861.123	3077
861.256	3062
861.388	3173
861.521	3720
861.653	3055
861.786	3028
861.918	3020
862.05	3100
862.183	3116
862.315	3154
862.447	3275
862.58	3116
862.712	2944
862.844	2861
862.976	3070
863.108	3058
863.24	3492
863.372	2952
863.504	3009
863.636	2971
863.768	3066
863.9	3043
864.032	2922
864.164	2982
864.296	3020
864.428	3112
864.559	3127
864.691	3058
864.823	3093
864.954	3093
865.086	3104
865.217	3020
865.349	2941
865.48	3028
865.612	3043
865.743	3184
865.875	3058
866.006	3005
866.137	3058
866.269	2982
866.4	2963
866.531	2933
866.662	2941
866.793	2891
866.924	2952
867.055	3009
867.186	2941
867.317	2922
867.448	2899
867.579	2811
867.71	2868
867.841	2845
867.972	2918
868.103	2937
868.233	2914
868.364	2861
868.495	2941
868.625	3116
868.756	3207
868.886	3001
869.017	3039
869.147	3199
869.278	3203
869.408	3085
869.539	3051
869.669	3112
869.799	3066
869.929	3142
870.06	3127
870.19	3332
870.32	3313
870.45	3294
870.58	3393
870.71	3458
870.84	3469
870.97	3306
871.1	3264
871.23	3519
871.36	3473
871.489	3401
871.619	3420
871.749	3439
871.879	3439
872.008	3477
872.138	3348
872.267	3310
872.397	3184
872.526	3127
872.656	3039
872.785	3089
872.915	3275
873.044	3363
873.173	3237
873.303	3279
873.432	3264
873.561	3283
873.69	3214
873.819	3173
873.948	3222
874.077	3119
874.206	3093
874.335	3104
874.464	3180
874.593	3382
874.722	3275
874.851	3439
874.979	3389
875.108	3351
875.237	3222
875.365	3150
875.494	3188
875.623	3279
875.751	3089
875.88	3150
876.008	3222
876.136	3230
876.265	3397
876.393	3553
876.521	3405
876.65	3424
876.778	3374
876.906	3302
877.034	3233
877.162	3241
877.29	3169
877.418	3310
877.546	3294
877.674	3245
877.802	3245
877.93	3264
878.058	3188
878.185	3127
878.313	3203
878.441	3230
878.568	3089
878.696	3203
878.824	3294
878.951	3321
879.079	3447
879.206	3667
879.333	3462
879.461	3329
879.588	3382
879.715	3504
879.842	3618
879.97	3412
880.097	3176
880.224	3169
880.351	3249
880.478	3241
880.605	3226
880.732	3199
880.859	3526
880.986	3313
881.112	3332
881.239	3230
881.366	3146
881.493	3066
881.619	3047
881.746	3097
881.872	3097
881.999	3127
882.125	3192
882.252	3275
882.378	3332
882.505	3412
882.631	3329
882.757	3184
882.883	3249
883.01	3237
883.136	3207
883.262	3116
883.388	3123
883.514	3306
883.64	3397
883.766	3321
883.892	3211
884.018	3279
884.143	3458
884.269	3603
884.395	3264
884.52	3176
884.646	3214
884.772	3180
884.897	3119
885.023	3165
885.148	3389
885.274	3447
885.399	3363
885.524	3321
885.65	3287
885.775	3340
885.9	3264
886.025	3428
886.15	3389
886.275	3291
886.4	3241
886.525	3332
886.65	3359
886.775	3336
886.9	3515
887.025	3663
887.149	3397
887.274	3291
887.399	3241
887.523	3199
887.648	3218
887.773	3222
887.897	3401
888.021	3409
888.146	3321
888.27	3450
888.395	3549
888.519	3405
888.643	3515
888.767	3439
888.891	3332
889.015	3291
889.139	3253
889.263	3287
889.387	3431
889.511	3500
889.635	3492
889.759	3310
889.883	3329
890.006	3409
890.13	3492
890.254	3298
890.377	3405
890.501	3222
890.624	3218
890.748	3340
890.871	3173
890.995	3116
891.118	3074
891.241	3207
891.364	3279
891.488	3294
891.611	3203
891.734	3226
891.857	3294
891.98	3218
892.103	3340
892.226	3310
892.349	3249
892.471	3123
892.594	3287
892.717	3298
892.839	3283
892.962	3325
893.085	3374
893.207	3302
893.33	3184
893.452	3260
893.575	3370
893.697	3272
893.819	3507
893.941	3496
894.064	3477
894.186	3287
894.308	3268
894.43	3469
894.552	3568
894.674	3466
894.796	3253
894.918	3340
895.04	3321
895.161	3420
895.283	3435
895.405	3310
895.526	3367
895.648	3435
895.769	3458
895.891	3492
896.012	3447
896.134	3473
896.255	3439
896.376	3405
896.498	3348
896.619	3458
896.74	3351
896.861	3443
896.982	3694
897.103	3816
897.224	3625
897.345	3515
897.466	3450
897.587	3500
897.708	3675
897.828	3561
897.949	3492
898.07	3325
898.19	3428
898.311	3641
898.431	3450
898.552	3538
898.672	3606
898.792	3595
898.913	3542
899.033	3466
899.153	3306
899.273	3222
899.393	3283
899.513	3378
899.633	3348
899.753	3317
899.873	3332
899.993	3416
900.113	3325
900.232	3420
900.352	3351
900.472	3306
900.591	3230
900.711	3294
900.83	3279
900.95	3435
901.069	3500
901.189	3370
901.308	3222
901.427	3131
901.546	3218
901.665	3310
901.784	3317
901.904	3192
902.023	3195
902.141	3024
902.26	2967
902.379	3127
902.498	3089
902.617	3074
902.735	3222
902.854	3237
902.973	3237
903.091	3051
903.21	3127
903.328	3169
903.446	3146
903.565	3119
903.683	3192
903.801	3093
903.919	3302
904.038	3310
904.156	3218
904.274	3321
904.392	3260
904.51	3291
904.627	3382
904.745	3477
904.863	3515
904.981	3275
905.098	3131
905.216	3268
905.334	3291
905.451	3313
905.569	3317
905.686	3462
905.803	3462
905.921	3306
906.038	3435
906.155	3363
906.272	3313
906.389	3359
906.506	3264
906.623	3287
906.74	3298
906.857	3218
906.974	3268
907.091	3458
907.208	3564
907.324	3485
907.441	3386
907.557	3260
907.674	3272
907.79	3241
907.907	3302
908.023	3412
908.139	3389
908.256	3325
908.372	3416
908.488	3374
908.604	3268
908.72	3237
908.836	3291
908.952	3253
909.068	3351
909.184	3496
909.3	3386
909.415	3538
909.531	3477
909.647	3306
909.762	3302
909.878	3268
909.993	3351
910.108	3340
910.224	3370
910.339	3424
910.454	3374
910.57	3287
910.685	3253
910.8	3599
910.915	3561
911.03	3481
911.145	3306
911.259	3264
911.374	3321
911.489	3237
911.604	3249
911.718	3112
911.833	3161
911.947	3017
912.062	2986
912.176	3165
912.291	3222
912.405	3249
912.519	3424
912.633	3488
912.748	3332
912.862	3317
912.976	3184
913.09	3043
913.204	3135
913.318	3207
913.431	3355
913.545	3306
913.659	3409
913.772	3321
913.886	3222
914	3195
914.113	3405
914.226	3439
914.34	3393
914.453	3218
914.566	3431
914.68	3272
914.793	3351
914.906	3131
915.019	3112
915.132	3043
915.245	3157
915.358	3195
915.47	3245
915.583	3294
915.696	3283
915.809	3393
915.921	3428
916.034	3264
916.146	3272
916.259	3184
916.371	3378
916.483	3363
916.595	3268
916.708	3294
916.82	3389
916.932	3401
917.044	3397
917.156	3374
917.268	3279
917.38	3306
917.491	3298
917.603	3336
917.715	3473
917.826	3515
917.938	3424
918.049	3313
918.161	3447
918.272	3587
918.384	3599
918.495	3526
918.606	3355
918.717	3302
918.828	3424
918.939	3462
919.05	3348
919.161	3386
919.272	3207
919.383	3310
919.494	3542
919.604	3728
919.715	3534
919.826	3443
919.936	3443
920.047	3599
920.157	3660
920.267	3800
920.378	3637
920.488	3614
920.598	3812
920.708	3987
920.818	3922
920.928	3869
921.038	4063
921.148	4021
921.258	3785
921.368	3686
921.477	3618
921.587	3591
921.697	3519
921.806	3652
921.916	3542
922.025	3428
922.134	3386
922.244	3348
922.353	3488
922.462	3332
922.571	3272
922.68	3188
922.789	3116
922.898	3192
923.007	3169
923.116	3214
923.224	3184
923.333	3207
923.442	3157
923.55	3131
923.659	3203
923.767	3268
923.876	3195
923.984	3272
924.092	3135
924.201	3256
924.309	3241
924.417	3275
924.525	3233
924.633	3302
924.741	4010
924.849	3093
924.956	3321
925.064	3169
925.172	3058
925.279	3119
925.387	3203
925.494	3291
925.602	3401
925.709	3367
925.816	3264
925.924	3306
926.031	3466
926.138	3359
926.245	3412
926.352	3272
926.459	3443
926.566	3526
926.673	3351
926.779	3298
926.886	3302
926.993	3192
927.099	3157
927.206	3180
927.312	3184
927.419	3249
927.525	3199
927.631	3325
927.737	3154
927.843	3180
927.95	3074
928.056	3135
928.162	3233
928.267	3287
928.373	3831
928.479	3359
928.585	3112
928.69	3253
928.796	3325
928.901	3233
929.007	3055
929.112	3222
929.218	3237
929.323	3184
929.428	3157
929.533	3367
929.638	3146
929.743	3211
929.848	3302
929.953	3275
930.058	3173
930.163	3013
930.267	3081
930.372	3233
930.477	3100
930.581	3355
930.685	3237
930.79	3070
930.894	3161
930.998	3127
931.103	3294
931.207	2994
931.311	2986
931.415	2933
931.519	2842
931.623	2834
