Data from test_V78500241_680.txt Node
Date: Fri Mar 25 16:19:54 CST 2022
User: usil
Spectrometer: V785-0024
Trigger mode: 0
Integration Time (sec): 4.000000E-1
Scans to average: 1
Nonlinearity correction enabled: false
Boxcar width: 0
Storing dark spectrum: false
XAxis mode: Wavelengths
Number of Pixels in Spectrum: 1024
>>>>>Begin Spectral Data<<<<<
801.071	2948
801.214	2975
801.356	2868
801.499	2922
801.641	2872
801.783	2948
801.926	3058
802.068	3013
802.211	3028
802.353	3077
802.496	2994
802.638	3066
802.78	3055
802.923	3135
803.065	2990
803.208	2948
803.35	2929
803.492	2944
803.635	2937
803.777	2773
803.919	2891
804.061	3218
804.204	2971
804.346	2944
804.488	2880
804.63	3017
804.773	2910
804.915	2929
805.057	3089
805.199	2933
805.341	3017
805.483	3070
805.626	3020
805.768	2990
805.91	3123
806.052	3142
806.194	3055
806.336	3214
806.478	3017
806.62	2963
806.762	2975
806.904	3039
807.046	3161
807.188	2994
807.33	2956
807.472	2990
807.614	2918
807.756	3001
807.898	2956
808.04	2922
808.182	2998
808.324	2982
808.465	2895
808.607	2861
808.749	2826
808.891	2883
809.033	3020
809.174	2963
809.316	2918
809.458	2899
809.6	2804
809.741	2796
809.883	2788
810.025	2872
810.166	2864
810.308	2842
810.45	2880
810.591	2769
810.733	2792
810.875	2857
811.016	2815
811.158	2785
811.299	2834
811.441	2948
811.582	2922
811.724	2864
811.865	2842
812.007	2937
812.148	2876
812.29	2842
812.431	2914
812.573	2941
812.714	2986
812.855	3081
812.997	3074
813.138	3127
813.279	3043
813.421	3009
813.562	2948
813.703	2906
813.845	2895
813.986	2773
814.127	2766
814.268	2845
814.41	2864
814.551	2834
814.692	2891
814.833	2845
814.974	2891
815.115	2982
815.256	2811
815.397	2842
815.539	2899
815.68	2788
815.821	2815
815.962	2933
816.103	2937
816.244	2895
816.385	2929
816.526	2975
816.666	2948
816.807	2800
816.948	2899
817.089	2910
817.23	2891
817.371	2796
817.512	2804
817.653	2826
817.793	2849
817.934	2899
818.075	2982
818.216	2990
818.356	3055
818.497	2895
818.638	2823
818.778	2868
818.919	2819
819.06	2773
819.2	2880
819.341	2823
819.481	2823
819.622	2963
819.762	3085
819.903	3085
820.043	2910
820.184	2960
820.324	2918
820.465	3039
820.605	3024
820.746	3005
820.886	2941
821.026	3097
821.167	3131
821.307	3264
821.447	3298
821.588	3260
821.728	3192
821.868	3214
822.008	3097
822.149	3184
822.289	3256
822.429	3119
822.569	3116
822.709	3211
822.849	3047
822.99	3085
823.13	3195
823.27	3214
823.41	3100
823.55	3135
823.69	3142
823.83	3237
823.97	3074
824.11	2998
824.25	2986
824.389	3047
824.529	3138
824.669	3047
824.809	3195
824.949	3249
825.089	3249
825.228	3173
825.368	2944
825.508	2963
825.648	2963
825.787	3028
825.927	3047
826.067	2975
826.206	2963
826.346	3043
826.485	3100
826.625	3085
826.765	3272
826.904	3233
827.044	3017
827.183	2929
827.323	2899
827.462	3017
827.601	2944
827.741	2948
827.88	2979
828.02	2868
828.159	2975
828.298	3058
828.437	3135
828.577	3028
828.716	3264
828.855	3097
828.994	2948
829.134	2914
829.273	2971
829.412	2853
829.551	2891
829.69	2910
829.829	2994
829.968	3127
830.107	2998
830.246	3017
830.385	2883
830.524	2887
830.663	2830
830.802	2731
830.941	2667
831.08	2640
831.219	2762
831.357	2777
831.496	2956
831.635	2705
831.774	2636
831.913	2667
832.051	2579
832.19	2545
832.329	2678
832.467	2556
832.606	2499
832.744	2571
832.883	2590
833.022	2583
833.16	2678
833.299	2701
833.437	2705
833.576	2735
833.714	2697
833.852	2754
833.991	2785
834.129	2864
834.267	2845
834.406	2762
834.544	2853
834.682	2876
834.821	2883
834.959	3051
835.097	2937
835.235	3028
835.373	3024
835.511	2986
835.65	2975
835.788	2971
835.926	2849
836.064	2826
836.202	2868
836.34	3081
836.478	3169
836.615	3062
836.753	3116
836.891	3226
837.029	3169
837.167	3093
837.305	3085
837.443	3081
837.58	2994
837.718	3104
837.856	3077
837.993	3039
838.131	3146
838.269	3100
838.406	3119
838.544	3108
838.681	2948
838.819	2925
838.956	2804
839.094	2838
839.231	2952
839.369	3070
839.506	3393
839.643	3199
839.781	3062
839.918	2967
840.055	3047
840.193	3081
840.33	3028
840.467	3066
840.604	3146
840.742	3416
840.879	3062
841.016	3051
841.153	3119
841.29	3344
841.427	3317
841.564	3302
841.701	3355
841.838	3241
841.975	3226
842.112	3222
842.249	3093
842.385	3047
842.522	3245
842.659	3116
842.796	3047
842.933	3108
843.069	3062
843.206	3047
843.343	3192
843.479	3081
843.616	3184
843.752	2925
843.889	2876
844.025	3085
844.162	2853
844.298	3081
844.435	2933
844.571	2914
844.708	3085
844.844	3192
844.98	3272
845.117	3211
845.253	3058
845.389	2979
845.525	3123
845.661	3119
845.798	3028
845.934	3146
846.07	3074
846.206	3180
846.342	3313
846.478	3291
846.614	3097
846.75	3051
846.886	3020
847.022	3253
847.158	3108
847.294	3226
847.429	3256
847.565	3214
847.701	3500
847.837	3036
847.972	2986
848.108	3157
848.244	3127
848.379	3009
848.515	2929
848.65	2929
848.786	2967
848.921	3001
849.057	3085
849.192	3116
849.328	3093
849.463	3150
849.598	3070
849.734	3028
849.869	2971
850.004	2944
850.14	2967
850.275	2925
850.41	2804
850.545	2853
850.68	2902
850.815	2979
850.95	2967
851.085	3180
851.22	3108
851.355	3066
851.49	3001
851.625	3017
851.76	3020
851.895	2952
852.03	2929
852.165	3039
852.299	3142
852.434	3173
852.569	3142
852.703	3173
852.838	3237
852.973	3348
853.107	3332
853.242	3150
853.376	3062
853.511	2986
853.645	3047
853.78	3249
853.914	3112
854.048	3097
854.183	3116
854.317	3135
854.451	3294
854.585	3154
854.72	3058
854.854	3222
854.988	3077
855.122	3097
855.256	2990
855.39	3093
855.524	3230
855.658	3165
855.792	3119
855.926	3192
856.06	3195
856.194	3302
856.327	3192
856.461	3112
856.595	3058
856.729	3074
856.862	3207
856.996	3138
857.13	3180
857.263	3214
857.397	3253
857.53	3089
857.664	3173
857.797	3214
857.931	3253
858.064	3184
858.197	3192
858.331	3146
858.464	3108
858.597	3001
858.731	3100
858.864	3131
858.997	3100
859.13	3176
859.263	3161
859.396	3233
859.529	3074
859.662	3077
859.795	3039
859.928	3093
860.061	3294
860.194	3249
860.327	3104
860.46	3089
860.592	3245
860.725	3283
860.858	3260
860.99	3085
861.123	3085
861.256	3062
861.388	3127
861.521	3918
861.653	2998
861.786	2998
861.918	3017
862.05	3066
862.183	3135
862.315	3112
862.447	3157
862.58	3100
862.712	2937
862.844	2883
862.976	3043
863.108	3013
863.24	3435
863.372	2906
863.504	2986
863.636	2956
863.768	3005
863.9	2990
864.032	2918
864.164	2956
864.296	2982
864.428	3036
864.559	3108
864.691	3081
864.823	3074
864.954	3013
865.086	3009
865.217	2998
865.349	2944
865.48	2986
865.612	3005
865.743	3093
865.875	2960
866.006	2891
866.137	2952
866.269	2914
866.4	2979
866.531	2933
866.662	2876
866.793	2887
866.924	2899
867.055	2994
867.186	2914
867.317	2876
867.448	2842
867.579	2872
867.71	2853
867.841	2830
867.972	2906
868.103	2895
868.233	2880
868.364	2872
868.495	2910
868.625	3093
868.756	3184
868.886	2960
869.017	3009
869.147	3180
869.278	3135
869.408	3028
869.539	3013
869.669	3085
869.799	3058
869.929	3127
870.06	3093
870.19	3336
870.32	3279
870.45	3272
870.58	3351
870.71	3458
870.84	3477
870.97	3275
871.1	3226
871.23	3466
871.36	3447
871.489	3355
871.619	3409
871.749	3393
871.879	3424
872.008	3458
872.138	3367
872.267	3283
872.397	3138
872.526	3085
872.656	3020
872.785	3112
872.915	3237
873.044	3294
873.173	3249
873.303	3226
873.432	3222
873.561	3279
873.69	3138
873.819	3112
873.948	3161
874.077	3116
874.206	2963
874.335	3104
874.464	3195
874.593	3332
874.722	3233
874.851	3401
874.979	3374
875.108	3329
875.237	3150
875.365	3192
875.494	3173
875.623	3226
875.751	3135
875.88	3070
876.008	3188
876.136	3241
876.265	3340
876.393	3530
876.521	3435
876.65	3409
876.778	3370
876.906	3256
877.034	3199
877.162	3237
877.29	3184
877.418	3264
877.546	3275
877.674	3237
877.802	3211
877.93	3180
878.058	3131
878.185	3116
878.313	3180
878.441	3188
878.568	3093
878.696	3184
878.824	3260
878.951	3313
879.079	3435
879.206	3595
879.333	3374
879.461	3351
879.588	3340
879.715	3447
879.842	3610
879.97	3397
880.097	3173
880.224	3146
880.351	3207
880.478	3233
880.605	3214
880.732	3192
880.859	3462
880.986	3275
881.112	3325
881.239	3218
881.366	3089
881.493	3001
881.619	3024
881.746	3058
881.872	3097
881.999	3089
882.125	3161
882.252	3256
882.378	3294
882.505	3420
882.631	3279
882.757	3173
882.883	3241
883.01	3214
883.136	3176
883.262	3085
883.388	3112
883.514	3348
883.64	3382
883.766	3325
883.892	3218
884.018	3226
884.143	3447
884.269	3538
884.395	3195
884.52	3142
884.646	3184
884.772	3089
884.897	3089
885.023	3211
885.148	3355
885.274	3409
885.399	3336
885.524	3302
885.65	3264
885.775	3306
885.9	3264
886.025	3397
886.15	3344
886.275	3283
886.4	3256
886.525	3291
886.65	3241
886.775	3275
886.9	3488
887.025	3610
887.149	3412
887.274	3291
887.399	3184
887.523	3218
887.648	3184
887.773	3241
887.897	3378
888.021	3435
888.146	3291
888.27	3409
888.395	3549
888.519	3450
888.643	3420
888.767	3473
888.891	3283
889.015	3249
889.139	3306
889.263	3211
889.387	3363
889.511	3526
889.635	3454
889.759	3291
889.883	3325
890.006	3363
890.13	3488
890.254	3268
890.377	3344
890.501	3180
890.624	3161
890.748	3321
890.871	3157
890.995	3077
891.118	3032
891.241	3192
891.364	3218
891.488	3344
891.611	3138
891.734	3233
891.857	3313
891.98	3237
892.103	3306
892.226	3260
892.349	3199
892.471	3077
892.594	3226
892.717	3268
892.839	3230
892.962	3302
893.085	3351
893.207	3298
893.33	3169
893.452	3218
893.575	3348
893.697	3264
893.819	3443
893.941	3496
894.064	3481
894.186	3237
894.308	3283
894.43	3428
894.552	3519
894.674	3469
894.796	3294
894.918	3310
895.04	3264
895.161	3450
895.283	3393
895.405	3287
895.526	3355
895.648	3412
895.769	3428
895.891	3488
896.012	3458
896.134	3462
896.255	3405
896.376	3405
896.498	3348
896.619	3405
896.74	3359
896.861	3386
896.982	3644
897.103	3831
897.224	3595
897.345	3526
897.466	3424
897.587	3496
897.708	3614
897.828	3568
897.949	3420
898.07	3332
898.19	3428
898.311	3606
898.431	3435
898.552	3504
898.672	3576
898.792	3561
898.913	3542
899.033	3428
899.153	3336
899.273	3192
899.393	3283
899.513	3332
899.633	3260
899.753	3310
899.873	3325
899.993	3378
900.113	3332
900.232	3359
900.352	3393
900.472	3329
900.591	3230
900.711	3317
900.83	3260
900.95	3401
901.069	3500
901.189	3351
901.308	3192
901.427	3131
901.546	3169
901.665	3283
901.784	3325
901.904	3180
902.023	3180
902.141	3024
902.26	3001
902.379	3123
902.498	3093
902.617	3062
902.735	3192
902.854	3214
902.973	3203
903.091	3032
903.21	3039
903.328	3108
903.446	3093
903.565	3093
903.683	3195
903.801	3142
903.919	3256
904.038	3275
904.156	3150
904.274	3310
904.392	3291
904.51	3260
904.627	3321
904.745	3428
904.863	3466
904.981	3264
905.098	3165
905.216	3207
905.334	3291
905.451	3317
905.569	3287
905.686	3386
905.803	3428
905.921	3275
906.038	3397
906.155	3382
906.272	3260
906.389	3325
906.506	3188
906.623	3249
906.74	3272
906.857	3188
906.974	3233
907.091	3447
907.208	3572
907.324	3462
907.441	3424
907.557	3241
907.674	3211
907.79	3203
907.907	3279
908.023	3344
908.139	3389
908.256	3313
908.372	3359
908.488	3344
908.604	3283
908.72	3256
908.836	3325
908.952	3272
909.068	3329
909.184	3523
909.3	3409
909.415	3500
909.531	3477
909.647	3294
909.762	3310
909.878	3279
909.993	3294
910.108	3340
910.224	3313
910.339	3412
910.454	3363
910.57	3298
910.685	3226
910.8	3580
910.915	3576
911.03	3431
911.145	3260
911.259	3294
911.374	3329
911.489	3249
911.604	3233
911.718	3146
911.833	3165
911.947	3024
912.062	3005
912.176	3131
912.291	3192
912.405	3188
912.519	3412
912.633	3469
912.748	3302
912.862	3306
912.976	3146
913.09	3074
913.204	3142
913.318	3218
913.431	3283
913.545	3317
913.659	3409
913.772	3332
913.886	3241
914	3195
914.113	3340
914.226	3389
914.34	3367
914.453	3157
914.566	3401
914.68	3306
914.793	3329
914.906	3097
915.019	3070
915.132	3097
915.245	3142
915.358	3222
915.47	3222
915.583	3241
915.696	3222
915.809	3420
915.921	3401
916.034	3264
916.146	3256
916.259	3241
916.371	3336
916.483	3336
916.595	3287
916.708	3351
916.82	3310
916.932	3317
917.044	3302
917.156	3351
917.268	3264
917.38	3291
917.491	3287
917.603	3332
917.715	3431
917.826	3481
917.938	3382
918.049	3264
918.161	3473
918.272	3587
918.384	3561
918.495	3439
918.606	3321
918.717	3287
918.828	3412
918.939	3435
919.05	3283
919.161	3367
919.272	3180
919.383	3272
919.494	3511
919.604	3656
919.715	3469
919.826	3401
919.936	3454
920.047	3599
920.157	3549
920.267	3781
920.378	3637
920.488	3557
920.598	3808
920.708	3941
920.818	3819
920.928	3854
921.038	4055
921.148	3991
921.258	3694
921.368	3595
921.477	3618
921.587	3534
921.697	3435
921.806	3633
921.916	3538
922.025	3317
922.134	3359
922.244	3302
922.353	3416
922.462	3264
922.571	3218
922.68	3108
922.789	3085
922.898	3127
923.007	3108
923.116	3199
923.224	3199
923.333	3146
923.442	3108
923.55	3081
923.659	3127
923.767	3180
923.876	3104
923.984	3260
924.092	3119
924.201	3176
924.309	3199
924.417	3233
924.525	3203
924.633	3291
924.741	4025
924.849	3017
924.956	3233
925.064	3135
925.172	3020
925.279	3097
925.387	3203
925.494	3207
925.602	3340
925.709	3321
925.816	3165
925.924	3268
926.031	3302
926.138	3298
926.245	3325
926.352	3256
926.459	3420
926.566	3450
926.673	3313
926.779	3260
926.886	3222
926.993	3203
927.099	3123
927.206	3112
927.312	3074
927.419	3211
927.525	3218
927.631	3230
927.737	3104
927.843	3085
927.95	3013
928.056	3138
928.162	3157
928.267	3230
928.373	3743
928.479	3313
928.585	3043
928.69	3192
928.796	3291
928.901	3142
929.007	3028
929.112	3241
929.218	3199
929.323	3150
929.428	3154
929.533	3317
929.638	3138
929.743	3154
929.848	3233
929.953	3226
930.058	3146
930.163	3005
930.267	3043
930.372	3157
930.477	3028
930.581	3306
930.685	3207
930.79	3058
930.894	3116
930.998	3093
931.103	3291
931.207	2941
931.311	2910
931.415	2910
931.519	2758
931.623	2826
