Data from test_V78500241_1285.txt Node
Date: Fri Mar 25 16:24:06 CST 2022
User: usil
Spectrometer: V785-0024
Trigger mode: 0
Integration Time (sec): 4.000000E-1
Scans to average: 1
Nonlinearity correction enabled: false
Boxcar width: 0
Storing dark spectrum: false
XAxis mode: Wavelengths
Number of Pixels in Spectrum: 1024
>>>>>Begin Spectral Data<<<<<
801.071	2895
801.214	2929
801.356	2872
801.499	2902
801.641	2864
801.783	2906
801.926	3020
802.068	2967
802.211	2952
802.353	3036
802.496	2960
802.638	3005
802.78	3001
802.923	3055
803.065	2944
803.208	2891
803.35	2918
803.492	2929
803.635	2918
803.777	2762
803.919	2845
804.061	3161
804.204	2971
804.346	2914
804.488	2849
804.63	2960
804.773	2864
804.915	2963
805.057	3039
805.199	2910
805.341	2941
805.483	3043
805.626	2975
805.768	2933
805.91	3058
806.052	3074
806.194	3024
806.336	3233
806.478	3009
806.62	2910
806.762	2998
806.904	3047
807.046	3127
807.188	2952
807.33	2975
807.472	2979
807.614	2922
807.756	2994
807.898	2876
808.04	2891
808.182	2998
808.324	2967
808.465	2876
808.607	2868
808.749	2792
808.891	2834
809.033	2944
809.174	2990
809.316	2887
809.458	2880
809.6	2746
809.741	2762
809.883	2777
810.025	2876
810.166	2804
810.308	2804
810.45	2834
810.591	2769
810.733	2769
810.875	2823
811.016	2769
811.158	2739
811.299	2826
811.441	2929
811.582	2876
811.724	2830
811.865	2819
812.007	2891
812.148	2872
812.29	2838
812.431	2880
812.573	2933
812.714	2982
812.855	3020
812.997	3043
813.138	3066
813.279	3020
813.421	3009
813.562	2948
813.703	2872
813.845	2902
813.986	2788
814.127	2746
814.268	2834
814.41	2777
814.551	2834
814.692	2891
814.833	2804
814.974	2868
815.115	2963
815.256	2838
815.397	2815
815.539	2880
815.68	2762
815.821	2788
815.962	2944
816.103	2891
816.244	2864
816.385	2872
816.526	2982
816.666	2922
816.807	2746
816.948	2868
817.089	2883
817.23	2834
817.371	2766
817.512	2804
817.653	2830
817.793	2823
817.934	2929
818.075	2922
818.216	2952
818.356	3028
818.497	2887
818.638	2781
818.778	2819
818.919	2800
819.06	2754
819.2	2883
819.341	2792
819.481	2815
819.622	2902
819.762	3077
819.903	3032
820.043	2918
820.184	2880
820.324	2853
820.465	3001
820.605	3047
820.746	3005
820.886	2937
821.026	3119
821.167	3138
821.307	3256
821.447	3298
821.588	3207
821.728	3218
821.868	3211
822.008	3074
822.149	3173
822.289	3222
822.429	3062
822.569	3097
822.709	3146
822.849	2975
822.99	3077
823.13	3123
823.27	3211
823.41	3112
823.55	3093
823.69	3135
823.83	3184
823.97	3066
824.11	3005
824.25	2967
824.389	3036
824.529	3112
824.669	3039
824.809	3188
824.949	3233
825.089	3260
825.228	3154
825.368	2994
825.508	2956
825.648	2960
825.787	2994
825.927	2975
826.067	2963
826.206	2967
826.346	3028
826.485	3081
826.625	3112
826.765	3264
826.904	3222
827.044	3001
827.183	2918
827.323	2845
827.462	2967
827.601	2929
827.741	2990
827.88	2868
828.02	2857
828.159	2971
828.298	3020
828.437	3085
828.577	3001
828.716	3222
828.855	3089
828.994	2910
829.134	2849
829.273	2914
829.412	2823
829.551	2849
829.69	2872
829.829	2979
829.968	3100
830.107	3001
830.246	3024
830.385	2918
830.524	2853
830.663	2815
830.802	2727
830.941	2632
831.08	2621
831.219	2739
831.357	2746
831.496	2929
831.635	2708
831.774	2663
831.913	2632
832.051	2571
832.19	2537
832.329	2682
832.467	2533
832.606	2465
832.744	2560
832.883	2564
833.022	2590
833.16	2632
833.299	2701
833.437	2678
833.576	2674
833.714	2716
833.852	2712
833.991	2758
834.129	2819
834.267	2785
834.406	2815
834.544	2853
834.682	2845
834.821	2845
834.959	3024
835.097	2887
835.235	3032
835.373	2967
835.511	3017
835.65	2929
835.788	2925
835.926	2842
836.064	2788
836.202	2834
836.34	3077
836.478	3116
836.615	3005
836.753	3108
836.891	3192
837.029	3142
837.167	3093
837.305	3055
837.443	3062
837.58	2994
837.718	3104
837.856	3070
837.993	3055
838.131	3097
838.269	3131
838.406	3085
838.544	3043
838.681	2960
838.819	2918
838.956	2796
839.094	2807
839.231	2883
839.369	3036
839.506	3389
839.643	3180
839.781	3005
839.918	2948
840.055	3013
840.193	3051
840.33	3036
840.467	3093
840.604	3161
840.742	3409
840.879	3024
841.016	3062
841.153	3104
841.29	3325
841.427	3287
841.564	3230
841.701	3287
841.838	3222
841.975	3207
842.112	3199
842.249	3093
842.385	3024
842.522	3249
842.659	3066
842.796	3032
842.933	3131
843.069	3047
843.206	3028
843.343	3176
843.479	3104
843.616	3108
843.752	2910
843.889	2872
844.025	3066
844.162	2914
844.298	3077
844.435	2960
844.571	2944
844.708	3062
844.844	3161
844.98	3218
845.117	3184
845.253	3070
845.389	2994
845.525	3081
845.661	3097
845.798	3058
845.934	3097
846.07	3020
846.206	3176
846.342	3325
846.478	3233
846.614	3085
846.75	3055
846.886	3017
847.022	3253
847.158	3146
847.294	3195
847.429	3249
847.565	3192
847.701	3428
847.837	3009
847.972	3001
848.108	3169
848.244	3119
848.379	2986
848.515	2960
848.65	2941
848.786	2918
848.921	3028
849.057	3104
849.192	3142
849.328	3104
849.463	3058
849.598	3074
849.734	3032
849.869	3001
850.004	2895
850.14	2952
850.275	2906
850.41	2834
850.545	2857
850.68	2941
850.815	2933
850.95	2963
851.085	3165
851.22	3093
851.355	2998
851.49	2963
851.625	2990
851.76	3017
851.895	2902
852.03	2952
852.165	3024
852.299	3097
852.434	3165
852.569	3142
852.703	3146
852.838	3211
852.973	3340
853.107	3317
853.242	3169
853.376	3058
853.511	2975
853.645	3032
853.78	3275
853.914	3142
854.048	3123
854.183	3093
854.317	3154
854.451	3302
854.585	3131
854.72	3093
854.854	3222
854.988	3028
855.122	3055
855.256	2994
855.39	3097
855.524	3249
855.658	3150
855.792	3154
855.926	3207
856.06	3203
856.194	3207
856.327	3188
856.461	3066
856.595	3097
856.729	3070
856.862	3176
856.996	3165
857.13	3135
857.263	3237
857.397	3222
857.53	3142
857.664	3188
857.797	3245
857.931	3218
858.064	3146
858.197	3218
858.331	3116
858.464	3089
858.597	2990
858.731	3070
858.864	3104
858.997	3097
859.13	3138
859.263	3180
859.396	3192
859.529	3051
859.662	3055
859.795	3024
859.928	3104
860.061	3279
860.194	3260
860.327	3100
860.46	3058
860.592	3264
860.725	3253
860.858	3192
860.99	3077
861.123	3036
861.256	3043
861.388	3123
861.521	3694
861.653	3020
861.786	2948
861.918	3009
862.05	3013
862.183	3051
862.315	3119
862.447	3169
862.58	3089
862.712	2952
862.844	2872
862.976	3036
863.108	2960
863.24	3317
863.372	2861
863.504	2952
863.636	2933
863.768	2975
863.9	2948
864.032	2861
864.164	2922
864.296	2998
864.428	3093
864.559	3100
864.691	3032
864.823	3097
864.954	3013
865.086	3081
865.217	3005
865.349	2956
865.48	2986
865.612	3013
865.743	3138
865.875	2994
866.006	2910
866.137	2963
866.269	2956
866.4	2922
866.531	2929
866.662	2880
866.793	2864
866.924	2887
867.055	2994
867.186	2918
867.317	2883
867.448	2834
867.579	2811
867.71	2864
867.841	2807
867.972	2880
868.103	2880
868.233	2864
868.364	2872
868.495	2880
868.625	3104
868.756	3176
868.886	2986
869.017	3043
869.147	3150
869.278	3142
869.408	3047
869.539	3032
869.669	3097
869.799	3055
869.929	3135
870.06	3089
870.19	3283
870.32	3279
870.45	3287
870.58	3351
870.71	3443
870.84	3420
870.97	3260
871.1	3218
871.23	3412
871.36	3428
871.489	3367
871.619	3420
871.749	3370
871.879	3389
872.008	3458
872.138	3359
872.267	3249
872.397	3165
872.526	3089
872.656	2979
872.785	3112
872.915	3237
873.044	3332
873.173	3237
873.303	3241
873.432	3207
873.561	3195
873.69	3184
873.819	3142
873.948	3169
874.077	3104
874.206	3032
874.335	3100
874.464	3249
874.593	3367
874.722	3211
874.851	3389
874.979	3317
875.108	3332
875.237	3199
875.365	3195
875.494	3169
875.623	3272
875.751	3081
875.88	3093
876.008	3157
876.136	3199
876.265	3393
876.393	3469
876.521	3405
876.65	3367
876.778	3329
876.906	3233
877.034	3176
877.162	3249
877.29	3173
877.418	3253
877.546	3253
877.674	3218
877.802	3249
877.93	3203
878.058	3165
878.185	3093
878.313	3192
878.441	3184
878.568	3081
878.696	3157
878.824	3226
878.951	3272
879.079	3401
879.206	3572
879.333	3382
879.461	3272
879.588	3348
879.715	3492
879.842	3572
879.97	3397
880.097	3112
880.224	3119
880.351	3184
880.478	3192
880.605	3169
880.732	3176
880.859	3504
880.986	3298
881.112	3351
881.239	3169
881.366	3123
881.493	3024
881.619	2994
881.746	3074
881.872	3077
881.999	3081
882.125	3131
882.252	3203
882.378	3226
882.505	3431
882.631	3287
882.757	3135
882.883	3226
883.01	3184
883.136	3142
883.262	3066
883.388	3104
883.514	3313
883.64	3359
883.766	3283
883.892	3222
884.018	3233
884.143	3424
884.269	3496
884.395	3211
884.52	3127
884.646	3165
884.772	3116
884.897	3085
885.023	3180
885.148	3340
885.274	3386
885.399	3370
885.524	3291
885.65	3249
885.775	3302
885.9	3275
886.025	3435
886.15	3344
886.275	3310
886.4	3237
886.525	3321
886.65	3260
886.775	3264
886.9	3500
887.025	3641
887.149	3382
887.274	3207
887.399	3184
887.523	3176
887.648	3142
887.773	3176
887.897	3367
888.021	3393
888.146	3302
888.27	3435
888.395	3511
888.519	3424
888.643	3405
888.767	3412
888.891	3294
889.015	3245
889.139	3291
889.263	3256
889.387	3428
889.511	3504
889.635	3439
889.759	3340
889.883	3245
890.006	3389
890.13	3454
890.254	3287
890.377	3313
890.501	3207
890.624	3161
890.748	3294
890.871	3161
890.995	3100
891.118	3028
891.241	3176
891.364	3260
891.488	3302
891.611	3180
891.734	3211
891.857	3310
891.98	3184
892.103	3359
892.226	3256
892.349	3226
892.471	3097
892.594	3214
892.717	3260
892.839	3256
892.962	3253
893.085	3382
893.207	3287
893.33	3146
893.452	3192
893.575	3321
893.697	3214
893.819	3450
893.941	3481
894.064	3450
894.186	3268
894.308	3256
894.43	3435
894.552	3477
894.674	3458
894.796	3294
894.918	3310
895.04	3287
895.161	3428
895.283	3386
895.405	3310
895.526	3370
895.648	3424
895.769	3363
895.891	3424
896.012	3447
896.134	3466
896.255	3405
896.376	3378
896.498	3351
896.619	3450
896.74	3329
896.861	3382
896.982	3629
897.103	3850
897.224	3618
897.345	3507
897.466	3409
897.587	3477
897.708	3618
897.828	3530
897.949	3409
898.07	3344
898.19	3359
898.311	3595
898.431	3447
898.552	3488
898.672	3576
898.792	3584
898.913	3507
899.033	3389
899.153	3294
899.273	3222
899.393	3302
899.513	3272
899.633	3317
899.753	3332
899.873	3275
899.993	3355
900.113	3351
900.232	3378
900.352	3302
900.472	3275
900.591	3192
900.711	3294
900.83	3253
900.95	3348
901.069	3477
901.189	3336
901.308	3150
901.427	3131
901.546	3169
901.665	3260
901.784	3317
901.904	3161
902.023	3150
902.141	2998
902.26	2941
902.379	3116
902.498	3028
902.617	3028
902.735	3203
902.854	3218
902.973	3211
903.091	3013
903.21	3116
903.328	3150
903.446	3093
903.565	3077
903.683	3218
903.801	3108
903.919	3207
904.038	3230
904.156	3138
904.274	3294
904.392	3272
904.51	3275
904.627	3332
904.745	3447
904.863	3443
904.981	3256
905.098	3165
905.216	3214
905.334	3264
905.451	3279
905.569	3287
905.686	3401
905.803	3424
905.921	3294
906.038	3443
906.155	3313
906.272	3241
906.389	3321
906.506	3241
906.623	3249
906.74	3249
906.857	3157
906.974	3226
907.091	3431
907.208	3553
907.324	3447
907.441	3389
907.557	3195
907.674	3211
907.79	3173
907.907	3260
908.023	3374
908.139	3382
908.256	3313
908.372	3386
908.488	3317
908.604	3260
908.72	3180
908.836	3264
908.952	3325
909.068	3367
909.184	3469
909.3	3351
909.415	3481
909.531	3447
909.647	3253
909.762	3283
909.878	3230
909.993	3355
910.108	3336
910.224	3332
910.339	3443
910.454	3332
910.57	3310
910.685	3233
910.8	3538
910.915	3542
911.03	3428
911.145	3302
911.259	3275
911.374	3317
911.489	3245
911.604	3233
911.718	3123
911.833	3127
911.947	3066
912.062	2979
912.176	3218
912.291	3211
912.405	3226
912.519	3458
912.633	3523
912.748	3336
912.862	3283
912.976	3207
913.09	3089
913.204	3184
913.318	3233
913.431	3344
913.545	3340
913.659	3439
913.772	3332
913.886	3237
914	3237
914.113	3363
914.226	3439
914.34	3428
914.453	3245
914.566	3416
914.68	3344
914.793	3355
914.906	3184
915.019	3165
915.132	3123
915.245	3245
915.358	3260
915.47	3211
915.583	3260
915.696	3313
915.809	3466
915.921	3492
916.034	3329
916.146	3306
916.259	3218
916.371	3420
916.483	3431
916.595	3275
916.708	3393
916.82	3355
916.932	3370
917.044	3363
917.156	3409
917.268	3302
917.38	3329
917.491	3310
917.603	3424
917.715	3473
917.826	3526
917.938	3389
918.049	3279
918.161	3466
918.272	3618
918.384	3595
918.495	3485
918.606	3367
918.717	3313
918.828	3405
918.939	3469
919.05	3279
919.161	3443
919.272	3214
919.383	3336
919.494	3504
919.604	3705
919.715	3561
919.826	3412
919.936	3485
920.047	3641
920.157	3603
920.267	3797
920.378	3610
920.488	3584
920.598	3831
920.708	4021
920.818	3838
920.928	3873
921.038	4025
921.148	4029
921.258	3740
921.368	3663
921.477	3622
921.587	3557
921.697	3507
921.806	3671
921.916	3564
922.025	3401
922.134	3359
922.244	3359
922.353	3477
922.462	3298
922.571	3268
922.68	3192
922.789	3127
922.898	3161
923.007	3150
923.116	3256
923.224	3203
923.333	3233
923.442	3154
923.55	3119
923.659	3192
923.767	3226
923.876	3192
923.984	3241
924.092	3169
924.201	3291
924.309	3245
924.417	3264
924.525	3184
924.633	3218
924.741	4051
924.849	3112
924.956	3294
925.064	3108
925.172	3093
925.279	3116
925.387	3260
925.494	3199
925.602	3355
925.709	3317
925.816	3264
925.924	3264
926.031	3435
926.138	3313
926.245	3393
926.352	3268
926.459	3420
926.566	3485
926.673	3344
926.779	3287
926.886	3241
926.993	3157
927.099	3161
927.206	3112
927.312	3154
927.419	3237
927.525	3214
927.631	3275
927.737	3150
927.843	3165
927.95	3036
928.056	3176
928.162	3214
928.267	3298
928.373	3876
928.479	3351
928.585	3116
928.69	3264
928.796	3298
928.901	3192
929.007	3097
929.112	3203
929.218	3184
929.323	3142
929.428	3150
929.533	3348
929.638	3123
929.743	3192
929.848	3298
929.953	3260
930.058	3161
930.163	3032
930.267	3100
930.372	3245
930.477	3081
930.581	3355
930.685	3176
930.79	3100
930.894	3154
930.998	3154
931.103	3325
931.207	2994
931.311	2986
931.415	2975
931.519	2788
931.623	2872
