Data from test_V78500241_1857.txt Node
Date: Fri Mar 25 16:28:04 CST 2022
User: usil
Spectrometer: V785-0024
Trigger mode: 0
Integration Time (sec): 4.000000E-1
Scans to average: 1
Nonlinearity correction enabled: false
Boxcar width: 0
Storing dark spectrum: false
XAxis mode: Wavelengths
Number of Pixels in Spectrum: 1024
>>>>>Begin Spectral Data<<<<<
801.071	2956
801.214	2998
801.356	2922
801.499	2948
801.641	2922
801.783	2963
801.926	3077
802.068	3001
802.211	3009
802.353	3017
802.496	3013
802.638	3043
802.78	3058
802.923	3085
803.065	3017
803.208	2944
803.35	2918
803.492	2952
803.635	2952
803.777	2804
803.919	2880
804.061	3218
804.204	2979
804.346	2944
804.488	2902
804.63	2994
804.773	2902
804.915	2895
805.057	3104
805.199	2971
805.341	2998
805.483	3066
805.626	3024
805.768	2979
805.91	3108
806.052	3116
806.194	3032
806.336	3249
806.478	3055
806.62	2963
806.762	3005
806.904	3058
807.046	3211
807.188	2994
807.33	2906
807.472	3017
807.614	2914
807.756	3001
807.898	2941
808.04	2918
808.182	2986
808.324	2956
808.465	2941
808.607	2902
808.749	2804
808.891	2861
809.033	3009
809.174	3017
809.316	2918
809.458	2948
809.6	2819
809.741	2792
809.883	2807
810.025	2872
810.166	2872
810.308	2880
810.45	2880
810.591	2796
810.733	2811
810.875	2838
811.016	2773
811.158	2769
811.299	2830
811.441	2944
811.582	2910
811.724	2826
811.865	2845
812.007	2906
812.148	2880
812.29	2853
812.431	2922
812.573	2929
812.714	3009
812.855	3112
812.997	3055
813.138	3176
813.279	3032
813.421	3013
813.562	2982
813.703	2872
813.845	2937
813.986	2781
814.127	2735
814.268	2838
814.41	2861
814.551	2849
814.692	2906
814.833	2853
814.974	2891
815.115	2994
815.256	2796
815.397	2880
815.539	2883
815.68	2807
815.821	2853
815.962	2967
816.103	2944
816.244	2910
816.385	2906
816.526	3001
816.666	2929
816.807	2766
816.948	2929
817.089	2914
817.23	2887
817.371	2823
817.512	2819
817.653	2868
817.793	2838
817.934	2933
818.075	3017
818.216	2998
818.356	3017
818.497	2899
818.638	2773
818.778	2845
818.919	2891
819.06	2815
819.2	2899
819.341	2826
819.481	2826
819.622	2944
819.762	3116
819.903	3058
820.043	2929
820.184	2895
820.324	2914
820.465	3039
820.605	3005
820.746	3058
820.886	2975
821.026	3169
821.167	3226
821.307	3253
821.447	3291
821.588	3256
821.728	3226
821.868	3199
822.008	3074
822.149	3192
822.289	3249
822.429	3127
822.569	3119
822.709	3203
822.849	3036
822.99	3055
823.13	3211
823.27	3176
823.41	3173
823.55	3214
823.69	3112
823.83	3230
823.97	3135
824.11	3009
824.25	3009
824.389	3085
824.529	3116
824.669	3104
824.809	3233
824.949	3279
825.089	3195
825.228	3195
825.368	3055
825.508	2975
825.648	2994
825.787	3028
825.927	3032
826.067	3032
826.206	2960
826.346	3077
826.485	3093
826.625	3154
826.765	3291
826.904	3207
827.044	3055
827.183	2952
827.323	2883
827.462	3036
827.601	2918
827.741	2952
827.88	2944
828.02	2838
828.159	2963
828.298	3047
828.437	3123
828.577	3047
828.716	3268
828.855	3058
828.994	2906
829.134	2906
829.273	2918
829.412	2868
829.551	2868
829.69	2899
829.829	2982
829.968	3161
830.107	3039
830.246	3039
830.385	2933
830.524	2899
830.663	2853
830.802	2746
830.941	2667
831.08	2667
831.219	2796
831.357	2758
831.496	2948
831.635	2727
831.774	2705
831.913	2693
832.051	2590
832.19	2583
832.329	2667
832.467	2568
832.606	2503
832.744	2571
832.883	2613
833.022	2613
833.16	2686
833.299	2716
833.437	2701
833.576	2735
833.714	2720
833.852	2762
833.991	2746
834.129	2826
834.267	2849
834.406	2807
834.544	2899
834.682	2883
834.821	2876
834.959	3085
835.097	2925
835.235	3085
835.373	3020
835.511	3032
835.65	2967
835.788	2956
835.926	2868
836.064	2785
836.202	2861
836.34	3116
836.478	3169
836.615	3039
836.753	3154
836.891	3226
837.029	3161
837.167	3138
837.305	3066
837.443	3058
837.58	2967
837.718	3142
837.856	3043
837.993	3032
838.131	3150
838.269	3100
838.406	3123
838.544	3116
838.681	2929
838.819	2929
838.956	2811
839.094	2842
839.231	2922
839.369	3062
839.506	3355
839.643	3230
839.781	3028
839.918	2994
840.055	3055
840.193	3074
840.33	3081
840.467	3135
840.604	3142
840.742	3401
840.879	3085
841.016	3077
841.153	3116
841.29	3321
841.427	3344
841.564	3268
841.701	3321
841.838	3253
841.975	3184
842.112	3226
842.249	3093
842.385	3051
842.522	3272
842.659	3112
842.796	3074
842.933	3173
843.069	3028
843.206	3058
843.343	3230
843.479	3119
843.616	3195
843.752	2880
843.889	2899
844.025	3089
844.162	2887
844.298	3100
844.435	2967
844.571	2914
844.708	3085
844.844	3184
844.98	3256
845.117	3222
845.253	3032
845.389	3017
845.525	3123
845.661	3089
845.798	3028
845.934	3161
846.07	3097
846.206	3184
846.342	3348
846.478	3226
846.614	3112
846.75	3062
846.886	3062
847.022	3233
847.158	3150
847.294	3241
847.429	3256
847.565	3260
847.701	3443
847.837	3039
847.972	3017
848.108	3176
848.244	3176
848.379	3017
848.515	2990
848.65	2952
848.786	2960
848.921	3013
849.057	3108
849.192	3161
849.328	3066
849.463	3089
849.598	3085
849.734	3036
849.869	2986
850.004	2948
850.14	2979
850.275	2906
850.41	2861
850.545	2922
850.68	2918
850.815	2994
850.95	3001
851.085	3173
851.22	3116
851.355	3009
851.49	2979
851.625	3020
851.76	3043
851.895	2986
852.03	2929
852.165	3055
852.299	3131
852.434	3157
852.569	3169
852.703	3195
852.838	3249
852.973	3397
853.107	3344
853.242	3131
853.376	3108
853.511	2952
853.645	3074
853.78	3245
853.914	3131
854.048	3112
854.183	3119
854.317	3146
854.451	3329
854.585	3104
854.72	3074
854.854	3199
854.988	3074
855.122	3108
855.256	2952
855.39	3142
855.524	3283
855.658	3138
855.792	3207
855.926	3188
856.06	3195
856.194	3256
856.327	3157
856.461	3119
856.595	3085
856.729	3119
856.862	3218
856.996	3165
857.13	3188
857.263	3222
857.397	3294
857.53	3138
857.664	3207
857.797	3233
857.931	3283
858.064	3165
858.197	3214
858.331	3135
858.464	3119
858.597	3013
858.731	3081
858.864	3097
858.997	3039
859.13	3131
859.263	3192
859.396	3180
859.529	3097
859.662	3108
859.795	3039
859.928	3150
860.061	3249
860.194	3264
860.327	3108
860.46	3093
860.592	3245
860.725	3249
860.858	3279
860.99	3116
861.123	3043
861.256	3024
861.388	3154
861.521	3892
861.653	3001
861.786	2982
861.918	3032
862.05	3074
862.183	3138
862.315	3138
862.447	3203
862.58	3108
862.712	2967
862.844	2914
862.976	3062
863.108	3039
863.24	3412
863.372	2880
863.504	2975
863.636	2971
863.768	3066
863.9	3009
864.032	2929
864.164	2960
864.296	2986
864.428	3116
864.559	3116
864.691	3066
864.823	3028
864.954	3051
865.086	3043
865.217	3024
865.349	2960
865.48	2998
865.612	3039
865.743	3142
865.875	2982
866.006	2937
866.137	2986
866.269	2963
866.4	2933
866.531	2910
866.662	2853
866.793	2845
866.924	2906
867.055	2944
867.186	2937
867.317	2902
867.448	2845
867.579	2826
867.71	2883
867.841	2807
867.972	2937
868.103	2944
868.233	2895
868.364	2876
868.495	2883
868.625	3070
868.756	3146
868.886	2986
869.017	3024
869.147	3169
869.278	3195
869.408	3074
869.539	3032
869.669	3089
869.799	3081
869.929	3135
870.06	3119
870.19	3351
870.32	3287
870.45	3298
870.58	3378
870.71	3447
870.84	3428
870.97	3291
871.1	3245
871.23	3450
871.36	3481
871.489	3351
871.619	3420
871.749	3447
871.879	3435
872.008	3477
872.138	3355
872.267	3272
872.397	3131
872.526	3066
872.656	3024
872.785	3081
872.915	3279
873.044	3317
873.173	3264
873.303	3233
873.432	3218
873.561	3279
873.69	3150
873.819	3150
873.948	3222
874.077	3085
874.206	3070
874.335	3066
874.464	3203
874.593	3306
874.722	3218
874.851	3431
874.979	3359
875.108	3310
875.237	3203
875.365	3180
875.494	3157
875.623	3237
875.751	3108
875.88	3119
876.008	3161
876.136	3214
876.265	3317
876.393	3504
876.521	3397
876.65	3447
876.778	3351
876.906	3226
877.034	3214
877.162	3207
877.29	3176
877.418	3218
877.546	3253
877.674	3249
877.802	3218
877.93	3195
878.058	3157
878.185	3104
878.313	3192
878.441	3222
878.568	3058
878.696	3131
878.824	3245
878.951	3294
879.079	3420
879.206	3614
879.333	3431
879.461	3310
879.588	3367
879.715	3477
879.842	3561
879.97	3409
880.097	3169
880.224	3123
880.351	3214
880.478	3218
880.605	3211
880.732	3165
880.859	3511
880.986	3256
881.112	3351
881.239	3161
881.366	3081
881.493	3036
881.619	3005
881.746	3066
881.872	3108
881.999	3108
882.125	3165
882.252	3218
882.378	3287
882.505	3458
882.631	3275
882.757	3150
882.883	3203
883.01	3218
883.136	3142
883.262	3097
883.388	3157
883.514	3306
883.64	3382
883.766	3313
883.892	3169
884.018	3233
884.143	3409
884.269	3500
884.395	3169
884.52	3154
884.646	3176
884.772	3142
884.897	3123
885.023	3188
885.148	3363
885.274	3481
885.399	3351
885.524	3287
885.65	3260
885.775	3325
885.9	3291
886.025	3431
886.15	3386
886.275	3287
886.4	3237
886.525	3253
886.65	3253
886.775	3268
886.9	3435
887.025	3610
887.149	3389
887.274	3260
887.399	3138
887.523	3211
887.648	3199
887.773	3195
887.897	3405
888.021	3405
888.146	3317
888.27	3450
888.395	3496
888.519	3454
888.643	3450
888.767	3481
888.891	3302
889.015	3256
889.139	3291
889.263	3272
889.387	3382
889.511	3507
889.635	3450
889.759	3283
889.883	3287
890.006	3370
890.13	3507
890.254	3279
890.377	3325
890.501	3207
890.624	3146
890.748	3367
890.871	3176
890.995	3093
891.118	3070
891.241	3207
891.364	3207
891.488	3272
891.611	3176
891.734	3203
891.857	3279
891.98	3211
892.103	3355
892.226	3321
892.349	3222
892.471	3142
892.594	3241
892.717	3256
892.839	3245
892.962	3283
893.085	3374
893.207	3283
893.33	3184
893.452	3169
893.575	3310
893.697	3245
893.819	3466
893.941	3515
894.064	3473
894.186	3260
894.308	3256
894.43	3428
894.552	3545
894.674	3454
894.796	3294
894.918	3283
895.04	3272
895.161	3450
895.283	3363
895.405	3294
895.526	3340
895.648	3435
895.769	3393
895.891	3435
896.012	3454
896.134	3477
896.255	3401
896.376	3370
896.498	3325
896.619	3435
896.74	3386
896.861	3367
896.982	3698
897.103	3842
897.224	3614
897.345	3485
897.466	3409
897.587	3542
897.708	3625
897.828	3519
897.949	3450
898.07	3310
898.19	3443
898.311	3618
898.431	3431
898.552	3500
898.672	3603
898.792	3549
898.913	3542
899.033	3412
899.153	3283
899.273	3253
899.393	3268
899.513	3317
899.633	3310
899.753	3363
899.873	3321
899.993	3363
900.113	3329
900.232	3370
900.352	3359
900.472	3294
900.591	3222
900.711	3256
900.83	3268
900.95	3393
901.069	3473
901.189	3348
901.308	3173
901.427	3146
901.546	3188
901.665	3283
901.784	3355
901.904	3226
902.023	3123
902.141	3009
902.26	3001
902.379	3138
902.498	3085
902.617	3028
902.735	3203
902.854	3306
902.973	3207
903.091	3051
903.21	3047
903.328	3127
903.446	3112
903.565	3055
903.683	3218
903.801	3138
903.919	3237
904.038	3283
904.156	3127
904.274	3310
904.392	3241
904.51	3287
904.627	3313
904.745	3386
904.863	3473
904.981	3283
905.098	3154
905.216	3237
905.334	3275
905.451	3291
905.569	3291
905.686	3443
905.803	3435
905.921	3279
906.038	3477
906.155	3378
906.272	3253
906.389	3332
906.506	3264
906.623	3272
906.74	3253
906.857	3176
906.974	3260
907.091	3416
907.208	3564
907.324	3469
907.441	3363
907.557	3192
907.674	3233
907.79	3211
907.907	3260
908.023	3370
908.139	3370
908.256	3344
908.372	3363
908.488	3359
908.604	3230
908.72	3222
908.836	3283
908.952	3237
909.068	3340
909.184	3462
909.3	3412
909.415	3530
909.531	3473
909.647	3275
909.762	3291
909.878	3253
909.993	3348
910.108	3348
910.224	3340
910.339	3405
910.454	3374
910.57	3275
910.685	3260
910.8	3584
910.915	3515
911.03	3450
911.145	3260
911.259	3237
911.374	3310
911.489	3233
911.604	3199
911.718	3085
911.833	3184
911.947	3058
912.062	2948
912.176	3169
912.291	3169
912.405	3207
912.519	3450
912.633	3466
912.748	3348
912.862	3275
912.976	3135
913.09	3062
913.204	3119
913.318	3195
913.431	3355
913.545	3317
913.659	3405
913.772	3351
913.886	3211
914	3218
914.113	3382
914.226	3374
914.34	3355
914.453	3195
914.566	3416
914.68	3275
914.793	3329
914.906	3154
915.019	3131
915.132	3093
915.245	3142
915.358	3184
915.47	3241
915.583	3264
915.696	3287
915.809	3431
915.921	3416
916.034	3264
916.146	3272
916.259	3237
916.371	3374
916.483	3397
916.595	3279
916.708	3306
916.82	3321
916.932	3351
917.044	3317
917.156	3374
917.268	3253
917.38	3298
917.491	3291
917.603	3363
917.715	3416
917.826	3466
917.938	3389
918.049	3279
918.161	3412
918.272	3523
918.384	3530
918.495	3473
918.606	3283
918.717	3268
918.828	3325
918.939	3405
919.05	3272
919.161	3348
919.272	3188
919.383	3302
919.494	3553
919.604	3675
919.715	3496
919.826	3382
919.936	3431
920.047	3572
920.157	3526
920.267	3751
920.378	3572
920.488	3572
920.598	3800
920.708	3930
920.818	3835
920.928	3873
921.038	4013
921.148	3983
921.258	3701
921.368	3644
921.477	3530
921.587	3534
921.697	3450
921.806	3625
921.916	3542
922.025	3370
922.134	3351
922.244	3325
922.353	3420
922.462	3233
922.571	3226
922.68	3108
922.789	3074
922.898	3116
923.007	3104
923.116	3226
923.224	3150
923.333	3173
923.442	3089
923.55	3074
923.659	3154
923.767	3214
923.876	3123
923.984	3233
924.092	3074
924.201	3214
924.309	3245
924.417	3214
924.525	3154
924.633	3230
924.741	4013
924.849	3013
924.956	3241
925.064	3108
925.172	3036
925.279	3077
925.387	3180
925.494	3161
925.602	3306
925.709	3317
925.816	3165
925.924	3272
926.031	3401
926.138	3313
926.245	3332
926.352	3245
926.459	3401
926.566	3439
926.673	3291
926.779	3214
926.886	3260
926.993	3157
927.099	3108
927.206	3146
927.312	3093
927.419	3222
927.525	3199
927.631	3279
927.737	3173
927.843	3131
927.95	3028
928.056	3127
928.162	3165
928.267	3268
928.373	3751
928.479	3291
928.585	3009
928.69	3176
928.796	3237
928.901	3123
929.007	3039
929.112	3184
929.218	3169
929.323	3157
929.428	3142
929.533	3302
929.638	3097
929.743	3199
929.848	3302
929.953	3218
930.058	3116
930.163	3032
930.267	3017
930.372	3230
930.477	3020
930.581	3283
930.685	3230
930.79	3055
930.894	3123
930.998	3100
931.103	3279
931.207	2941
931.311	2929
931.415	2948
931.519	2758
931.623	2838
