Data from test_V78500241_418.txt Node
Date: Fri Mar 25 16:18:05 CST 2022
User: usil
Spectrometer: V785-0024
Trigger mode: 0
Integration Time (sec): 4.000000E-1
Scans to average: 1
Nonlinearity correction enabled: false
Boxcar width: 0
Storing dark spectrum: false
XAxis mode: Wavelengths
Number of Pixels in Spectrum: 1024
>>>>>Begin Spectral Data<<<<<
801.071	2906
801.214	2956
801.356	2861
801.499	2899
801.641	2857
801.783	2910
801.926	3039
802.068	2925
802.211	2986
802.353	3036
802.496	2960
802.638	3009
802.78	3020
802.923	3055
803.065	2994
803.208	2899
803.35	2937
803.492	2914
803.635	2952
803.777	2743
803.919	2872
804.061	3207
804.204	2937
804.346	2918
804.488	2830
804.63	2994
804.773	2861
804.915	2914
805.057	3062
805.199	2925
805.341	2979
805.483	3051
805.626	2990
805.768	2952
805.91	3089
806.052	3119
806.194	3020
806.336	3233
806.478	2971
806.62	2937
806.762	2941
806.904	3066
807.046	3207
807.188	2990
807.33	2891
807.472	2994
807.614	2891
807.756	2971
807.898	2891
808.04	2918
808.182	2994
808.324	2944
808.465	2872
808.607	2864
808.749	2785
808.891	2853
809.033	2933
809.174	2960
809.316	2929
809.458	2906
809.6	2785
809.741	2796
809.883	2758
810.025	2861
810.166	2891
810.308	2845
810.45	2830
810.591	2762
810.733	2731
810.875	2807
811.016	2773
811.158	2735
811.299	2834
811.441	2963
811.582	2918
811.724	2796
811.865	2830
812.007	2914
812.148	2864
812.29	2876
812.431	2826
812.573	2937
812.714	2933
812.855	3028
812.997	3051
813.138	3154
813.279	2994
813.421	2986
813.562	2967
813.703	2883
813.845	2914
813.986	2750
814.127	2731
814.268	2788
814.41	2838
814.551	2834
814.692	2864
814.833	2804
814.974	2918
815.115	2963
815.256	2819
815.397	2811
815.539	2872
815.68	2781
815.821	2769
815.962	2922
816.103	2914
816.244	2838
816.385	2887
816.526	2967
816.666	2906
816.807	2792
816.948	2895
817.089	2899
817.23	2842
817.371	2788
817.512	2788
817.653	2845
817.793	2830
817.934	2864
818.075	2982
818.216	2967
818.356	3020
818.497	2876
818.638	2766
818.778	2800
818.919	2781
819.06	2766
819.2	2891
819.341	2811
819.481	2811
819.622	2925
819.762	3085
819.903	3024
820.043	2880
820.184	2883
820.324	2906
820.465	3024
820.605	3032
820.746	3017
820.886	2933
821.026	3119
821.167	3154
821.307	3226
821.447	3264
821.588	3249
821.728	3214
821.868	3203
822.008	3085
822.149	3188
822.289	3237
822.429	3070
822.569	3093
822.709	3192
822.849	3066
822.99	3074
823.13	3142
823.27	3192
823.41	3104
823.55	3222
823.69	3146
823.83	3169
823.97	3074
824.11	3017
824.25	2944
824.389	3055
824.529	3108
824.669	3074
824.809	3199
824.949	3230
825.089	3222
825.228	3188
825.368	3013
825.508	2929
825.648	2982
825.787	3009
825.927	3009
826.067	2990
826.206	2986
826.346	3055
826.485	3089
826.625	3112
826.765	3241
826.904	3188
827.044	3024
827.183	2944
827.323	2842
827.462	2979
827.601	2872
827.741	2944
827.88	2929
828.02	2857
828.159	2971
828.298	3032
828.437	3097
828.577	3047
828.716	3245
828.855	3070
828.994	2902
829.134	2864
829.273	2925
829.412	2891
829.551	2834
829.69	2872
829.829	3001
829.968	3108
830.107	3028
830.246	3032
830.385	2933
830.524	2842
830.663	2785
830.802	2712
830.941	2674
831.08	2644
831.219	2773
831.357	2739
831.496	2982
831.635	2712
831.774	2674
831.913	2640
832.051	2537
832.19	2590
832.329	2682
832.467	2507
832.606	2499
832.744	2598
832.883	2579
833.022	2598
833.16	2663
833.299	2678
833.437	2670
833.576	2705
833.714	2716
833.852	2735
833.991	2758
834.129	2864
834.267	2788
834.406	2758
834.544	2910
834.682	2857
834.821	2842
834.959	3081
835.097	2937
835.235	3066
835.373	3001
835.511	3028
835.65	2982
835.788	2937
835.926	2811
836.064	2834
836.202	2853
836.34	3089
836.478	3108
836.615	3005
836.753	3138
836.891	3241
837.029	3146
837.167	3127
837.305	3051
837.443	3043
837.58	2956
837.718	3108
837.856	3097
837.993	3024
838.131	3127
838.269	3108
838.406	3077
838.544	3108
838.681	2960
838.819	2918
838.956	2811
839.094	2857
839.231	2906
839.369	3024
839.506	3374
839.643	3245
839.781	3009
839.918	2975
840.055	3051
840.193	3039
840.33	3077
840.467	3104
840.604	3138
840.742	3393
840.879	3077
841.016	3047
841.153	3089
841.29	3374
841.427	3291
841.564	3287
841.701	3317
841.838	3203
841.975	3173
842.112	3233
842.249	3058
842.385	3017
842.522	3264
842.659	3123
842.796	3062
842.933	3131
843.069	3081
843.206	3058
843.343	3184
843.479	3062
843.616	3131
843.752	2895
843.889	2887
844.025	3089
844.162	2922
844.298	3104
844.435	2937
844.571	2914
844.708	3089
844.844	3188
844.98	3237
845.117	3184
845.253	3051
845.389	3001
845.525	3119
845.661	3104
845.798	3032
845.934	3123
846.07	3051
846.206	3245
846.342	3298
846.478	3233
846.614	3150
846.75	3047
846.886	3043
847.022	3249
847.158	3108
847.294	3203
847.429	3237
847.565	3176
847.701	3454
847.837	3051
847.972	3001
848.108	3157
848.244	3112
848.379	2982
848.515	2902
848.65	2929
848.786	2933
848.921	3005
849.057	3100
849.192	3142
849.328	3089
849.463	3131
849.598	3077
849.734	3001
849.869	2956
850.004	2876
850.14	2986
850.275	2899
850.41	2838
850.545	2868
850.68	2914
850.815	3001
850.95	2979
851.085	3154
851.22	3089
851.355	3077
851.49	2967
851.625	2998
851.76	3005
851.895	2948
852.03	2864
852.165	3032
852.299	3108
852.434	3169
852.569	3138
852.703	3180
852.838	3256
852.973	3348
853.107	3348
853.242	3131
853.376	3077
853.511	2971
853.645	3039
853.78	3192
853.914	3070
854.048	3100
854.183	3066
854.317	3100
854.451	3291
854.585	3097
854.72	3085
854.854	3195
854.988	3043
855.122	3119
855.256	2990
855.39	3150
855.524	3241
855.658	3195
855.792	3135
855.926	3199
856.06	3184
856.194	3230
856.327	3131
856.461	3081
856.595	3051
856.729	3062
856.862	3203
856.996	3184
857.13	3157
857.263	3188
857.397	3256
857.53	3112
857.664	3203
857.797	3222
857.931	3256
858.064	3157
858.197	3207
858.331	3116
858.464	3116
858.597	2998
858.731	3081
858.864	3119
858.997	3036
859.13	3199
859.263	3199
859.396	3165
859.529	3039
859.662	3097
859.795	2979
859.928	3135
860.061	3283
860.194	3291
860.327	3131
860.46	3074
860.592	3207
860.725	3230
860.858	3272
860.99	3123
861.123	3066
861.256	3055
861.388	3123
861.521	3930
861.653	3043
861.786	2963
861.918	3009
862.05	3036
862.183	3077
862.315	3157
862.447	3173
862.58	3085
862.712	2967
862.844	2861
862.976	3001
863.108	2967
863.24	3306
863.372	2891
863.504	2979
863.636	2967
863.768	3001
863.9	2967
864.032	2883
864.164	2948
864.296	2982
864.428	3112
864.559	3077
864.691	3074
864.823	3104
864.954	3017
865.086	3077
865.217	3009
865.349	2963
865.48	2971
865.612	3028
865.743	3135
865.875	2975
866.006	2944
866.137	2975
866.269	2956
866.4	2914
866.531	2956
866.662	2922
866.793	2902
866.924	2895
867.055	2960
867.186	2925
867.317	2876
867.448	2834
867.579	2883
867.71	2857
867.841	2819
867.972	2891
868.103	2876
868.233	2872
868.364	2883
868.495	2910
868.625	3062
868.756	3150
868.886	2956
869.017	3017
869.147	3154
869.278	3112
869.408	3055
869.539	3017
869.669	3104
869.799	3039
869.929	3093
870.06	3116
870.19	3344
870.32	3272
870.45	3260
870.58	3317
870.71	3405
870.84	3439
870.97	3310
871.1	3211
871.23	3485
871.36	3428
871.489	3370
871.619	3367
871.749	3401
871.879	3443
872.008	3439
872.138	3363
872.267	3272
872.397	3142
872.526	3058
872.656	3020
872.785	3097
872.915	3256
873.044	3317
873.173	3180
873.303	3226
873.432	3192
873.561	3226
873.69	3165
873.819	3112
873.948	3180
874.077	3093
874.206	3051
874.335	3085
874.464	3176
874.593	3329
874.722	3268
874.851	3393
874.979	3340
875.108	3359
875.237	3218
875.365	3173
875.494	3150
875.623	3241
875.751	3070
875.88	3100
876.008	3199
876.136	3211
876.265	3378
876.393	3466
876.521	3397
876.65	3405
876.778	3348
876.906	3226
877.034	3207
877.162	3203
877.29	3119
877.418	3249
877.546	3226
877.674	3211
877.802	3241
877.93	3253
878.058	3116
878.185	3123
878.313	3211
878.441	3214
878.568	3089
878.696	3161
878.824	3256
878.951	3298
879.079	3397
879.206	3614
879.333	3416
879.461	3336
879.588	3363
879.715	3500
879.842	3595
879.97	3397
880.097	3142
880.224	3089
880.351	3195
880.478	3192
880.605	3222
880.732	3188
880.859	3515
880.986	3291
881.112	3332
881.239	3199
881.366	3100
881.493	3055
881.619	3039
881.746	3081
881.872	3077
881.999	3093
882.125	3138
882.252	3253
882.378	3313
882.505	3447
882.631	3306
882.757	3146
882.883	3207
883.01	3199
883.136	3135
883.262	3089
883.388	3131
883.514	3279
883.64	3355
883.766	3294
883.892	3199
884.018	3222
884.143	3428
884.269	3526
884.395	3226
884.52	3173
884.646	3135
884.772	3089
884.897	3119
885.023	3173
885.148	3348
885.274	3431
885.399	3344
885.524	3264
885.65	3241
885.775	3313
885.9	3283
886.025	3428
886.15	3355
886.275	3294
886.4	3233
886.525	3332
886.65	3264
886.775	3256
886.9	3481
887.025	3625
887.149	3412
887.274	3230
887.399	3199
887.523	3184
887.648	3188
887.773	3176
887.897	3355
888.021	3382
888.146	3310
888.27	3439
888.395	3496
888.519	3485
888.643	3447
888.767	3450
888.891	3306
889.015	3214
889.139	3302
889.263	3256
889.387	3367
889.511	3511
889.635	3435
889.759	3283
889.883	3272
890.006	3386
890.13	3477
890.254	3275
890.377	3374
890.501	3207
890.624	3131
890.748	3275
890.871	3192
890.995	3119
891.118	3070
891.241	3214
891.364	3207
891.488	3317
891.611	3150
891.734	3218
891.857	3294
891.98	3233
892.103	3344
892.226	3283
892.349	3195
892.471	3070
892.594	3218
892.717	3294
892.839	3268
892.962	3283
893.085	3382
893.207	3253
893.33	3112
893.452	3230
893.575	3287
893.697	3233
893.819	3466
893.941	3511
894.064	3431
894.186	3256
894.308	3275
894.43	3458
894.552	3515
894.674	3496
894.796	3268
894.918	3317
895.04	3302
895.161	3424
895.283	3363
895.405	3310
895.526	3367
895.648	3412
895.769	3382
895.891	3447
896.012	3462
896.134	3401
896.255	3412
896.376	3336
896.498	3359
896.619	3431
896.74	3367
896.861	3374
896.982	3660
897.103	3797
897.224	3587
897.345	3538
897.466	3435
897.587	3496
897.708	3633
897.828	3549
897.949	3412
898.07	3359
898.19	3386
898.311	3595
898.431	3420
898.552	3485
898.672	3580
898.792	3564
898.913	3492
899.033	3401
899.153	3275
899.273	3211
899.393	3291
899.513	3325
899.633	3325
899.753	3363
899.873	3310
899.993	3370
900.113	3325
900.232	3355
900.352	3332
900.472	3291
900.591	3188
900.711	3283
900.83	3233
900.95	3389
901.069	3466
901.189	3348
901.308	3184
901.427	3138
901.546	3188
901.665	3241
901.784	3340
901.904	3218
902.023	3138
902.141	2971
902.26	3032
902.379	3142
902.498	3077
902.617	3062
902.735	3214
902.854	3237
902.973	3214
903.091	2990
903.21	3074
903.328	3104
903.446	3104
903.565	3108
903.683	3176
903.801	3131
903.919	3249
904.038	3287
904.156	3165
904.274	3306
904.392	3256
904.51	3291
904.627	3302
904.745	3428
904.863	3481
904.981	3275
905.098	3176
905.216	3203
905.334	3332
905.451	3279
905.569	3283
905.686	3420
905.803	3481
905.921	3279
906.038	3401
906.155	3313
906.272	3245
906.389	3321
906.506	3272
906.623	3253
906.74	3279
906.857	3237
906.974	3310
907.091	3382
907.208	3557
907.324	3481
907.441	3367
907.557	3249
907.674	3214
907.79	3214
907.907	3249
908.023	3378
908.139	3348
908.256	3317
908.372	3363
908.488	3378
908.604	3310
908.72	3226
908.836	3253
908.952	3279
909.068	3317
909.184	3435
909.3	3378
909.415	3485
909.531	3477
909.647	3256
909.762	3291
909.878	3272
909.993	3363
910.108	3359
910.224	3329
910.339	3397
910.454	3340
910.57	3241
910.685	3245
910.8	3618
910.915	3549
911.03	3416
911.145	3253
911.259	3264
911.374	3298
911.489	3253
911.604	3207
911.718	3146
911.833	3146
911.947	3039
912.062	2979
912.176	3123
912.291	3188
912.405	3192
912.519	3435
912.633	3523
912.748	3336
912.862	3241
912.976	3161
913.09	3062
913.204	3108
913.318	3230
913.431	3344
913.545	3298
913.659	3450
913.772	3340
913.886	3203
914	3199
914.113	3374
914.226	3416
914.34	3348
914.453	3173
914.566	3447
914.68	3313
914.793	3306
914.906	3138
915.019	3085
915.132	3055
915.245	3184
915.358	3188
915.47	3203
915.583	3260
915.696	3264
915.809	3412
915.921	3424
916.034	3222
916.146	3241
916.259	3192
916.371	3348
916.483	3344
916.595	3279
916.708	3374
916.82	3340
916.932	3340
917.044	3306
917.156	3359
917.268	3264
917.38	3317
917.491	3321
917.603	3355
917.715	3447
917.826	3458
917.938	3336
918.049	3287
918.161	3420
918.272	3584
918.384	3557
918.495	3496
918.606	3291
918.717	3275
918.828	3355
918.939	3439
919.05	3306
919.161	3370
919.272	3188
919.383	3253
919.494	3542
919.604	3644
919.715	3424
919.826	3416
919.936	3450
920.047	3557
920.157	3572
920.267	3762
920.378	3629
920.488	3568
920.598	3800
920.708	3953
920.818	3774
920.928	3831
921.038	4002
921.148	3972
921.258	3701
921.368	3618
921.477	3633
921.587	3534
921.697	3492
921.806	3614
921.916	3511
922.025	3359
922.134	3336
922.244	3336
922.353	3454
922.462	3241
922.571	3237
922.68	3070
922.789	3077
922.898	3135
923.007	3104
923.116	3211
923.224	3161
923.333	3199
923.442	3104
923.55	3104
923.659	3116
923.767	3192
923.876	3104
923.984	3237
924.092	3100
924.201	3203
924.309	3226
924.417	3264
924.525	3192
924.633	3237
924.741	4238
924.849	3055
924.956	3264
925.064	3085
925.172	3001
925.279	3104
925.387	3207
925.494	3214
925.602	3321
925.709	3367
925.816	3180
925.924	3317
926.031	3355
926.138	3306
926.245	3412
926.352	3241
926.459	3409
926.566	3462
926.673	3332
926.779	3264
926.886	3241
926.993	3154
927.099	3131
927.206	3108
927.312	3112
927.419	3218
927.525	3173
927.631	3294
927.737	3180
927.843	3112
927.95	3024
928.056	3150
928.162	3142
928.267	3245
928.373	3869
928.479	3294
928.585	3074
928.69	3180
928.796	3294
928.901	3142
929.007	3043
929.112	3233
929.218	3108
929.323	3146
929.428	3157
929.533	3325
929.638	3123
929.743	3169
929.848	3249
929.953	3222
930.058	3123
930.163	3024
930.267	3055
930.372	3230
930.477	3013
930.581	3310
930.685	3180
930.79	3062
930.894	3123
930.998	3085
931.103	3298
931.207	2960
931.311	2918
931.415	2941
931.519	2785
931.623	2811
