Data from test_V78500241_1603.txt Node
Date: Fri Mar 25 16:26:18 CST 2022
User: usil
Spectrometer: V785-0024
Trigger mode: 0
Integration Time (sec): 4.000000E-1
Scans to average: 1
Nonlinearity correction enabled: false
Boxcar width: 0
Storing dark spectrum: false
XAxis mode: Wavelengths
Number of Pixels in Spectrum: 1024
>>>>>Begin Spectral Data<<<<<
801.071	2922
801.214	2937
801.356	2887
801.499	2864
801.641	2887
801.783	2895
801.926	3051
802.068	2979
802.211	2990
802.353	3009
802.496	2982
802.638	3001
802.78	2971
802.923	3100
803.065	2986
803.208	2842
803.35	2948
803.492	2925
803.635	2914
803.777	2743
803.919	2857
804.061	3211
804.204	2914
804.346	2864
804.488	2815
804.63	2963
804.773	2857
804.915	2918
805.057	3097
805.199	2944
805.341	2994
805.483	3036
805.626	3009
805.768	2960
805.91	3089
806.052	3089
806.194	3024
806.336	3272
806.478	3020
806.62	2952
806.762	2967
806.904	3062
807.046	3188
807.188	2956
807.33	2910
807.472	2990
807.614	2941
807.756	2986
807.898	2899
808.04	2895
808.182	2944
808.324	2956
808.465	2857
808.607	2906
808.749	2800
808.891	2804
809.033	2960
809.174	3001
809.316	2880
809.458	2925
809.6	2762
809.741	2746
809.883	2785
810.025	2868
810.166	2834
810.308	2838
810.45	2826
810.591	2735
810.733	2788
810.875	2838
811.016	2773
811.158	2731
811.299	2815
811.441	2960
811.582	2914
811.724	2830
811.865	2830
812.007	2925
812.148	2857
812.29	2842
812.431	2849
812.573	2986
812.714	2979
812.855	3017
812.997	3051
813.138	3127
813.279	3009
813.421	2982
813.562	2956
813.703	2883
813.845	2914
813.986	2754
814.127	2720
814.268	2800
814.41	2823
814.551	2788
814.692	2887
814.833	2834
814.974	2876
815.115	2941
815.256	2861
815.397	2826
815.539	2861
815.68	2788
815.821	2788
815.962	2933
816.103	2910
816.244	2895
816.385	2891
816.526	2952
816.666	2902
816.807	2788
816.948	2872
817.089	2929
817.23	2864
817.371	2769
817.512	2788
817.653	2880
817.793	2826
817.934	2902
818.075	2963
818.216	2986
818.356	3066
818.497	2906
818.638	2777
818.778	2830
818.919	2777
819.06	2750
819.2	2864
819.341	2785
819.481	2811
819.622	2944
819.762	3093
819.903	3047
820.043	2899
820.184	2906
820.324	2876
820.465	3051
820.605	3013
820.746	3055
820.886	2944
821.026	3070
821.167	3131
821.307	3264
821.447	3245
821.588	3222
821.728	3214
821.868	3230
822.008	3081
822.149	3195
822.289	3214
822.429	3077
822.569	3100
822.709	3192
822.849	3036
822.99	3081
823.13	3150
823.27	3199
823.41	3100
823.55	3146
823.69	3138
823.83	3207
823.97	3093
824.11	3024
824.25	2967
824.389	3024
824.529	3104
824.669	3055
824.809	3192
824.949	3264
825.089	3211
825.228	3112
825.368	3013
825.508	2952
825.648	2937
825.787	2960
825.927	2986
826.067	2971
826.206	2929
826.346	3081
826.485	3043
826.625	3093
826.765	3291
826.904	3207
827.044	2979
827.183	2906
827.323	2883
827.462	3013
827.601	2895
827.741	2918
827.88	2967
828.02	2815
828.159	2990
828.298	2998
828.437	3058
828.577	3039
828.716	3211
828.855	3070
828.994	2918
829.134	2872
829.273	2963
829.412	2857
829.551	2857
829.69	2880
829.829	3001
829.968	3157
830.107	2986
830.246	3047
830.385	2899
830.524	2857
830.663	2785
830.802	2712
830.941	2670
831.08	2629
831.219	2731
831.357	2750
831.496	2929
831.635	2712
831.774	2651
831.913	2636
832.051	2564
832.19	2583
832.329	2689
832.467	2503
832.606	2476
832.744	2571
832.883	2594
833.022	2594
833.16	2663
833.299	2701
833.437	2693
833.576	2697
833.714	2739
833.852	2705
833.991	2735
834.129	2819
834.267	2811
834.406	2777
834.544	2849
834.682	2899
834.821	2872
834.959	3036
835.097	2883
835.235	3085
835.373	3017
835.511	3032
835.65	2960
835.788	2948
835.926	2800
836.064	2807
836.202	2842
836.34	3119
836.478	3184
836.615	3043
836.753	3081
836.891	3218
837.029	3157
837.167	3081
837.305	3058
837.443	3028
837.58	2944
837.718	3131
837.856	3058
837.993	3017
838.131	3112
838.269	3093
838.406	3055
838.544	3108
838.681	2952
838.819	2922
838.956	2788
839.094	2826
839.231	2906
839.369	3036
839.506	3359
839.643	3207
839.781	2986
839.918	2944
840.055	3020
840.193	3020
840.33	3062
840.467	3081
840.604	3119
840.742	3370
840.879	3043
841.016	2994
841.153	3100
841.29	3306
841.427	3256
841.564	3249
841.701	3306
841.838	3211
841.975	3119
842.112	3230
842.249	3058
842.385	3039
842.522	3237
842.659	3131
842.796	3085
842.933	3058
843.069	3070
843.206	3043
843.343	3169
843.479	3100
843.616	3108
843.752	2933
843.889	2891
844.025	3066
844.162	2861
844.298	3070
844.435	2929
844.571	2899
844.708	3017
844.844	3188
844.98	3249
845.117	3173
845.253	3039
845.389	3001
845.525	3066
845.661	3081
845.798	3020
845.934	3127
846.07	2998
846.206	3207
846.342	3329
846.478	3237
846.614	3062
846.75	3058
846.886	3058
847.022	3249
847.158	3116
847.294	3176
847.429	3230
847.565	3214
847.701	3469
847.837	3051
847.972	2986
848.108	3146
848.244	3104
848.379	2967
848.515	2948
848.65	2914
848.786	2960
848.921	3024
849.057	3074
849.192	3169
849.328	3036
849.463	3104
849.598	3074
849.734	3036
849.869	2956
850.004	2895
850.14	2948
850.275	2918
850.41	2834
850.545	2887
850.68	2918
850.815	2910
850.95	2979
851.085	3165
851.22	3085
851.355	2986
851.49	2979
851.625	2990
851.76	3020
851.895	2960
852.03	2895
852.165	2998
852.299	3127
852.434	3180
852.569	3119
852.703	3176
852.838	3237
852.973	3351
853.107	3317
853.242	3119
853.376	3127
853.511	2975
853.645	3009
853.78	3245
853.914	3108
854.048	3081
854.183	3043
854.317	3154
854.451	3249
854.585	3119
854.72	3097
854.854	3180
854.988	3047
855.122	3039
855.256	2982
855.39	3123
855.524	3233
855.658	3176
855.792	3180
855.926	3169
856.06	3218
856.194	3241
856.327	3146
856.461	3058
856.595	3097
856.729	3074
856.862	3199
856.996	3173
857.13	3211
857.263	3207
857.397	3275
857.53	3097
857.664	3211
857.797	3245
857.931	3260
858.064	3142
858.197	3192
858.331	3127
858.464	3058
858.597	2994
858.731	3093
858.864	3081
858.997	3089
859.13	3157
859.263	3150
859.396	3188
859.529	3116
859.662	3074
859.795	3070
859.928	3161
860.061	3253
860.194	3241
860.327	3150
860.46	3077
860.592	3260
860.725	3237
860.858	3268
860.99	3112
861.123	3093
861.256	3051
861.388	3131
861.521	3823
861.653	3043
861.786	3036
861.918	3028
862.05	3077
862.183	3081
862.315	3142
862.447	3192
862.58	3085
862.712	2975
862.844	2914
862.976	3043
863.108	3009
863.24	3302
863.372	2880
863.504	2929
863.636	2963
863.768	3001
863.9	2971
864.032	2922
864.164	2986
864.296	3001
864.428	3104
864.559	3131
864.691	3043
864.823	3055
864.954	3020
865.086	3032
865.217	3013
865.349	2986
865.48	2967
865.612	3020
865.743	3146
865.875	2960
866.006	2918
866.137	2982
866.269	2956
866.4	2956
866.531	2944
866.662	2902
866.793	2895
866.924	2876
867.055	2944
867.186	2906
867.317	2887
867.448	2834
867.579	2857
867.71	2838
867.841	2838
867.972	2910
868.103	2887
868.233	2834
868.364	2880
868.495	2922
868.625	3062
868.756	3146
868.886	2948
869.017	2998
869.147	3119
869.278	3108
869.408	3058
869.539	2998
869.669	3077
869.799	3043
869.929	3077
870.06	3108
870.19	3294
870.32	3260
870.45	3264
870.58	3363
870.71	3431
870.84	3473
870.97	3260
871.1	3264
871.23	3447
871.36	3458
871.489	3344
871.619	3401
871.749	3405
871.879	3405
872.008	3492
872.138	3351
872.267	3294
872.397	3165
872.526	3089
872.656	3043
872.785	3077
872.915	3226
873.044	3325
873.173	3249
873.303	3233
873.432	3245
873.561	3211
873.69	3150
873.819	3150
873.948	3146
874.077	3112
874.206	3009
874.335	3070
874.464	3226
874.593	3321
874.722	3218
874.851	3382
874.979	3321
875.108	3302
875.237	3173
875.365	3142
875.494	3161
875.623	3253
875.751	3097
875.88	3135
876.008	3211
876.136	3207
876.265	3359
876.393	3504
876.521	3370
876.65	3393
876.778	3294
876.906	3283
877.034	3207
877.162	3203
877.29	3199
877.418	3211
877.546	3207
877.674	3245
877.802	3207
877.93	3233
878.058	3150
878.185	3138
878.313	3203
878.441	3188
878.568	3093
878.696	3119
878.824	3256
878.951	3279
879.079	3454
879.206	3641
879.333	3431
879.461	3363
879.588	3306
879.715	3466
879.842	3576
879.97	3397
880.097	3161
880.224	3100
880.351	3180
880.478	3207
880.605	3180
880.732	3180
880.859	3458
880.986	3306
881.112	3298
881.239	3180
881.366	3051
881.493	3013
881.619	3005
881.746	3066
881.872	3089
881.999	3108
882.125	3104
882.252	3237
882.378	3321
882.505	3420
882.631	3268
882.757	3199
882.883	3237
883.01	3256
883.136	3165
883.262	3070
883.388	3108
883.514	3332
883.64	3351
883.766	3275
883.892	3188
884.018	3253
884.143	3386
884.269	3485
884.395	3214
884.52	3199
884.646	3173
884.772	3097
884.897	3085
885.023	3222
885.148	3348
885.274	3389
885.399	3363
885.524	3287
885.65	3260
885.775	3329
885.9	3253
886.025	3447
886.15	3370
886.275	3310
886.4	3230
886.525	3298
886.65	3302
886.775	3272
886.9	3492
887.025	3625
887.149	3416
887.274	3222
887.399	3199
887.523	3192
887.648	3176
887.773	3203
887.897	3359
888.021	3370
888.146	3264
888.27	3420
888.395	3515
888.519	3420
888.643	3378
888.767	3458
888.891	3378
889.015	3245
889.139	3321
889.263	3226
889.387	3378
889.511	3492
889.635	3420
889.759	3275
889.883	3310
890.006	3382
890.13	3485
890.254	3264
890.377	3336
890.501	3207
890.624	3195
890.748	3313
890.871	3207
890.995	3119
891.118	3074
891.241	3176
891.364	3203
891.488	3317
891.611	3173
891.734	3188
891.857	3287
891.98	3233
892.103	3325
892.226	3272
892.349	3195
892.471	3112
892.594	3222
892.717	3264
892.839	3287
892.962	3249
893.085	3355
893.207	3291
893.33	3127
893.452	3203
893.575	3313
893.697	3222
893.819	3481
893.941	3507
894.064	3439
894.186	3264
894.308	3275
894.43	3439
894.552	3504
894.674	3466
894.796	3275
894.918	3275
895.04	3302
895.161	3428
895.283	3420
895.405	3302
895.526	3355
895.648	3424
895.769	3439
895.891	3466
896.012	3466
896.134	3462
896.255	3397
896.376	3386
896.498	3359
896.619	3431
896.74	3355
896.861	3412
896.982	3644
897.103	3873
897.224	3591
897.345	3500
897.466	3428
897.587	3496
897.708	3618
897.828	3530
897.949	3424
898.07	3351
898.19	3416
898.311	3595
898.431	3458
898.552	3500
898.672	3622
898.792	3564
898.913	3526
899.033	3401
899.153	3321
899.273	3253
899.393	3260
899.513	3310
899.633	3310
899.753	3355
899.873	3279
899.993	3378
900.113	3302
900.232	3363
900.352	3355
900.472	3313
900.591	3169
900.711	3275
900.83	3218
900.95	3378
901.069	3424
901.189	3351
901.308	3199
901.427	3127
901.546	3211
901.665	3310
901.784	3355
901.904	3207
902.023	3154
902.141	3020
902.26	2986
902.379	3108
902.498	3112
902.617	3066
902.735	3169
902.854	3230
902.973	3146
903.091	3017
903.21	3051
903.328	3138
903.446	3097
903.565	3100
903.683	3184
903.801	3142
903.919	3249
904.038	3298
904.156	3214
904.274	3256
904.392	3253
904.51	3298
904.627	3351
904.745	3466
904.863	3504
904.981	3283
905.098	3161
905.216	3207
905.334	3272
905.451	3272
905.569	3302
905.686	3431
905.803	3420
905.921	3264
906.038	3450
906.155	3344
906.272	3287
906.389	3268
906.506	3214
906.623	3211
906.74	3230
906.857	3165
906.974	3291
907.091	3420
907.208	3549
907.324	3469
907.441	3393
907.557	3237
907.674	3275
907.79	3207
907.907	3279
908.023	3374
908.139	3329
908.256	3310
908.372	3344
908.488	3325
908.604	3268
908.72	3226
908.836	3279
908.952	3279
909.068	3313
909.184	3466
909.3	3348
909.415	3526
909.531	3500
909.647	3275
909.762	3260
909.878	3253
909.993	3317
910.108	3344
910.224	3313
910.339	3374
910.454	3374
910.57	3283
910.685	3241
910.8	3564
910.915	3526
911.03	3443
911.145	3275
911.259	3249
911.374	3310
911.489	3218
911.604	3241
911.718	3108
911.833	3161
911.947	3039
912.062	2998
912.176	3169
912.291	3135
912.405	3169
912.519	3435
912.633	3492
912.748	3302
912.862	3264
912.976	3161
913.09	3058
913.204	3123
913.318	3188
913.431	3317
913.545	3348
913.659	3374
913.772	3329
913.886	3218
914	3192
914.113	3378
914.226	3416
914.34	3340
914.453	3214
914.566	3420
914.68	3294
914.793	3306
914.906	3123
915.019	3119
915.132	3074
915.245	3150
915.358	3245
915.47	3249
915.583	3294
915.696	3302
915.809	3397
915.921	3412
916.034	3260
916.146	3272
916.259	3237
916.371	3374
916.483	3325
916.595	3283
916.708	3355
916.82	3378
916.932	3329
917.044	3325
917.156	3321
917.268	3245
917.38	3287
917.491	3313
917.603	3336
917.715	3428
917.826	3443
917.938	3382
918.049	3264
918.161	3389
918.272	3568
918.384	3553
918.495	3485
918.606	3325
918.717	3317
918.828	3405
918.939	3409
919.05	3310
919.161	3367
919.272	3180
919.383	3275
919.494	3511
919.604	3675
919.715	3469
919.826	3439
919.936	3416
920.047	3549
920.157	3515
920.267	3747
920.378	3610
920.488	3591
920.598	3766
920.708	3949
920.818	3850
920.928	3846
921.038	4021
921.148	3991
921.258	3701
921.368	3641
921.477	3576
921.587	3576
921.697	3439
921.806	3595
921.916	3530
922.025	3313
922.134	3374
922.244	3317
922.353	3450
922.462	3256
922.571	3214
922.68	3097
922.789	3070
922.898	3154
923.007	3100
923.116	3226
923.224	3180
923.333	3176
923.442	3112
923.55	3070
923.659	3127
923.767	3222
923.876	3108
923.984	3245
924.092	3104
924.201	3218
924.309	3264
924.417	3253
924.525	3203
924.633	3211
924.741	4177
924.849	3039
924.956	3264
925.064	3112
925.172	3085
925.279	3116
925.387	3188
925.494	3192
925.602	3382
925.709	3287
925.816	3207
925.924	3294
926.031	3393
926.138	3294
926.245	3336
926.352	3272
926.459	3397
926.566	3500
926.673	3302
926.779	3245
926.886	3249
926.993	3169
927.099	3116
927.206	3097
927.312	3123
927.419	3226
927.525	3218
927.631	3275
927.737	3154
927.843	3131
927.95	3036
928.056	3157
928.162	3176
928.267	3241
928.373	3850
928.479	3283
928.585	3066
928.69	3233
928.796	3268
928.901	3173
929.007	3047
929.112	3195
929.218	3157
929.323	3119
929.428	3116
929.533	3310
929.638	3131
929.743	3131
929.848	3283
929.953	3222
930.058	3154
930.163	3001
930.267	3055
930.372	3218
930.477	3039
930.581	3302
930.685	3146
930.79	3070
930.894	3123
930.998	3081
931.103	3253
931.207	2944
931.311	2967
931.415	2910
931.519	2735
931.623	2777
