Data from test_V78500241_825.txt Node
Date: Fri Mar 25 16:20:55 CST 2022
User: usil
Spectrometer: V785-0024
Trigger mode: 0
Integration Time (sec): 4.000000E-1
Scans to average: 1
Nonlinearity correction enabled: false
Boxcar width: 0
Storing dark spectrum: false
XAxis mode: Wavelengths
Number of Pixels in Spectrum: 1024
>>>>>Begin Spectral Data<<<<<
801.071	2899
801.214	2948
801.356	2910
801.499	2861
801.641	2887
801.783	2933
801.926	3077
802.068	3009
802.211	3024
802.353	3017
802.496	2960
802.638	3013
802.78	3024
802.923	3100
803.065	2990
803.208	2899
803.35	2948
803.492	2933
803.635	2925
803.777	2785
803.919	2834
804.061	3214
804.204	2979
804.346	2925
804.488	2834
804.63	3020
804.773	2868
804.915	2876
805.057	3047
805.199	2941
805.341	2986
805.483	3032
805.626	3013
805.768	2956
805.91	3097
806.052	3142
806.194	3036
806.336	3237
806.478	3036
806.62	2963
806.762	3009
806.904	3047
807.046	3195
807.188	3024
807.33	2899
807.472	2982
807.614	2937
807.756	2979
807.898	2922
808.04	2899
808.182	2960
808.324	2963
808.465	2902
808.607	2880
808.749	2834
808.891	2849
809.033	2918
809.174	2994
809.316	2899
809.458	2899
809.6	2804
809.741	2781
809.883	2781
810.025	2853
810.166	2883
810.308	2823
810.45	2895
810.591	2773
810.733	2766
810.875	2864
811.016	2792
811.158	2762
811.299	2781
811.441	2925
811.582	2910
811.724	2826
811.865	2819
812.007	2880
812.148	2876
812.29	2864
812.431	2895
812.573	2910
812.714	2975
812.855	3009
812.997	3055
813.138	3142
813.279	3005
813.421	2990
813.562	2990
813.703	2864
813.845	2929
813.986	2777
814.127	2716
814.268	2861
814.41	2864
814.551	2807
814.692	2880
814.833	2849
814.974	2910
815.115	2979
815.256	2853
815.397	2781
815.539	2906
815.68	2769
815.821	2792
815.962	2914
816.103	2922
816.244	2899
816.385	2864
816.526	3009
816.666	2960
816.807	2758
816.948	2895
817.089	2891
817.23	2880
817.371	2785
817.512	2800
817.653	2845
817.793	2823
817.934	2853
818.075	2967
818.216	3005
818.356	3024
818.497	2864
818.638	2746
818.778	2838
818.919	2796
819.06	2758
819.2	2895
819.341	2758
819.481	2815
819.622	2952
819.762	3131
819.903	3013
820.043	2948
820.184	2891
820.324	2941
820.465	3001
820.605	3024
820.746	3051
820.886	2971
821.026	3093
821.167	3135
821.307	3256
821.447	3317
821.588	3279
821.728	3203
821.868	3203
822.008	3070
822.149	3192
822.289	3180
822.429	3081
822.569	3085
822.709	3146
822.849	2998
822.99	3077
823.13	3180
823.27	3184
823.41	3093
823.55	3150
823.69	3138
823.83	3176
823.97	3112
824.11	2990
824.25	2979
824.389	3089
824.529	3112
824.669	3051
824.809	3226
824.949	3222
825.089	3188
825.228	3154
825.368	2982
825.508	2971
825.648	2952
825.787	3001
825.927	3039
826.067	2956
826.206	2971
826.346	3051
826.485	3039
826.625	3108
826.765	3279
826.904	3222
827.044	2967
827.183	2910
827.323	2864
827.462	2994
827.601	2914
827.741	2948
827.88	2956
828.02	2880
828.159	2998
828.298	3051
828.437	3135
828.577	3055
828.716	3249
828.855	3074
828.994	2895
829.134	2887
829.273	2952
829.412	2895
829.551	2849
829.69	2891
829.829	2979
829.968	3108
830.107	3039
830.246	3032
830.385	2899
830.524	2864
830.663	2811
830.802	2743
830.941	2606
831.08	2644
831.219	2800
831.357	2731
831.496	2982
831.635	2712
831.774	2590
831.913	2602
832.051	2537
832.19	2560
832.329	2689
832.467	2537
832.606	2503
832.744	2579
832.883	2545
833.022	2571
833.16	2659
833.299	2686
833.437	2693
833.576	2689
833.714	2754
833.852	2758
833.991	2769
834.129	2849
834.267	2819
834.406	2807
834.544	2883
834.682	2880
834.821	2830
834.959	3039
835.097	2876
835.235	3055
835.373	2986
835.511	3013
835.65	2979
835.788	2944
835.926	2819
836.064	2834
836.202	2864
836.34	3085
836.478	3131
836.615	3074
836.753	3116
836.891	3211
837.029	3146
837.167	3108
837.305	3081
837.443	3039
837.58	2998
837.718	3131
837.856	3043
837.993	3036
838.131	3123
838.269	3127
838.406	3074
838.544	3062
838.681	2933
838.819	2906
838.956	2804
839.094	2834
839.231	2914
839.369	2982
839.506	3329
839.643	3203
839.781	3032
839.918	2975
840.055	3058
840.193	3032
840.33	3055
840.467	3146
840.604	3127
840.742	3424
840.879	3085
841.016	3074
841.153	3100
841.29	3355
841.427	3306
841.564	3256
841.701	3306
841.838	3230
841.975	3195
842.112	3214
842.249	3085
842.385	3055
842.522	3237
842.659	3108
842.796	3066
842.933	3131
843.069	3051
843.206	3036
843.343	3176
843.479	3104
843.616	3112
843.752	2899
843.889	2876
844.025	3074
844.162	2857
844.298	3077
844.435	2952
844.571	2899
844.708	3085
844.844	3150
844.98	3256
845.117	3180
845.253	3051
845.389	3013
845.525	3127
845.661	3116
845.798	3020
845.934	3089
846.07	3058
846.206	3192
846.342	3351
846.478	3233
846.614	3081
846.75	3062
846.886	3024
847.022	3260
847.158	3123
847.294	3214
847.429	3188
847.565	3211
847.701	3485
847.837	3017
847.972	2975
848.108	3192
848.244	3142
848.379	2994
848.515	2937
848.65	2937
848.786	2960
848.921	2982
849.057	3127
849.192	3146
849.328	3055
849.463	3104
849.598	3066
849.734	3055
849.869	3009
850.004	2918
850.14	2979
850.275	2937
850.41	2830
850.545	2853
850.68	2925
850.815	2994
850.95	2956
851.085	3192
851.22	3089
851.355	3070
851.49	2963
851.625	2952
851.76	2998
851.895	2929
852.03	2895
852.165	3036
852.299	3116
852.434	3199
852.569	3131
852.703	3138
852.838	3226
852.973	3321
853.107	3325
853.242	3157
853.376	3108
853.511	3001
853.645	3062
853.78	3195
853.914	3150
854.048	3112
854.183	3119
854.317	3135
854.451	3245
854.585	3116
854.72	3104
854.854	3165
854.988	3055
855.122	3097
855.256	2975
855.39	3131
855.524	3241
855.658	3173
855.792	3112
855.926	3165
856.06	3253
856.194	3245
856.327	3165
856.461	3081
856.595	3104
856.729	3119
856.862	3211
856.996	3154
857.13	3180
857.263	3203
857.397	3260
857.53	3104
857.664	3176
857.797	3233
857.931	3249
858.064	3188
858.197	3211
858.331	3127
858.464	3131
858.597	2994
858.731	3077
858.864	3116
858.997	3077
859.13	3131
859.263	3154
859.396	3207
859.529	3070
859.662	3074
859.795	3066
859.928	3127
860.061	3256
860.194	3283
860.327	3131
860.46	3112
860.592	3241
860.725	3253
860.858	3237
860.99	3085
861.123	3047
861.256	3028
861.388	3157
861.521	3899
861.653	3047
861.786	2990
861.918	3005
862.05	3097
862.183	3070
862.315	3142
862.447	3184
862.58	3055
862.712	2933
862.844	2845
862.976	3039
863.108	3017
863.24	3287
863.372	2902
863.504	2982
863.636	2960
863.768	3028
863.9	2956
864.032	2872
864.164	2963
864.296	3017
864.428	3093
864.559	3093
864.691	3081
864.823	3062
864.954	3055
865.086	3017
865.217	3017
865.349	2929
865.48	2979
865.612	3001
865.743	3161
865.875	3013
866.006	2941
866.137	2975
866.269	2952
866.4	2918
866.531	2944
866.662	2891
866.793	2910
866.924	2902
867.055	2986
867.186	2948
867.317	2868
867.448	2880
867.579	2823
867.71	2823
867.841	2823
867.972	2891
868.103	2880
868.233	2887
868.364	2891
868.495	2906
868.625	3104
868.756	3165
868.886	2948
869.017	3032
869.147	3173
869.278	3127
869.408	3039
869.539	2982
869.669	3131
869.799	3077
869.929	3116
870.06	3116
870.19	3325
870.32	3279
870.45	3294
870.58	3359
870.71	3424
870.84	3458
870.97	3275
871.1	3218
871.23	3462
871.36	3507
871.489	3332
871.619	3424
871.749	3420
871.879	3424
872.008	3485
872.138	3351
872.267	3291
872.397	3161
872.526	3058
872.656	3028
872.785	3089
872.915	3211
873.044	3283
873.173	3237
873.303	3222
873.432	3241
873.561	3241
873.69	3131
873.819	3108
873.948	3150
874.077	3093
874.206	3104
874.335	3077
874.464	3226
874.593	3313
874.722	3268
874.851	3370
874.979	3317
875.108	3313
875.237	3173
875.365	3161
875.494	3150
875.623	3233
875.751	3074
875.88	3123
876.008	3207
876.136	3195
876.265	3317
876.393	3519
876.521	3428
876.65	3401
876.778	3344
876.906	3279
877.034	3188
877.162	3237
877.29	3157
877.418	3268
877.546	3203
877.674	3214
877.802	3237
877.93	3199
878.058	3169
878.185	3055
878.313	3214
878.441	3199
878.568	3097
878.696	3135
878.824	3230
878.951	3321
879.079	3424
879.206	3641
879.333	3428
879.461	3306
879.588	3355
879.715	3511
879.842	3587
879.97	3332
880.097	3157
880.224	3089
880.351	3184
880.478	3233
880.605	3203
880.732	3192
880.859	3504
880.986	3306
881.112	3321
881.239	3199
881.366	3097
881.493	3036
881.619	3039
881.746	3062
881.872	3070
881.999	3085
882.125	3146
882.252	3249
882.378	3287
882.505	3458
882.631	3268
882.757	3146
882.883	3226
883.01	3203
883.136	3161
883.262	3097
883.388	3104
883.514	3325
883.64	3382
883.766	3332
883.892	3173
884.018	3264
884.143	3439
884.269	3538
884.395	3180
884.52	3173
884.646	3192
884.772	3123
884.897	3119
885.023	3214
885.148	3287
885.274	3454
885.399	3351
885.524	3256
885.65	3241
885.775	3329
885.9	3306
886.025	3412
886.15	3359
886.275	3294
886.4	3264
886.525	3291
886.65	3264
886.775	3283
886.9	3534
887.025	3580
887.149	3405
887.274	3275
887.399	3180
887.523	3150
887.648	3184
887.773	3173
887.897	3336
888.021	3374
888.146	3268
888.27	3439
888.395	3530
888.519	3409
888.643	3439
888.767	3469
888.891	3325
889.015	3222
889.139	3275
889.263	3283
889.387	3412
889.511	3530
889.635	3500
889.759	3279
889.883	3298
890.006	3348
890.13	3492
890.254	3253
890.377	3329
890.501	3207
890.624	3165
890.748	3294
890.871	3203
890.995	3123
891.118	3074
891.241	3184
891.364	3211
891.488	3348
891.611	3176
891.734	3222
891.857	3313
891.98	3272
892.103	3306
892.226	3268
892.349	3222
892.471	3135
892.594	3211
892.717	3302
892.839	3237
892.962	3275
893.085	3332
893.207	3279
893.33	3127
893.452	3199
893.575	3340
893.697	3287
893.819	3431
893.941	3481
894.064	3450
894.186	3245
894.308	3237
894.43	3458
894.552	3504
894.674	3500
894.796	3291
894.918	3313
895.04	3279
895.161	3431
895.283	3382
895.405	3268
895.526	3348
895.648	3420
895.769	3500
895.891	3447
896.012	3469
896.134	3443
896.255	3405
896.376	3401
896.498	3340
896.619	3397
896.74	3344
896.861	3420
896.982	3686
897.103	3835
897.224	3599
897.345	3515
897.466	3431
897.587	3511
897.708	3587
897.828	3538
897.949	3443
898.07	3344
898.19	3416
898.311	3610
898.431	3420
898.552	3507
898.672	3584
898.792	3591
898.913	3530
899.033	3401
899.153	3283
899.273	3188
899.393	3275
899.513	3287
899.633	3317
899.753	3332
899.873	3325
899.993	3374
900.113	3313
900.232	3397
900.352	3321
900.472	3302
900.591	3207
900.711	3287
900.83	3241
900.95	3416
901.069	3477
901.189	3317
901.308	3165
901.427	3123
901.546	3211
901.665	3260
901.784	3325
901.904	3199
902.023	3154
902.141	3032
902.26	3005
902.379	3176
902.498	3058
902.617	3013
902.735	3211
902.854	3230
902.973	3161
903.091	2990
903.21	3081
903.328	3123
903.446	3077
903.565	3081
903.683	3184
903.801	3112
903.919	3264
904.038	3291
904.156	3165
904.274	3272
904.392	3233
904.51	3272
904.627	3329
904.745	3409
904.863	3511
904.981	3203
905.098	3188
905.216	3256
905.334	3287
905.451	3294
905.569	3306
905.686	3359
905.803	3458
905.921	3260
906.038	3397
906.155	3329
906.272	3275
906.389	3313
906.506	3256
906.623	3256
906.74	3253
906.857	3199
906.974	3233
907.091	3462
907.208	3534
907.324	3492
907.441	3374
907.557	3241
907.674	3226
907.79	3203
907.907	3272
908.023	3367
908.139	3370
908.256	3332
908.372	3412
908.488	3367
908.604	3253
908.72	3233
908.836	3317
908.952	3264
909.068	3329
909.184	3469
909.3	3397
909.415	3515
909.531	3458
909.647	3260
909.762	3287
909.878	3253
909.993	3313
910.108	3348
910.224	3340
910.339	3397
910.454	3378
910.57	3272
910.685	3226
910.8	3614
910.915	3523
911.03	3393
911.145	3253
911.259	3283
911.374	3321
911.489	3253
911.604	3253
911.718	3157
911.833	3135
911.947	3032
912.062	2982
912.176	3119
912.291	3199
912.405	3218
912.519	3412
912.633	3450
912.748	3386
912.862	3268
912.976	3180
913.09	3024
913.204	3104
913.318	3260
913.431	3302
913.545	3332
913.659	3420
913.772	3306
913.886	3211
914	3192
914.113	3409
914.226	3393
914.34	3351
914.453	3222
914.566	3435
914.68	3268
914.793	3313
914.906	3192
915.019	3180
915.132	3058
915.245	3184
915.358	3214
915.47	3230
915.583	3272
915.696	3332
915.809	3424
915.921	3443
916.034	3279
916.146	3203
916.259	3256
916.371	3412
916.483	3370
916.595	3226
916.708	3313
916.82	3340
916.932	3348
917.044	3317
917.156	3340
917.268	3275
917.38	3260
917.491	3264
917.603	3351
917.715	3469
917.826	3431
917.938	3389
918.049	3275
918.161	3439
918.272	3561
918.384	3584
918.495	3496
918.606	3336
918.717	3294
918.828	3397
918.939	3412
919.05	3287
919.161	3382
919.272	3154
919.383	3275
919.494	3469
919.604	3679
919.715	3500
919.826	3382
919.936	3435
920.047	3549
920.157	3507
920.267	3743
920.378	3622
920.488	3549
920.598	3812
920.708	3960
920.818	3857
920.928	3835
921.038	4048
921.148	4021
921.258	3717
921.368	3637
921.477	3576
921.587	3553
921.697	3462
921.806	3618
921.916	3485
922.025	3397
922.134	3351
922.244	3317
922.353	3401
922.462	3253
922.571	3241
922.68	3085
922.789	3058
922.898	3157
923.007	3081
923.116	3169
923.224	3195
923.333	3211
923.442	3085
923.55	3127
923.659	3154
923.767	3211
923.876	3112
923.984	3272
924.092	3108
924.201	3218
924.309	3245
924.417	3249
924.525	3188
924.633	3283
924.741	4048
924.849	3036
924.956	3241
925.064	3127
925.172	3043
925.279	3077
925.387	3222
925.494	3218
925.602	3321
925.709	3325
925.816	3184
925.924	3287
926.031	3374
926.138	3310
926.245	3382
926.352	3272
926.459	3416
926.566	3466
926.673	3317
926.779	3233
926.886	3245
926.993	3123
927.099	3135
927.206	3123
927.312	3169
927.419	3249
927.525	3226
927.631	3275
927.737	3142
927.843	3119
927.95	3024
928.056	3138
928.162	3135
928.267	3233
928.373	3755
928.479	3302
928.585	3036
928.69	3211
928.796	3283
928.901	3157
929.007	3062
929.112	3203
929.218	3180
929.323	3131
929.428	3154
929.533	3329
929.638	3131
929.743	3131
929.848	3264
929.953	3218
930.058	3169
930.163	3017
930.267	3047
930.372	3218
930.477	3043
930.581	3310
930.685	3180
930.79	3039
930.894	3116
930.998	3108
931.103	3272
931.207	2929
931.311	2925
931.415	2944
931.519	2758
931.623	2804
