Data from test_V78500241_847.txt Node
Date: Fri Mar 25 16:21:04 CST 2022
User: usil
Spectrometer: V785-0024
Trigger mode: 0
Integration Time (sec): 4.000000E-1
Scans to average: 1
Nonlinearity correction enabled: false
Boxcar width: 0
Storing dark spectrum: false
XAxis mode: Wavelengths
Number of Pixels in Spectrum: 1024
>>>>>Begin Spectral Data<<<<<
801.071	2918
801.214	2918
801.356	2914
801.499	2899
801.641	2845
801.783	2941
801.926	3013
802.068	2975
802.211	2956
802.353	2994
802.496	2944
802.638	2975
802.78	3001
802.923	3070
803.065	3013
803.208	2872
803.35	2941
803.492	2910
803.635	2914
803.777	2796
803.919	2819
804.061	3180
804.204	2933
804.346	2876
804.488	2830
804.63	2963
804.773	2845
804.915	2902
805.057	3070
805.199	2895
805.341	2982
805.483	3039
805.626	3009
805.768	2967
805.91	3058
806.052	3131
806.194	3009
806.336	3218
806.478	3020
806.62	2948
806.762	2994
806.904	3017
807.046	3131
807.188	2982
807.33	2914
807.472	3005
807.614	2910
807.756	2967
807.898	2944
808.04	2883
808.182	2948
808.324	2967
808.465	2899
808.607	2880
808.749	2826
808.891	2834
809.033	2971
809.174	2967
809.316	2918
809.458	2902
809.6	2746
809.741	2788
809.883	2788
810.025	2830
810.166	2830
810.308	2819
810.45	2876
810.591	2781
810.733	2766
810.875	2845
811.016	2800
811.158	2762
811.299	2815
811.441	2918
811.582	2922
811.724	2807
811.865	2804
812.007	2902
812.148	2895
812.29	2853
812.431	2876
812.573	2960
812.714	2933
812.855	3039
812.997	3043
813.138	3081
813.279	3009
813.421	2960
813.562	2967
813.703	2834
813.845	2887
813.986	2773
814.127	2720
814.268	2811
814.41	2834
814.551	2788
814.692	2883
814.833	2838
814.974	2857
815.115	2906
815.256	2849
815.397	2819
815.539	2868
815.68	2735
815.821	2777
815.962	2914
816.103	2929
816.244	2872
816.385	2811
816.526	2979
816.666	2925
816.807	2727
816.948	2887
817.089	2918
817.23	2830
817.371	2804
817.512	2796
817.653	2849
817.793	2823
817.934	2845
818.075	2929
818.216	3032
818.356	2990
818.497	2876
818.638	2792
818.778	2804
818.919	2807
819.06	2754
819.2	2868
819.341	2823
819.481	2788
819.622	2960
819.762	3104
819.903	3066
820.043	2937
820.184	2872
820.324	2880
820.465	3017
820.605	3036
820.746	3013
820.886	2952
821.026	3112
821.167	3135
821.307	3253
821.447	3325
821.588	3249
821.728	3169
821.868	3180
822.008	3058
822.149	3169
822.289	3222
822.429	3066
822.569	3089
822.709	3180
822.849	3017
822.99	3055
823.13	3146
823.27	3237
823.41	3112
823.55	3161
823.69	3142
823.83	3222
823.97	3093
824.11	3024
824.25	2979
824.389	3047
824.529	3081
824.669	3104
824.809	3180
824.949	3272
825.089	3188
825.228	3203
825.368	3028
825.508	2910
825.648	2963
825.787	3036
825.927	3017
826.067	3005
826.206	2929
826.346	3032
826.485	3066
826.625	3077
826.765	3233
826.904	3135
827.044	2986
827.183	2952
827.323	2849
827.462	3001
827.601	2902
827.741	2933
827.88	2998
828.02	2868
828.159	2982
828.298	3047
828.437	3089
828.577	3024
828.716	3237
828.855	3036
828.994	2922
829.134	2853
829.273	2891
829.412	2861
829.551	2815
829.69	2906
829.829	2986
829.968	3100
830.107	2998
830.246	3020
830.385	2925
830.524	2857
830.663	2807
830.802	2701
830.941	2640
831.08	2610
831.219	2762
831.357	2746
831.496	2952
831.635	2739
831.774	2625
831.913	2636
832.051	2533
832.19	2579
832.329	2670
832.467	2552
832.606	2492
832.744	2610
832.883	2571
833.022	2556
833.16	2651
833.299	2648
833.437	2686
833.576	2667
833.714	2697
833.852	2731
833.991	2750
834.129	2834
834.267	2815
834.406	2807
834.544	2868
834.682	2880
834.821	2872
834.959	3039
835.097	2929
835.235	3013
835.373	3017
835.511	2986
835.65	2963
835.788	2975
835.926	2781
836.064	2834
836.202	2842
836.34	3062
836.478	3127
836.615	3051
836.753	3138
836.891	3199
837.029	3135
837.167	3093
837.305	3093
837.443	3039
837.58	2937
837.718	3100
837.856	3081
837.993	3013
838.131	3097
838.269	3116
838.406	3127
838.544	3062
838.681	2937
838.819	2887
838.956	2815
839.094	2804
839.231	2922
839.369	2994
839.506	3340
839.643	3253
839.781	3024
839.918	2944
840.055	3043
840.193	3043
840.33	3055
840.467	3085
840.604	3173
840.742	3386
840.879	3066
841.016	3036
841.153	3097
841.29	3344
841.427	3310
841.564	3298
841.701	3275
841.838	3180
841.975	3169
842.112	3188
842.249	3051
842.385	3081
842.522	3294
842.659	3051
842.796	3047
842.933	3077
843.069	3051
843.206	3020
843.343	3161
843.479	3089
843.616	3112
843.752	2880
843.889	2849
844.025	3104
844.162	2842
844.298	3032
844.435	2960
844.571	2876
844.708	3039
844.844	3192
844.98	3279
845.117	3192
845.253	3043
845.389	3017
845.525	3097
845.661	3089
845.798	2986
845.934	3112
846.07	3070
846.206	3218
846.342	3329
846.478	3256
846.614	3074
846.75	3058
846.886	2994
847.022	3253
847.158	3108
847.294	3188
847.429	3253
847.565	3214
847.701	3485
847.837	3036
847.972	3001
848.108	3146
848.244	3108
848.379	2979
848.515	2967
848.65	2906
848.786	2960
848.921	3028
849.057	3077
849.192	3119
849.328	3070
849.463	3100
849.598	3062
849.734	3043
849.869	2982
850.004	2922
850.14	2986
850.275	2906
850.41	2838
850.545	2887
850.68	2937
850.815	2948
850.95	2994
851.085	3165
851.22	3112
851.355	3024
851.49	2948
851.625	2982
851.76	3001
851.895	2963
852.03	2899
852.165	2990
852.299	3131
852.434	3157
852.569	3169
852.703	3165
852.838	3218
852.973	3302
853.107	3294
853.242	3131
853.376	3062
853.511	2956
853.645	3043
853.78	3226
853.914	3097
854.048	3116
854.183	3062
854.317	3119
854.451	3283
854.585	3119
854.72	3100
854.854	3188
854.988	3043
855.122	3097
855.256	2990
855.39	3116
855.524	3214
855.658	3192
855.792	3123
855.926	3192
856.06	3203
856.194	3279
856.327	3142
856.461	3074
856.595	3085
856.729	3112
856.862	3199
856.996	3112
857.13	3188
857.263	3272
857.397	3279
857.53	3074
857.664	3188
857.797	3245
857.931	3268
858.064	3173
858.197	3199
858.331	3127
858.464	3074
858.597	2998
858.731	3097
858.864	3131
858.997	3081
859.13	3192
859.263	3150
859.396	3184
859.529	3119
859.662	3100
859.795	3058
859.928	3150
860.061	3256
860.194	3283
860.327	3131
860.46	3097
860.592	3218
860.725	3226
860.858	3226
860.99	3097
861.123	3020
861.256	3020
861.388	3119
861.521	3873
861.653	3009
861.786	2971
861.918	3005
862.05	3062
862.183	3085
862.315	3131
862.447	3214
862.58	3070
862.712	2963
862.844	2872
862.976	3005
863.108	3005
863.24	3317
863.372	2899
863.504	2944
863.636	2956
863.768	3058
863.9	2967
864.032	2868
864.164	2910
864.296	3005
864.428	3074
864.559	3093
864.691	3074
864.823	3093
864.954	3013
865.086	3028
865.217	2967
865.349	2948
865.48	2960
865.612	3047
865.743	3127
865.875	2967
866.006	2971
866.137	2967
866.269	2925
866.4	2944
866.531	2941
866.662	2895
866.793	2902
866.924	2922
867.055	2948
867.186	2899
867.317	2902
867.448	2845
867.579	2804
867.71	2857
867.841	2815
867.972	2861
868.103	2899
868.233	2887
868.364	2861
868.495	2899
868.625	3062
868.756	3176
868.886	2941
869.017	3051
869.147	3203
869.278	3135
869.408	3013
869.539	3028
869.669	3043
869.799	3013
869.929	3112
870.06	3100
870.19	3298
870.32	3329
870.45	3287
870.58	3351
870.71	3450
870.84	3443
870.97	3336
871.1	3226
871.23	3477
871.36	3447
871.489	3378
871.619	3370
871.749	3435
871.879	3370
872.008	3469
872.138	3355
872.267	3260
872.397	3131
872.526	3093
872.656	2998
872.785	3093
872.915	3245
873.044	3306
873.173	3211
873.303	3249
873.432	3230
873.561	3268
873.69	3131
873.819	3127
873.948	3192
874.077	3097
874.206	3028
874.335	3108
874.464	3214
874.593	3313
874.722	3214
874.851	3401
874.979	3378
875.108	3279
875.237	3180
875.365	3154
875.494	3142
875.623	3256
875.751	3074
875.88	3119
876.008	3184
876.136	3203
876.265	3409
876.393	3481
876.521	3393
876.65	3378
876.778	3321
876.906	3253
877.034	3154
877.162	3226
877.29	3169
877.418	3222
877.546	3230
877.674	3226
877.802	3207
877.93	3188
878.058	3150
878.185	3093
878.313	3173
878.441	3199
878.568	3066
878.696	3207
878.824	3249
878.951	3294
879.079	3412
879.206	3595
879.333	3454
879.461	3298
879.588	3302
879.715	3492
879.842	3564
879.97	3363
880.097	3169
880.224	3119
880.351	3173
880.478	3249
880.605	3203
880.732	3199
880.859	3488
880.986	3313
881.112	3249
881.239	3211
881.366	3085
881.493	3017
881.619	2979
881.746	3074
881.872	3100
881.999	3116
882.125	3142
882.252	3241
882.378	3298
882.505	3416
882.631	3256
882.757	3150
882.883	3230
883.01	3218
883.136	3150
883.262	3116
883.388	3108
883.514	3294
883.64	3374
883.766	3279
883.892	3184
884.018	3264
884.143	3397
884.269	3542
884.395	3173
884.52	3154
884.646	3180
884.772	3100
884.897	3074
885.023	3226
885.148	3332
885.274	3397
885.399	3367
885.524	3256
885.65	3279
885.775	3336
885.9	3279
886.025	3409
886.15	3386
886.275	3332
886.4	3188
886.525	3268
886.65	3230
886.775	3256
886.9	3466
887.025	3667
887.149	3386
887.274	3241
887.399	3161
887.523	3203
887.648	3146
887.773	3176
887.897	3355
888.021	3416
888.146	3298
888.27	3405
888.395	3523
888.519	3431
888.643	3435
888.767	3488
888.891	3310
889.015	3253
889.139	3268
889.263	3268
889.387	3439
889.511	3496
889.635	3431
889.759	3268
889.883	3317
890.006	3363
890.13	3496
890.254	3245
890.377	3359
890.501	3150
890.624	3180
890.748	3294
890.871	3165
890.995	3123
891.118	3093
891.241	3188
891.364	3207
891.488	3313
891.611	3195
891.734	3241
891.857	3256
891.98	3226
892.103	3306
892.226	3268
892.349	3211
892.471	3097
892.594	3268
892.717	3298
892.839	3268
892.962	3302
893.085	3363
893.207	3275
893.33	3138
893.452	3211
893.575	3321
893.697	3214
893.819	3443
893.941	3511
894.064	3462
894.186	3264
894.308	3294
894.43	3462
894.552	3534
894.674	3424
894.796	3283
894.918	3279
895.04	3310
895.161	3443
895.283	3355
895.405	3302
895.526	3363
895.648	3416
895.769	3412
895.891	3435
896.012	3439
896.134	3477
896.255	3443
896.376	3355
896.498	3344
896.619	3409
896.74	3351
896.861	3397
896.982	3648
897.103	3876
897.224	3545
897.345	3485
897.466	3424
897.587	3488
897.708	3652
897.828	3534
897.949	3393
898.07	3336
898.19	3424
898.311	3576
898.431	3431
898.552	3523
898.672	3576
898.792	3580
898.913	3515
899.033	3416
899.153	3329
899.273	3192
899.393	3306
899.513	3310
899.633	3313
899.753	3382
899.873	3298
899.993	3378
900.113	3325
900.232	3420
900.352	3325
900.472	3264
900.591	3199
900.711	3256
900.83	3195
900.95	3397
901.069	3454
901.189	3340
901.308	3192
901.427	3150
901.546	3214
901.665	3294
901.784	3302
901.904	3195
902.023	3173
902.141	2994
902.26	3017
902.379	3119
902.498	3058
902.617	3058
902.735	3188
902.854	3195
902.973	3230
903.091	3024
903.21	3085
903.328	3142
903.446	3104
903.565	3100
903.683	3211
903.801	3112
903.919	3173
904.038	3275
904.156	3157
904.274	3260
904.392	3199
904.51	3260
904.627	3313
904.745	3428
904.863	3553
904.981	3253
905.098	3180
905.216	3233
905.334	3272
905.451	3291
905.569	3332
905.686	3389
905.803	3447
905.921	3287
906.038	3393
906.155	3340
906.272	3241
906.389	3336
906.506	3245
906.623	3294
906.74	3294
906.857	3184
906.974	3275
907.091	3412
907.208	3553
907.324	3519
907.441	3389
907.557	3222
907.674	3264
907.79	3211
907.907	3287
908.023	3351
908.139	3336
908.256	3302
908.372	3405
908.488	3344
908.604	3241
908.72	3207
908.836	3264
908.952	3245
909.068	3329
909.184	3485
909.3	3397
909.415	3515
909.531	3504
909.647	3283
909.762	3272
909.878	3226
909.993	3348
910.108	3336
910.224	3355
910.339	3378
910.454	3310
910.57	3313
910.685	3230
910.8	3591
910.915	3526
911.03	3431
911.145	3279
911.259	3287
911.374	3321
911.489	3253
911.604	3233
911.718	3138
911.833	3123
911.947	3017
912.062	2967
912.176	3154
912.291	3207
912.405	3214
912.519	3401
912.633	3469
912.748	3336
912.862	3249
912.976	3192
913.09	3089
913.204	3116
913.318	3207
913.431	3351
913.545	3329
913.659	3397
913.772	3317
913.886	3195
914	3203
914.113	3351
914.226	3409
914.34	3386
914.453	3211
914.566	3420
914.68	3294
914.793	3336
914.906	3127
915.019	3104
915.132	3062
915.245	3161
915.358	3180
915.47	3218
915.583	3272
915.696	3256
915.809	3409
915.921	3386
916.034	3268
916.146	3264
916.259	3214
916.371	3370
916.483	3355
916.595	3287
916.708	3298
916.82	3306
916.932	3336
917.044	3348
917.156	3302
917.268	3230
917.38	3321
917.491	3321
917.603	3397
917.715	3428
917.826	3462
917.938	3393
918.049	3279
918.161	3431
918.272	3534
918.384	3587
918.495	3473
918.606	3325
918.717	3287
918.828	3393
918.939	3382
919.05	3294
919.161	3374
919.272	3157
919.383	3287
919.494	3564
919.604	3686
919.715	3485
919.826	3363
919.936	3458
920.047	3606
920.157	3500
920.267	3766
920.378	3580
920.488	3564
920.598	3766
920.708	3964
920.818	3831
920.928	3865
921.038	4017
921.148	3934
921.258	3740
921.368	3652
921.477	3618
921.587	3526
921.697	3431
921.806	3614
921.916	3530
922.025	3359
922.134	3359
922.244	3313
922.353	3374
922.462	3260
922.571	3256
922.68	3108
922.789	3081
922.898	3161
923.007	3089
923.116	3180
923.224	3173
923.333	3192
923.442	3108
923.55	3089
923.659	3138
923.767	3203
923.876	3116
923.984	3218
924.092	3108
924.201	3184
924.309	3222
924.417	3230
924.525	3199
924.633	3233
924.741	4025
924.849	3077
924.956	3264
925.064	3112
925.172	3017
925.279	3116
925.387	3192
925.494	3218
925.602	3325
925.709	3344
925.816	3157
925.924	3253
926.031	3397
926.138	3264
926.245	3382
926.352	3214
926.459	3409
926.566	3469
926.673	3306
926.779	3268
926.886	3272
926.993	3173
927.099	3135
927.206	3146
927.312	3108
927.419	3214
927.525	3211
927.631	3294
927.737	3146
927.843	3123
927.95	3017
928.056	3138
928.162	3138
928.267	3222
928.373	3774
928.479	3340
928.585	3055
928.69	3237
928.796	3294
928.901	3173
929.007	3077
929.112	3211
929.218	3169
929.323	3131
929.428	3146
929.533	3283
929.638	3089
929.743	3154
929.848	3249
929.953	3218
930.058	3112
930.163	2979
930.267	3024
930.372	3226
930.477	3036
930.581	3291
930.685	3135
930.79	3051
930.894	3104
930.998	3116
931.103	3260
931.207	2944
931.311	2941
931.415	2891
931.519	2773
931.623	2845
