Data from test_V78500241_1815.txt Node
Date: Fri Mar 25 16:27:46 CST 2022
User: usil
Spectrometer: V785-0024
Trigger mode: 0
Integration Time (sec): 4.000000E-1
Scans to average: 1
Nonlinearity correction enabled: false
Boxcar width: 0
Storing dark spectrum: false
XAxis mode: Wavelengths
Number of Pixels in Spectrum: 1024
>>>>>Begin Spectral Data<<<<<
801.071	2918
801.214	2948
801.356	2906
801.499	2895
801.641	2868
801.783	2922
801.926	3070
802.068	3020
802.211	2986
802.353	3013
802.496	3001
802.638	2990
802.78	3074
802.923	3089
803.065	2994
803.208	2872
803.35	2929
803.492	2982
803.635	2952
803.777	2781
803.919	2849
804.061	3237
804.204	2948
804.346	2967
804.488	2811
804.63	2998
804.773	2872
804.915	2914
805.057	3085
805.199	2948
805.341	2956
805.483	3051
805.626	3005
805.768	2994
805.91	3085
806.052	3131
806.194	3005
806.336	3169
806.478	3009
806.62	2967
806.762	2933
806.904	3028
807.046	3195
807.188	3009
807.33	2925
807.472	2979
807.614	2895
807.756	2941
807.898	2918
808.04	2883
808.182	2975
808.324	2937
808.465	2906
808.607	2899
808.749	2819
808.891	2834
809.033	2979
809.174	2960
809.316	2868
809.458	2868
809.6	2758
809.741	2781
809.883	2792
810.025	2883
810.166	2845
810.308	2842
810.45	2853
810.591	2785
810.733	2769
810.875	2769
811.016	2792
811.158	2769
811.299	2819
811.441	2922
811.582	2895
811.724	2845
811.865	2800
812.007	2925
812.148	2872
812.29	2891
812.431	2895
812.573	2971
812.714	2963
812.855	3017
812.997	3043
813.138	3112
813.279	2998
813.421	2975
813.562	2952
813.703	2861
813.845	2929
813.986	2743
814.127	2724
814.268	2773
814.41	2819
814.551	2785
814.692	2876
814.833	2823
814.974	2876
815.115	2960
815.256	2849
815.397	2819
815.539	2895
815.68	2762
815.821	2815
815.962	2922
816.103	2948
816.244	2853
816.385	2883
816.526	2994
816.666	2918
816.807	2739
816.948	2906
817.089	2910
817.23	2849
817.371	2785
817.512	2842
817.653	2826
817.793	2819
817.934	2857
818.075	2960
818.216	2990
818.356	3005
818.497	2864
818.638	2804
818.778	2807
818.919	2773
819.06	2796
819.2	2891
819.341	2811
819.481	2807
819.622	2914
819.762	3081
819.903	3028
820.043	2891
820.184	2925
820.324	2910
820.465	3047
820.605	3001
820.746	3024
820.886	2922
821.026	3074
821.167	3173
821.307	3237
821.447	3264
821.588	3218
821.728	3199
821.868	3207
822.008	3108
822.149	3173
822.289	3245
822.429	3051
822.569	3093
822.709	3199
822.849	3062
822.99	3058
823.13	3176
823.27	3241
823.41	3157
823.55	3184
823.69	3180
823.83	3218
823.97	3138
824.11	3028
824.25	3013
824.389	3074
824.529	3100
824.669	3104
824.809	3245
824.949	3310
825.089	3260
825.228	3214
825.368	3028
825.508	3013
825.648	2994
825.787	3036
825.927	3093
826.067	3009
826.206	2994
826.346	3089
826.485	3097
826.625	3173
826.765	3256
826.904	3283
827.044	3077
827.183	2971
827.323	2891
827.462	3047
827.601	2933
827.741	2994
827.88	3020
828.02	2895
828.159	2986
828.298	3093
828.437	3184
828.577	3074
828.716	3249
828.855	3131
828.994	2963
829.134	2929
829.273	2952
829.412	2910
829.551	2902
829.69	2941
829.829	3013
829.968	3173
830.107	3047
830.246	3039
830.385	2952
830.524	2902
830.663	2845
830.802	2781
830.941	2712
831.08	2705
831.219	2800
831.357	2754
831.496	2963
831.635	2762
831.774	2705
831.913	2697
832.051	2606
832.19	2625
832.329	2674
832.467	2564
832.606	2552
832.744	2621
832.883	2625
833.022	2625
833.16	2674
833.299	2689
833.437	2727
833.576	2769
833.714	2746
833.852	2727
833.991	2781
834.129	2864
834.267	2849
834.406	2796
834.544	2902
834.682	2891
834.821	2895
834.959	3085
835.097	2910
835.235	3081
835.373	3036
835.511	3055
835.65	3013
835.788	2986
835.926	2876
836.064	2845
836.202	2910
836.34	3123
836.478	3176
836.615	3089
836.753	3142
836.891	3237
837.029	3157
837.167	3131
837.305	3093
837.443	3047
837.58	2982
837.718	3150
837.856	3093
837.993	3066
838.131	3154
838.269	3135
838.406	3127
838.544	3161
838.681	2994
838.819	2948
838.956	2815
839.094	2849
839.231	2933
839.369	3055
839.506	3401
839.643	3226
839.781	3005
839.918	3005
840.055	3100
840.193	3028
840.33	3097
840.467	3112
840.604	3157
840.742	3409
840.879	3093
841.016	3039
841.153	3135
841.29	3340
841.427	3306
841.564	3306
841.701	3351
841.838	3226
841.975	3188
842.112	3226
842.249	3089
842.385	3066
842.522	3283
842.659	3161
842.796	3093
842.933	3127
843.069	3055
843.206	3089
843.343	3218
843.479	3154
843.616	3180
843.752	2918
843.889	2891
844.025	3142
844.162	2902
844.298	3104
844.435	2956
844.571	2944
844.708	3112
844.844	3184
844.98	3199
845.117	3184
845.253	3074
845.389	3039
845.525	3138
845.661	3100
845.798	3043
845.934	3176
846.07	3127
846.206	3260
846.342	3329
846.478	3264
846.614	3112
846.75	3074
846.886	3043
847.022	3294
847.158	3161
847.294	3233
847.429	3272
847.565	3218
847.701	3519
847.837	3032
847.972	3036
848.108	3203
848.244	3165
848.379	3009
848.515	2952
848.65	2967
848.786	3001
848.921	3043
849.057	3146
849.192	3173
849.328	3097
849.463	3154
849.598	3093
849.734	3039
849.869	2971
850.004	2986
850.14	3001
850.275	2937
850.41	2872
850.545	2933
850.68	2990
850.815	2990
850.95	3024
851.085	3233
851.22	3108
851.355	3032
851.49	2967
851.625	3032
851.76	3062
851.895	2963
852.03	2944
852.165	3028
852.299	3100
852.434	3192
852.569	3176
852.703	3169
852.838	3283
852.973	3363
853.107	3359
853.242	3154
853.376	3104
853.511	2971
853.645	3043
853.78	3264
853.914	3108
854.048	3112
854.183	3097
854.317	3165
854.451	3313
854.585	3138
854.72	3104
854.854	3237
854.988	3058
855.122	3081
855.256	3009
855.39	3150
855.524	3249
855.658	3218
855.792	3195
855.926	3211
856.06	3203
856.194	3306
856.327	3119
856.461	3112
856.595	3100
856.729	3104
856.862	3249
856.996	3150
857.13	3249
857.263	3245
857.397	3287
857.53	3100
857.664	3188
857.797	3226
857.931	3298
858.064	3165
858.197	3249
858.331	3176
858.464	3131
858.597	3055
858.731	3112
858.864	3112
858.997	3085
859.13	3165
859.263	3222
859.396	3226
859.529	3089
859.662	3131
859.795	3039
859.928	3169
860.061	3264
860.194	3256
860.327	3142
860.46	3123
860.592	3260
860.725	3306
860.858	3272
860.99	3089
861.123	3089
861.256	3100
861.388	3184
861.521	3854
861.653	3036
861.786	3009
861.918	3032
862.05	3112
862.183	3123
862.315	3161
862.447	3211
862.58	3116
862.712	2956
862.844	2899
862.976	3066
863.108	3055
863.24	3401
863.372	2872
863.504	2986
863.636	2971
863.768	3066
863.9	3017
864.032	2952
864.164	2944
864.296	3051
864.428	3100
864.559	3131
864.691	3104
864.823	3085
864.954	3047
865.086	3055
865.217	3036
865.349	2975
865.48	2990
865.612	3024
865.743	3203
865.875	3013
866.006	2952
866.137	3020
866.269	2944
866.4	2918
866.531	2902
866.662	2918
866.793	2891
866.924	2929
867.055	2998
867.186	2944
867.317	2929
867.448	2864
867.579	2853
867.71	2864
867.841	2853
867.972	2899
868.103	2922
868.233	2883
868.364	2910
868.495	2956
868.625	3108
868.756	3169
868.886	2979
869.017	3074
869.147	3146
869.278	3169
869.408	3062
869.539	3036
869.669	3119
869.799	3058
869.929	3157
870.06	3108
870.19	3340
870.32	3340
870.45	3325
870.58	3359
870.71	3462
870.84	3431
870.97	3291
871.1	3253
871.23	3504
871.36	3481
871.489	3367
871.619	3409
871.749	3435
871.879	3454
872.008	3488
872.138	3348
872.267	3283
872.397	3184
872.526	3108
872.656	3020
872.785	3070
872.915	3256
873.044	3298
873.173	3230
873.303	3241
873.432	3272
873.561	3241
873.69	3176
873.819	3135
873.948	3253
874.077	3112
874.206	3074
874.335	3097
874.464	3241
874.593	3378
874.722	3249
874.851	3405
874.979	3386
875.108	3332
875.237	3230
875.365	3176
875.494	3176
875.623	3237
875.751	3116
875.88	3138
876.008	3211
876.136	3272
876.265	3382
876.393	3538
876.521	3435
876.65	3405
876.778	3359
876.906	3260
877.034	3264
877.162	3260
877.29	3169
877.418	3275
877.546	3249
877.674	3279
877.802	3249
877.93	3260
878.058	3207
878.185	3123
878.313	3184
878.441	3226
878.568	3081
878.696	3161
878.824	3230
878.951	3291
879.079	3439
879.206	3637
879.333	3435
879.461	3351
879.588	3367
879.715	3526
879.842	3561
879.97	3378
880.097	3226
880.224	3154
880.351	3195
880.478	3264
880.605	3214
880.732	3222
880.859	3519
880.986	3306
881.112	3317
881.239	3192
881.366	3150
881.493	3055
881.619	3051
881.746	3085
881.872	3074
881.999	3108
882.125	3150
882.252	3279
882.378	3344
882.505	3405
882.631	3302
882.757	3127
882.883	3241
883.01	3245
883.136	3173
883.262	3123
883.388	3119
883.514	3298
883.64	3424
883.766	3329
883.892	3192
884.018	3272
884.143	3367
884.269	3523
884.395	3195
884.52	3226
884.646	3226
884.772	3180
884.897	3108
885.023	3237
885.148	3367
885.274	3386
885.399	3374
885.524	3283
885.65	3306
885.775	3340
885.9	3245
886.025	3428
886.15	3389
886.275	3310
886.4	3233
886.525	3310
886.65	3294
886.775	3287
886.9	3523
887.025	3637
887.149	3409
887.274	3275
887.399	3184
887.523	3199
887.648	3249
887.773	3237
887.897	3397
888.021	3409
888.146	3332
888.27	3412
888.395	3538
888.519	3420
888.643	3473
888.767	3488
888.891	3325
889.015	3279
889.139	3298
889.263	3241
889.387	3420
889.511	3526
889.635	3469
889.759	3313
889.883	3283
890.006	3428
890.13	3500
890.254	3317
890.377	3336
890.501	3226
890.624	3199
890.748	3298
890.871	3199
890.995	3108
891.118	3039
891.241	3195
891.364	3237
891.488	3332
891.611	3188
891.734	3230
891.857	3283
891.98	3245
892.103	3389
892.226	3256
892.349	3230
892.471	3085
892.594	3260
892.717	3306
892.839	3287
892.962	3275
893.085	3359
893.207	3283
893.33	3207
893.452	3214
893.575	3370
893.697	3253
893.819	3504
893.941	3481
894.064	3469
894.186	3275
894.308	3283
894.43	3458
894.552	3542
894.674	3481
894.796	3283
894.918	3348
895.04	3294
895.161	3439
895.283	3374
895.405	3294
895.526	3367
895.648	3386
895.769	3458
895.891	3450
896.012	3466
896.134	3496
896.255	3386
896.376	3382
896.498	3393
896.619	3492
896.74	3416
896.861	3378
896.982	3717
897.103	3831
897.224	3580
897.345	3488
897.466	3447
897.587	3500
897.708	3629
897.828	3568
897.949	3431
898.07	3329
898.19	3416
898.311	3603
898.431	3492
898.552	3488
898.672	3603
898.792	3625
898.913	3519
899.033	3393
899.153	3310
899.273	3226
899.393	3306
899.513	3313
899.633	3321
899.753	3336
899.873	3283
899.993	3409
900.113	3374
900.232	3401
900.352	3367
900.472	3287
900.591	3233
900.711	3272
900.83	3241
900.95	3416
901.069	3507
901.189	3344
901.308	3161
901.427	3157
901.546	3180
901.665	3298
901.784	3348
901.904	3207
902.023	3116
902.141	3039
902.26	3020
902.379	3112
902.498	3093
902.617	3089
902.735	3192
902.854	3245
902.973	3218
903.091	3047
903.21	3020
903.328	3165
903.446	3127
903.565	3066
903.683	3192
903.801	3135
903.919	3199
904.038	3279
904.156	3150
904.274	3321
904.392	3279
904.51	3275
904.627	3340
904.745	3447
904.863	3473
904.981	3249
905.098	3150
905.216	3207
905.334	3329
905.451	3279
905.569	3302
905.686	3386
905.803	3454
905.921	3287
906.038	3420
906.155	3374
906.272	3291
906.389	3344
906.506	3249
906.623	3291
906.74	3268
906.857	3207
906.974	3291
907.091	3458
907.208	3572
907.324	3488
907.441	3405
907.557	3253
907.674	3218
907.79	3214
907.907	3253
908.023	3424
908.139	3389
908.256	3348
908.372	3405
908.488	3359
908.604	3199
908.72	3245
908.836	3310
908.952	3313
909.068	3386
909.184	3523
909.3	3420
909.415	3523
909.531	3485
909.647	3283
909.762	3321
909.878	3294
909.993	3374
910.108	3351
910.224	3336
910.339	3412
910.454	3351
910.57	3310
910.685	3218
910.8	3610
910.915	3557
911.03	3428
911.145	3302
911.259	3287
911.374	3317
911.489	3272
911.604	3218
911.718	3127
911.833	3169
911.947	3036
912.062	3009
912.176	3138
912.291	3199
912.405	3192
912.519	3447
912.633	3473
912.748	3355
912.862	3264
912.976	3188
913.09	3043
913.204	3157
913.318	3264
913.431	3321
913.545	3363
913.659	3428
913.772	3355
913.886	3218
914	3222
914.113	3351
914.226	3454
914.34	3420
914.453	3207
914.566	3401
914.68	3298
914.793	3355
914.906	3180
915.019	3135
915.132	3066
915.245	3199
915.358	3230
915.47	3249
915.583	3283
915.696	3294
915.809	3420
915.921	3416
916.034	3253
916.146	3249
916.259	3272
916.371	3401
916.483	3355
916.595	3256
916.708	3325
916.82	3325
916.932	3359
917.044	3363
917.156	3306
917.268	3218
917.38	3310
917.491	3256
917.603	3348
917.715	3405
917.826	3488
917.938	3397
918.049	3291
918.161	3424
918.272	3587
918.384	3576
918.495	3469
918.606	3329
918.717	3237
918.828	3382
918.939	3386
919.05	3302
919.161	3325
919.272	3165
919.383	3287
919.494	3492
919.604	3648
919.715	3507
919.826	3397
919.936	3454
920.047	3591
920.157	3572
920.267	3743
920.378	3595
920.488	3553
920.598	3774
920.708	3918
920.818	3823
920.928	3823
921.038	4048
921.148	3972
921.258	3698
921.368	3587
921.477	3595
921.587	3545
921.697	3435
921.806	3629
921.916	3545
922.025	3374
922.134	3378
922.244	3310
922.353	3428
922.462	3294
922.571	3249
922.68	3104
922.789	3066
922.898	3135
923.007	3104
923.116	3226
923.224	3173
923.333	3214
923.442	3085
923.55	3100
923.659	3150
923.767	3203
923.876	3119
923.984	3203
924.092	3104
924.201	3214
924.309	3237
924.417	3291
924.525	3203
924.633	3253
924.741	4086
924.849	3070
924.956	3272
925.064	3081
925.172	3017
925.279	3127
925.387	3195
925.494	3188
925.602	3351
925.709	3363
925.816	3173
925.924	3264
926.031	3351
926.138	3329
926.245	3348
926.352	3272
926.459	3401
926.566	3450
926.673	3344
926.779	3283
926.886	3256
926.993	3165
927.099	3131
927.206	3123
927.312	3070
927.419	3237
927.525	3192
927.631	3226
927.737	3150
927.843	3142
927.95	3013
928.056	3131
928.162	3135
928.267	3226
928.373	3785
928.479	3321
928.585	3043
928.69	3214
928.796	3233
928.901	3157
929.007	3039
929.112	3233
929.218	3195
929.323	3131
929.428	3138
929.533	3306
929.638	3116
929.743	3169
929.848	3230
929.953	3203
930.058	3142
930.163	3005
930.267	3058
930.372	3180
930.477	3055
930.581	3310
930.685	3150
930.79	3074
930.894	3142
930.998	3074
931.103	3253
931.207	2986
931.311	2918
931.415	2941
931.519	2758
931.623	2800
