Data from test_V78500241_1597.txt Node
Date: Fri Mar 25 16:26:16 CST 2022
User: usil
Spectrometer: V785-0024
Trigger mode: 0
Integration Time (sec): 4.000000E-1
Scans to average: 1
Nonlinearity correction enabled: false
Boxcar width: 0
Storing dark spectrum: false
XAxis mode: Wavelengths
Number of Pixels in Spectrum: 1024
>>>>>Begin Spectral Data<<<<<
801.071	2914
801.214	2902
801.356	2838
801.499	2895
801.641	2868
801.783	2902
801.926	3005
802.068	2971
802.211	2967
802.353	3013
802.496	2960
802.638	3009
802.78	3009
802.923	3043
803.065	2963
803.208	2876
803.35	2887
803.492	2906
803.635	2918
803.777	2739
803.919	2853
804.061	3184
804.204	2963
804.346	2883
804.488	2823
804.63	2960
804.773	2864
804.915	2895
805.057	3089
805.199	2925
805.341	2922
805.483	3036
805.626	3020
805.768	2944
805.91	3100
806.052	3074
806.194	3017
806.336	3268
806.478	3005
806.62	2933
806.762	2979
806.904	3093
807.046	3138
807.188	3051
807.33	2922
807.472	3039
807.614	2929
807.756	2994
807.898	2979
808.04	2922
808.182	2982
808.324	2971
808.465	2922
808.607	2902
808.749	2823
808.891	2876
809.033	3013
809.174	3017
809.316	2902
809.458	2918
809.6	2781
809.741	2781
809.883	2826
810.025	2910
810.166	2864
810.308	2853
810.45	2849
810.591	2781
810.733	2769
810.875	2876
811.016	2819
811.158	2773
811.299	2826
811.441	2956
811.582	2918
811.724	2868
811.865	2849
812.007	2944
812.148	2922
812.29	2914
812.431	2929
812.573	2975
812.714	3024
812.855	3070
812.997	3104
813.138	3157
813.279	3039
813.421	3017
813.562	2975
813.703	2925
813.845	2956
813.986	2823
814.127	2777
814.268	2838
814.41	2845
814.551	2823
814.692	2914
814.833	2853
814.974	2925
815.115	2990
815.256	2906
815.397	2826
815.539	2883
815.68	2800
815.821	2849
815.962	2979
816.103	2982
816.244	2899
816.385	2922
816.526	2956
816.666	2948
816.807	2766
816.948	2952
817.089	2944
817.23	2876
817.371	2785
817.512	2826
817.653	2845
817.793	2849
817.934	2925
818.075	2990
818.216	3009
818.356	3055
818.497	2906
818.638	2811
818.778	2864
818.919	2811
819.06	2796
819.2	2853
819.341	2830
819.481	2845
819.622	2967
819.762	3142
819.903	3074
820.043	2937
820.184	2895
820.324	2952
820.465	3047
820.605	3062
820.746	3020
820.886	2952
821.026	3146
821.167	3180
821.307	3291
821.447	3256
821.588	3302
821.728	3222
821.868	3199
822.008	3062
822.149	3237
822.289	3260
822.429	3097
822.569	3066
822.709	3192
822.849	3058
822.99	3077
823.13	3180
823.27	3207
823.41	3119
823.55	3173
823.69	3157
823.83	3226
823.97	3146
824.11	2979
824.25	3047
824.389	3039
824.529	3108
824.669	3116
824.809	3256
824.949	3268
825.089	3264
825.228	3176
825.368	3032
825.508	2956
825.648	2937
825.787	3009
825.927	3066
826.067	2975
826.206	2986
826.346	3093
826.485	3116
826.625	3131
826.765	3264
826.904	3222
827.044	3009
827.183	2975
827.323	2914
827.462	2979
827.601	2963
827.741	2979
827.88	2986
828.02	2876
828.159	2979
828.298	3066
828.437	3119
828.577	3051
828.716	3260
828.855	3104
828.994	2967
829.134	2910
829.273	2933
829.412	2883
829.551	2872
829.69	2899
829.829	3047
829.968	3157
830.107	3036
830.246	3028
830.385	2963
830.524	2887
830.663	2857
830.802	2758
830.941	2644
831.08	2678
831.219	2758
831.357	2807
831.496	2979
831.635	2746
831.774	2659
831.913	2682
832.051	2594
832.19	2610
832.329	2750
832.467	2552
832.606	2511
832.744	2575
832.883	2590
833.022	2625
833.16	2689
833.299	2701
833.437	2689
833.576	2716
833.714	2766
833.852	2773
833.991	2796
834.129	2872
834.267	2830
834.406	2807
834.544	2891
834.682	2887
834.821	2891
834.959	3116
835.097	2910
835.235	3089
835.373	3005
835.511	3062
835.65	2998
835.788	2990
835.926	2872
836.064	2834
836.202	2872
836.34	3104
836.478	3161
836.615	3077
836.753	3173
836.891	3211
837.029	3203
837.167	3184
837.305	3070
837.443	3097
837.58	2948
837.718	3173
837.856	3089
837.993	3062
838.131	3127
838.269	3085
838.406	3093
838.544	3150
838.681	2952
838.819	2948
838.956	2853
839.094	2804
839.231	2937
839.369	3043
839.506	3412
839.643	3256
839.781	3039
839.918	2944
840.055	3093
840.193	3047
840.33	3077
840.467	3127
840.604	3195
840.742	3405
840.879	3074
841.016	3077
841.153	3142
841.29	3397
841.427	3279
841.564	3321
841.701	3351
841.838	3233
841.975	3195
842.112	3272
842.249	3108
842.385	3074
842.522	3264
842.659	3116
842.796	3066
842.933	3127
843.069	3055
843.206	3097
843.343	3195
843.479	3131
843.616	3169
843.752	2929
843.889	2891
844.025	3074
844.162	2887
844.298	3085
844.435	2944
844.571	2975
844.708	3077
844.844	3214
844.98	3291
845.117	3203
845.253	3077
845.389	3062
845.525	3127
845.661	3097
845.798	3039
845.934	3116
846.07	3070
846.206	3241
846.342	3336
846.478	3245
846.614	3108
846.75	3055
846.886	3062
847.022	3275
847.158	3161
847.294	3195
847.429	3222
847.565	3253
847.701	3549
847.837	3047
847.972	3043
848.108	3199
848.244	3176
848.379	2967
848.515	2941
848.65	2971
848.786	2956
848.921	3024
849.057	3100
849.192	3165
849.328	3077
849.463	3150
849.598	3051
849.734	3047
849.869	3009
850.004	2990
850.14	2952
850.275	2944
850.41	2838
850.545	2918
850.68	2952
850.815	2998
850.95	2948
851.085	3214
851.22	3135
851.355	3024
851.49	3047
851.625	3020
851.76	2986
851.895	2952
852.03	2925
852.165	3028
852.299	3131
852.434	3169
852.569	3142
852.703	3188
852.838	3298
852.973	3340
853.107	3389
853.242	3157
853.376	3127
853.511	2994
853.645	3055
853.78	3245
853.914	3165
854.048	3142
854.183	3108
854.317	3146
854.451	3317
854.585	3150
854.72	3089
854.854	3214
854.988	3051
855.122	3104
855.256	2990
855.39	3116
855.524	3260
855.658	3173
855.792	3195
855.926	3211
856.06	3241
856.194	3268
856.327	3180
856.461	3085
856.595	3097
856.729	3135
856.862	3249
856.996	3207
857.13	3237
857.263	3260
857.397	3329
857.53	3154
857.664	3214
857.797	3226
857.931	3245
858.064	3150
858.197	3272
858.331	3146
858.464	3081
858.597	3043
858.731	3093
858.864	3119
858.997	3089
859.13	3157
859.263	3165
859.396	3249
859.529	3108
859.662	3070
859.795	3028
859.928	3119
860.061	3268
860.194	3272
860.327	3119
860.46	3081
860.592	3260
860.725	3230
860.858	3291
860.99	3127
861.123	3058
861.256	3070
861.388	3173
861.521	3907
861.653	2982
861.786	3024
861.918	3036
862.05	3085
862.183	3093
862.315	3173
862.447	3211
862.58	3104
862.712	2956
862.844	2864
862.976	3024
863.108	3020
863.24	3348
863.372	2891
863.504	2990
863.636	2956
863.768	3032
863.9	2986
864.032	2933
864.164	2918
864.296	3047
864.428	3081
864.559	3108
864.691	3081
864.823	3066
864.954	3055
865.086	3051
865.217	2994
865.349	2979
865.48	2982
865.612	3020
865.743	3165
865.875	2982
866.006	2902
866.137	3020
866.269	2937
866.4	2967
866.531	2937
866.662	2922
866.793	2914
866.924	2918
867.055	2960
867.186	2929
867.317	2914
867.448	2876
867.579	2880
867.71	2872
867.841	2792
867.972	2902
868.103	2944
868.233	2861
868.364	2876
868.495	2902
868.625	3093
868.756	3165
868.886	2967
869.017	3043
869.147	3146
869.278	3157
869.408	3085
869.539	3036
869.669	3074
869.799	3043
869.929	3108
870.06	3100
870.19	3313
870.32	3294
870.45	3321
870.58	3401
870.71	3424
870.84	3454
870.97	3287
871.1	3218
871.23	3477
871.36	3443
871.489	3378
871.619	3443
871.749	3378
871.879	3477
872.008	3473
872.138	3332
872.267	3294
872.397	3184
872.526	3108
872.656	3043
872.785	3131
872.915	3256
873.044	3325
873.173	3211
873.303	3237
873.432	3260
873.561	3241
873.69	3161
873.819	3161
873.948	3188
874.077	3055
874.206	3081
874.335	3089
874.464	3218
874.593	3340
874.722	3218
874.851	3393
874.979	3329
875.108	3329
875.237	3176
875.365	3180
875.494	3165
875.623	3291
875.751	3081
875.88	3146
876.008	3165
876.136	3268
876.265	3393
876.393	3530
876.521	3397
876.65	3439
876.778	3310
876.906	3294
877.034	3211
877.162	3237
877.29	3211
877.418	3264
877.546	3241
877.674	3237
877.802	3237
877.93	3188
878.058	3154
878.185	3119
878.313	3192
878.441	3211
878.568	3123
878.696	3154
878.824	3226
878.951	3291
879.079	3492
879.206	3656
879.333	3420
879.461	3363
879.588	3370
879.715	3507
879.842	3622
879.97	3382
880.097	3184
880.224	3138
880.351	3211
880.478	3275
880.605	3249
880.732	3218
880.859	3504
880.986	3317
881.112	3389
881.239	3218
881.366	3157
881.493	3074
881.619	3062
881.746	3100
881.872	3112
881.999	3176
882.125	3176
882.252	3287
882.378	3340
882.505	3435
882.631	3355
882.757	3230
882.883	3249
883.01	3275
883.136	3199
883.262	3142
883.388	3138
883.514	3370
883.64	3443
883.766	3348
883.892	3203
884.018	3298
884.143	3428
884.269	3572
884.395	3245
884.52	3207
884.646	3214
884.772	3184
884.897	3157
885.023	3241
885.148	3363
885.274	3420
885.399	3401
885.524	3313
885.65	3279
885.775	3382
885.9	3317
886.025	3473
886.15	3401
886.275	3313
886.4	3306
886.525	3321
886.65	3313
886.775	3325
886.9	3538
887.025	3675
887.149	3420
887.274	3321
887.399	3180
887.523	3218
887.648	3230
887.773	3253
887.897	3424
888.021	3412
888.146	3317
888.27	3481
888.395	3572
888.519	3485
888.643	3511
888.767	3500
888.891	3378
889.015	3256
889.139	3332
889.263	3260
889.387	3450
889.511	3549
889.635	3462
889.759	3348
889.883	3329
890.006	3481
890.13	3534
890.254	3336
890.377	3351
890.501	3245
890.624	3237
890.748	3329
890.871	3199
890.995	3127
891.118	3127
891.241	3226
891.364	3211
891.488	3355
891.611	3222
891.734	3253
891.857	3336
891.98	3306
892.103	3359
892.226	3332
892.349	3241
892.471	3176
892.594	3287
892.717	3336
892.839	3287
892.962	3291
893.085	3409
893.207	3329
893.33	3173
893.452	3264
893.575	3351
893.697	3275
893.819	3488
893.941	3496
894.064	3462
894.186	3283
894.308	3313
894.43	3462
894.552	3526
894.674	3469
894.796	3306
894.918	3386
895.04	3359
895.161	3458
895.283	3439
895.405	3325
895.526	3409
895.648	3439
895.769	3462
895.891	3466
896.012	3519
896.134	3492
896.255	3458
896.376	3397
896.498	3431
896.619	3447
896.74	3374
896.861	3428
896.982	3713
897.103	3896
897.224	3595
897.345	3553
897.466	3466
897.587	3526
897.708	3625
897.828	3587
897.949	3488
898.07	3374
898.19	3450
898.311	3603
898.431	3450
898.552	3568
898.672	3595
898.792	3584
898.913	3568
899.033	3435
899.153	3321
899.273	3291
899.393	3329
899.513	3344
899.633	3389
899.753	3386
899.873	3378
899.993	3397
900.113	3351
900.232	3416
900.352	3397
900.472	3313
900.591	3260
900.711	3336
900.83	3260
900.95	3405
901.069	3564
901.189	3363
901.308	3233
901.427	3135
901.546	3256
901.665	3317
901.784	3359
901.904	3245
902.023	3146
902.141	3058
902.26	3055
902.379	3184
902.498	3081
902.617	3089
902.735	3237
902.854	3272
902.973	3249
903.091	3074
903.21	3070
903.328	3146
903.446	3176
903.565	3135
903.683	3230
903.801	3150
903.919	3256
904.038	3317
904.156	3226
904.274	3329
904.392	3237
904.51	3317
904.627	3355
904.745	3477
904.863	3492
904.981	3298
905.098	3173
905.216	3249
905.334	3306
905.451	3298
905.569	3313
905.686	3462
905.803	3473
905.921	3329
906.038	3439
906.155	3367
906.272	3291
906.389	3405
906.506	3275
906.623	3313
906.74	3279
906.857	3233
906.974	3298
907.091	3500
907.208	3595
907.324	3538
907.441	3454
907.557	3253
907.674	3283
907.79	3253
907.907	3298
908.023	3378
908.139	3420
908.256	3344
908.372	3412
908.488	3363
908.604	3291
908.72	3226
908.836	3325
908.952	3336
909.068	3332
909.184	3526
909.3	3405
909.415	3519
909.531	3500
909.647	3302
909.762	3348
909.878	3230
909.993	3367
910.108	3378
910.224	3363
910.339	3447
910.454	3363
910.57	3291
910.685	3279
910.8	3622
910.915	3561
911.03	3443
911.145	3306
911.259	3294
911.374	3291
911.489	3253
911.604	3272
911.718	3154
911.833	3195
911.947	3024
912.062	3017
912.176	3169
912.291	3161
912.405	3272
912.519	3477
912.633	3454
912.748	3359
912.862	3306
912.976	3176
913.09	3131
913.204	3165
913.318	3279
913.431	3401
913.545	3363
913.659	3374
913.772	3386
913.886	3226
914	3226
914.113	3370
914.226	3469
914.34	3393
914.453	3222
914.566	3416
914.68	3321
914.793	3298
914.906	3150
915.019	3138
915.132	3070
915.245	3165
915.358	3237
915.47	3237
915.583	3332
915.696	3355
915.809	3450
915.921	3435
916.034	3291
916.146	3264
916.259	3256
916.371	3382
916.483	3355
916.595	3287
916.708	3359
916.82	3386
916.932	3405
917.044	3393
917.156	3412
917.268	3287
917.38	3336
917.491	3302
917.603	3428
917.715	3454
917.826	3519
917.938	3431
918.049	3336
918.161	3412
918.272	3599
918.384	3599
918.495	3511
918.606	3336
918.717	3256
918.828	3344
918.939	3428
919.05	3329
919.161	3409
919.272	3169
919.383	3336
919.494	3511
919.604	3701
919.715	3504
919.826	3454
919.936	3485
920.047	3622
920.157	3580
920.267	3778
920.378	3618
920.488	3618
920.598	3854
920.708	3972
920.818	3854
920.928	3850
921.038	4017
921.148	4029
921.258	3755
921.368	3675
921.477	3595
921.587	3564
921.697	3473
921.806	3625
921.916	3557
922.025	3412
922.134	3367
922.244	3332
922.353	3458
922.462	3294
922.571	3237
922.68	3127
922.789	3047
922.898	3176
923.007	3135
923.116	3264
923.224	3165
923.333	3207
923.442	3127
923.55	3138
923.659	3199
923.767	3233
923.876	3154
923.984	3302
924.092	3146
924.201	3188
924.309	3245
924.417	3264
924.525	3211
924.633	3260
924.741	4173
924.849	3047
924.956	3249
925.064	3116
925.172	3055
925.279	3123
925.387	3211
925.494	3226
925.602	3359
925.709	3332
925.816	3226
925.924	3294
926.031	3389
926.138	3306
926.245	3386
926.352	3283
926.459	3447
926.566	3450
926.673	3355
926.779	3272
926.886	3294
926.993	3138
927.099	3112
927.206	3184
927.312	3108
927.419	3214
927.525	3249
927.631	3264
927.737	3150
927.843	3116
927.95	3036
928.056	3165
928.162	3154
928.267	3279
928.373	3869
928.479	3294
928.585	3085
928.69	3214
928.796	3249
928.901	3146
929.007	3070
929.112	3249
929.218	3195
929.323	3211
929.428	3154
929.533	3363
929.638	3142
929.743	3173
929.848	3241
929.953	3249
930.058	3192
930.163	3020
930.267	3062
930.372	3226
930.477	3039
930.581	3336
930.685	3173
930.79	3055
930.894	3123
930.998	3089
931.103	3329
931.207	2979
931.311	2960
931.415	2925
931.519	2800
931.623	2849
