Data from test_V78500241_607.txt Node
Date: Fri Mar 25 16:19:24 CST 2022
User: usil
Spectrometer: V785-0024
Trigger mode: 0
Integration Time (sec): 4.000000E-1
Scans to average: 1
Nonlinearity correction enabled: false
Boxcar width: 0
Storing dark spectrum: false
XAxis mode: Wavelengths
Number of Pixels in Spectrum: 1024
>>>>>Begin Spectral Data<<<<<
801.071	2952
801.214	2975
801.356	2891
801.499	2948
801.641	2872
801.783	2937
801.926	3062
802.068	3005
802.211	3013
802.353	3036
802.496	2971
802.638	3009
802.78	3070
802.923	3081
803.065	3047
803.208	2883
803.35	2956
803.492	2925
803.635	2933
803.777	2777
803.919	2887
804.061	3180
804.204	2952
804.346	2925
804.488	2849
804.63	2967
804.773	2864
804.915	2883
805.057	3100
805.199	2925
805.341	3017
805.483	3036
805.626	3009
805.768	2982
805.91	3097
806.052	3131
806.194	3028
806.336	3237
806.478	3028
806.62	2952
806.762	2986
806.904	3070
807.046	3157
807.188	2975
807.33	2895
807.472	2952
807.614	2872
807.756	3009
807.898	2925
808.04	2895
808.182	2963
808.324	2944
808.465	2880
808.607	2895
808.749	2800
808.891	2834
809.033	2994
809.174	2963
809.316	2887
809.458	2872
809.6	2773
809.741	2807
809.883	2777
810.025	2853
810.166	2849
810.308	2864
810.45	2861
810.591	2766
810.733	2769
810.875	2823
811.016	2754
811.158	2739
811.299	2819
811.441	2876
811.582	2906
811.724	2830
811.865	2823
812.007	2906
812.148	2857
812.29	2880
812.431	2883
812.573	2937
812.714	2990
812.855	3005
812.997	3043
813.138	3142
813.279	2982
813.421	2998
813.562	2941
813.703	2883
813.845	2868
813.986	2792
814.127	2701
814.268	2823
814.41	2788
814.551	2804
814.692	2857
814.833	2838
814.974	2864
815.115	2952
815.256	2845
815.397	2807
815.539	2819
815.68	2758
815.821	2777
815.962	2933
816.103	2914
816.244	2880
816.385	2902
816.526	2982
816.666	2922
816.807	2739
816.948	2842
817.089	2887
817.23	2823
817.371	2777
817.512	2785
817.653	2823
817.793	2815
817.934	2864
818.075	2960
818.216	2986
818.356	3047
818.497	2895
818.638	2796
818.778	2796
818.919	2781
819.06	2766
819.2	2902
819.341	2804
819.481	2811
819.622	2944
819.762	3112
819.903	3055
820.043	2952
820.184	2880
820.324	2891
820.465	3017
820.605	3032
820.746	3013
820.886	2963
821.026	3085
821.167	3161
821.307	3264
821.447	3306
821.588	3264
821.728	3214
821.868	3218
822.008	3055
822.149	3195
822.289	3272
822.429	3112
822.569	3089
822.709	3180
822.849	3036
822.99	3112
823.13	3173
823.27	3233
823.41	3116
823.55	3169
823.69	3161
823.83	3226
823.97	3154
824.11	3043
824.25	3058
824.389	3085
824.529	3165
824.669	3062
824.809	3211
824.949	3268
825.089	3237
825.228	3218
825.368	3028
825.508	2975
825.648	3013
825.787	3036
825.927	3043
826.067	2998
826.206	2975
826.346	3077
826.485	3100
826.625	3154
826.765	3279
826.904	3249
827.044	3039
827.183	2963
827.323	2880
827.462	3028
827.601	2948
827.741	2948
827.88	2998
828.02	2929
828.159	3028
828.298	3077
828.437	3192
828.577	3093
828.716	3268
828.855	3135
828.994	2986
829.134	2925
829.273	2944
829.412	2925
829.551	2929
829.69	2956
829.829	3028
829.968	3150
830.107	3036
830.246	3051
830.385	2971
830.524	2922
830.663	2834
830.802	2769
830.941	2712
831.08	2716
831.219	2826
831.357	2804
831.496	2982
831.635	2773
831.774	2701
831.913	2686
832.051	2564
832.19	2621
832.329	2727
832.467	2571
832.606	2530
832.744	2598
832.883	2610
833.022	2640
833.16	2716
833.299	2746
833.437	2750
833.576	2701
833.714	2769
833.852	2762
833.991	2766
834.129	2883
834.267	2857
834.406	2845
834.544	2883
834.682	2899
834.821	2902
834.959	3081
835.097	2902
835.235	3089
835.373	3013
835.511	3051
835.65	2960
835.788	2994
835.926	2838
836.064	2853
836.202	2864
836.34	3104
836.478	3165
836.615	3116
836.753	3173
836.891	3241
837.029	3157
837.167	3154
837.305	3085
837.443	3066
837.58	2990
837.718	3176
837.856	3089
837.993	3085
838.131	3154
838.269	3112
838.406	3161
838.544	3108
838.681	2979
838.819	2963
838.956	2815
839.094	2853
839.231	2910
839.369	3036
839.506	3416
839.643	3253
839.781	3005
839.918	2979
840.055	3116
840.193	3104
840.33	3104
840.467	3142
840.604	3214
840.742	3439
840.879	3112
841.016	3089
841.153	3188
841.29	3344
841.427	3332
841.564	3306
841.701	3332
841.838	3237
841.975	3211
842.112	3203
842.249	3123
842.385	3058
842.522	3332
842.659	3123
842.796	3119
842.933	3119
843.069	3093
843.206	3085
843.343	3249
843.479	3173
843.616	3161
843.752	2910
843.889	2872
844.025	3100
844.162	2895
844.298	3085
844.435	3017
844.571	2952
844.708	3093
844.844	3203
844.98	3260
845.117	3230
845.253	3123
845.389	3005
845.525	3100
845.661	3104
845.798	3017
845.934	3150
846.07	3055
846.206	3241
846.342	3378
846.478	3272
846.614	3142
846.75	3100
846.886	3036
847.022	3264
847.158	3184
847.294	3218
847.429	3237
847.565	3218
847.701	3504
847.837	3051
847.972	3024
848.108	3207
848.244	3161
848.379	2998
848.515	2925
848.65	2967
848.786	2975
848.921	3039
849.057	3146
849.192	3173
849.328	3074
849.463	3157
849.598	3112
849.734	3085
849.869	3017
850.004	2914
850.14	3013
850.275	2918
850.41	2853
850.545	2937
850.68	2952
850.815	2998
850.95	3055
851.085	3237
851.22	3093
851.355	3043
851.49	2998
851.625	3047
851.76	3043
851.895	2952
852.03	2952
852.165	3077
852.299	3135
852.434	3195
852.569	3146
852.703	3184
852.838	3294
852.973	3401
853.107	3340
853.242	3157
853.376	3127
853.511	3017
853.645	3047
853.78	3245
853.914	3173
854.048	3135
854.183	3116
854.317	3131
854.451	3317
854.585	3161
854.72	3089
854.854	3211
854.988	3062
855.122	3112
855.256	2967
855.39	3119
855.524	3245
855.658	3207
855.792	3184
855.926	3207
856.06	3211
856.194	3287
856.327	3173
856.461	3089
856.595	3138
856.729	3131
856.862	3226
856.996	3157
857.13	3233
857.263	3275
857.397	3340
857.53	3142
857.664	3203
857.797	3245
857.931	3283
858.064	3199
858.197	3249
858.331	3142
858.464	3116
858.597	3032
858.731	3127
858.864	3161
858.997	3089
859.13	3165
859.263	3173
859.396	3203
859.529	3077
859.662	3104
859.795	3085
859.928	3119
860.061	3264
860.194	3317
860.327	3161
860.46	3108
860.592	3272
860.725	3272
860.858	3268
860.99	3150
861.123	3066
861.256	3089
861.388	3161
861.521	3705
861.653	3055
861.786	2975
861.918	3055
862.05	3074
862.183	3150
862.315	3192
862.447	3192
862.58	3123
862.712	2963
862.844	2845
862.976	3058
863.108	3017
863.24	3431
863.372	2880
863.504	2979
863.636	2975
863.768	3036
863.9	2971
864.032	2933
864.164	2986
864.296	3032
864.428	3097
864.559	3138
864.691	3062
864.823	3077
864.954	3017
865.086	3081
865.217	3032
865.349	2990
865.48	2979
865.612	3036
865.743	3184
865.875	2998
866.006	2963
866.137	2998
866.269	2986
866.4	2933
866.531	2933
866.662	2944
866.793	2937
866.924	2918
867.055	3001
867.186	2937
867.317	2922
867.448	2880
867.579	2876
867.71	2872
867.841	2861
867.972	2925
868.103	2941
868.233	2914
868.364	2883
868.495	2967
868.625	3074
868.756	3157
868.886	3009
869.017	3047
869.147	3192
869.278	3188
869.408	3062
869.539	3017
869.669	3131
869.799	3055
869.929	3180
870.06	3112
870.19	3382
870.32	3279
870.45	3306
870.58	3431
870.71	3519
870.84	3515
870.97	3302
871.1	3298
871.23	3481
871.36	3462
871.489	3336
871.619	3382
871.749	3435
871.879	3416
872.008	3515
872.138	3374
872.267	3275
872.397	3123
872.526	3154
872.656	3009
872.785	3119
872.915	3283
873.044	3336
873.173	3245
873.303	3253
873.432	3275
873.561	3260
873.69	3176
873.819	3123
873.948	3230
874.077	3119
874.206	3074
874.335	3081
874.464	3218
874.593	3351
874.722	3272
874.851	3405
874.979	3355
875.108	3348
875.237	3222
875.365	3173
875.494	3188
875.623	3260
875.751	3108
875.88	3146
876.008	3199
876.136	3241
876.265	3389
876.393	3515
876.521	3428
876.65	3454
876.778	3336
876.906	3264
877.034	3241
877.162	3226
877.29	3195
877.418	3260
877.546	3279
877.674	3294
877.802	3279
877.93	3245
878.058	3135
878.185	3074
878.313	3222
878.441	3214
878.568	3074
878.696	3161
878.824	3253
878.951	3294
879.079	3466
879.206	3618
879.333	3428
879.461	3367
879.588	3340
879.715	3492
879.842	3606
879.97	3386
880.097	3184
880.224	3138
880.351	3241
880.478	3230
880.605	3207
880.732	3195
880.859	3511
880.986	3302
881.112	3310
881.239	3218
881.366	3112
881.493	3051
881.619	3028
881.746	3058
881.872	3097
881.999	3116
882.125	3188
882.252	3279
882.378	3306
882.505	3409
882.631	3283
882.757	3169
882.883	3249
883.01	3192
883.136	3157
883.262	3089
883.388	3135
883.514	3336
883.64	3367
883.766	3291
883.892	3218
884.018	3279
884.143	3443
884.269	3557
884.395	3226
884.52	3165
884.646	3230
884.772	3131
884.897	3058
885.023	3241
885.148	3351
885.274	3409
885.399	3378
885.524	3340
885.65	3272
885.775	3302
885.9	3279
886.025	3431
886.15	3363
886.275	3313
886.4	3237
886.525	3306
886.65	3336
886.775	3279
886.9	3523
887.025	3690
887.149	3435
887.274	3279
887.399	3142
887.523	3245
887.648	3173
887.773	3233
887.897	3393
888.021	3393
888.146	3291
888.27	3450
888.395	3553
888.519	3458
888.643	3466
888.767	3492
888.891	3298
889.015	3298
889.139	3291
889.263	3256
889.387	3389
889.511	3477
889.635	3435
889.759	3313
889.883	3260
890.006	3389
890.13	3511
890.254	3279
890.377	3355
890.501	3241
890.624	3184
890.748	3340
890.871	3161
890.995	3119
891.118	3089
891.241	3180
891.364	3218
891.488	3325
891.611	3192
891.734	3233
891.857	3332
891.98	3218
892.103	3363
892.226	3287
892.349	3203
892.471	3138
892.594	3214
892.717	3283
892.839	3287
892.962	3298
893.085	3359
893.207	3317
893.33	3192
893.452	3233
893.575	3317
893.697	3233
893.819	3466
893.941	3450
894.064	3477
894.186	3275
894.308	3294
894.43	3458
894.552	3523
894.674	3488
894.796	3272
894.918	3355
895.04	3332
895.161	3409
895.283	3409
895.405	3310
895.526	3424
895.648	3428
895.769	3424
895.891	3466
896.012	3500
896.134	3469
896.255	3454
896.376	3363
896.498	3329
896.619	3420
896.74	3378
896.861	3397
896.982	3663
897.103	3899
897.224	3580
897.345	3538
897.466	3431
897.587	3519
897.708	3599
897.828	3549
897.949	3450
898.07	3306
898.19	3420
898.311	3564
898.431	3462
898.552	3515
898.672	3618
898.792	3587
898.913	3485
899.033	3431
899.153	3321
899.273	3218
899.393	3279
899.513	3325
899.633	3268
899.753	3325
899.873	3287
899.993	3344
900.113	3351
900.232	3389
900.352	3359
900.472	3268
900.591	3203
900.711	3268
900.83	3211
900.95	3389
901.069	3466
901.189	3355
901.308	3161
901.427	3165
901.546	3157
901.665	3294
901.784	3298
901.904	3233
902.023	3150
902.141	3017
902.26	3005
902.379	3097
902.498	3074
902.617	3036
902.735	3237
902.854	3279
902.973	3226
903.091	3074
903.21	3051
903.328	3119
903.446	3135
903.565	3081
903.683	3192
903.801	3154
903.919	3268
904.038	3306
904.156	3184
904.274	3317
904.392	3264
904.51	3260
904.627	3378
904.745	3462
904.863	3507
904.981	3233
905.098	3188
905.216	3214
905.334	3321
905.451	3310
905.569	3313
905.686	3409
905.803	3439
905.921	3313
906.038	3435
906.155	3348
906.272	3237
906.389	3332
906.506	3253
906.623	3237
906.74	3249
906.857	3157
906.974	3256
907.091	3466
907.208	3606
907.324	3492
907.441	3409
907.557	3260
907.674	3256
907.79	3226
907.907	3294
908.023	3363
908.139	3363
908.256	3351
908.372	3374
908.488	3359
908.604	3283
908.72	3233
908.836	3287
908.952	3283
909.068	3302
909.184	3530
909.3	3382
909.415	3462
909.531	3488
909.647	3302
909.762	3264
909.878	3260
909.993	3370
910.108	3313
910.224	3329
910.339	3424
910.454	3336
910.57	3294
910.685	3188
910.8	3622
910.915	3568
911.03	3428
911.145	3260
911.259	3279
911.374	3298
911.489	3245
911.604	3256
911.718	3138
911.833	3150
911.947	3070
912.062	2979
912.176	3150
912.291	3188
912.405	3207
912.519	3435
912.633	3454
912.748	3386
912.862	3230
912.976	3203
913.09	3058
913.204	3135
913.318	3188
913.431	3332
913.545	3325
913.659	3416
913.772	3351
913.886	3237
914	3241
914.113	3389
914.226	3401
914.34	3374
914.453	3245
914.566	3447
914.68	3272
914.793	3325
914.906	3104
915.019	3116
915.132	3112
915.245	3188
915.358	3192
915.47	3203
915.583	3279
915.696	3313
915.809	3386
915.921	3378
916.034	3230
916.146	3241
916.259	3226
916.371	3370
916.483	3351
916.595	3313
916.708	3359
916.82	3321
916.932	3355
917.044	3359
917.156	3298
917.268	3237
917.38	3283
917.491	3287
917.603	3382
917.715	3435
917.826	3492
917.938	3412
918.049	3275
918.161	3409
918.272	3523
918.384	3549
918.495	3507
918.606	3355
918.717	3302
918.828	3405
918.939	3416
919.05	3317
919.161	3367
919.272	3131
919.383	3313
919.494	3519
919.604	3686
919.715	3500
919.826	3374
919.936	3473
920.047	3610
920.157	3553
920.267	3774
920.378	3606
920.488	3557
920.598	3766
920.708	3979
920.818	3793
920.928	3812
921.038	4032
921.148	3991
921.258	3724
921.368	3652
921.477	3584
921.587	3534
921.697	3462
921.806	3671
921.916	3534
922.025	3401
922.134	3355
922.244	3306
922.353	3439
922.462	3272
922.571	3233
922.68	3127
922.789	3108
922.898	3112
923.007	3123
923.116	3184
923.224	3142
923.333	3184
923.442	3104
923.55	3135
923.659	3161
923.767	3195
923.876	3138
923.984	3237
924.092	3112
924.201	3241
924.309	3275
924.417	3218
924.525	3173
924.633	3233
924.741	3998
924.849	3062
924.956	3291
925.064	3081
925.172	3070
925.279	3093
925.387	3249
925.494	3222
925.602	3340
925.709	3340
925.816	3184
925.924	3294
926.031	3370
926.138	3317
926.245	3294
926.352	3256
926.459	3431
926.566	3462
926.673	3291
926.779	3272
926.886	3237
926.993	3146
927.099	3154
927.206	3112
927.312	3131
927.419	3222
927.525	3203
927.631	3279
927.737	3146
927.843	3116
927.95	3047
928.056	3135
928.162	3165
928.267	3249
928.373	3800
928.479	3340
928.585	3089
928.69	3249
928.796	3241
928.901	3161
929.007	3051
929.112	3233
929.218	3203
929.323	3123
929.428	3119
929.533	3279
929.638	3089
929.743	3154
929.848	3214
929.953	3195
930.058	3119
930.163	3005
930.267	3066
930.372	3154
930.477	3043
930.581	3321
930.685	3157
930.79	3024
930.894	3138
930.998	3108
931.103	3306
931.207	2979
931.311	2952
931.415	2967
931.519	2769
931.623	2792
