Data from test_V78500241_1378.txt Node
Date: Fri Mar 25 16:24:44 CST 2022
User: usil
Spectrometer: V785-0024
Trigger mode: 0
Integration Time (sec): 4.000000E-1
Scans to average: 1
Nonlinearity correction enabled: false
Boxcar width: 0
Storing dark spectrum: false
XAxis mode: Wavelengths
Number of Pixels in Spectrum: 1024
>>>>>Begin Spectral Data<<<<<
801.071	2925
801.214	2933
801.356	2872
801.499	2899
801.641	2876
801.783	2922
801.926	3013
802.068	2948
802.211	2982
802.353	3005
802.496	2956
802.638	3009
802.78	3020
802.923	3062
803.065	2960
803.208	2868
803.35	2918
803.492	2880
803.635	2925
803.777	2754
803.919	2845
804.061	3203
804.204	2922
804.346	2876
804.488	2845
804.63	2963
804.773	2861
804.915	2902
805.057	3062
805.199	2895
805.341	2994
805.483	3043
805.626	3032
805.768	2975
805.91	3062
806.052	3104
806.194	3058
806.336	3260
806.478	3039
806.62	2937
806.762	2952
806.904	3051
807.046	3169
807.188	2975
807.33	2880
807.472	2982
807.614	2906
807.756	3001
807.898	2937
808.04	2876
808.182	2963
808.324	2937
808.465	2883
808.607	2849
808.749	2811
808.891	2861
809.033	2971
809.174	2925
809.316	2861
809.458	2861
809.6	2769
809.741	2724
809.883	2781
810.025	2853
810.166	2838
810.308	2830
810.45	2842
810.591	2766
810.733	2746
810.875	2861
811.016	2785
811.158	2743
811.299	2819
811.441	2918
811.582	2918
811.724	2807
811.865	2842
812.007	2922
812.148	2891
812.29	2872
812.431	2891
812.573	2933
812.714	2941
812.855	3047
812.997	3051
813.138	3116
813.279	2956
813.421	2967
813.562	2941
813.703	2895
813.845	2842
813.986	2743
814.127	2731
814.268	2834
814.41	2849
814.551	2773
814.692	2891
814.833	2788
814.974	2914
815.115	2963
815.256	2834
815.397	2762
815.539	2864
815.68	2769
815.821	2785
815.962	2941
816.103	2910
816.244	2857
816.385	2868
816.526	2941
816.666	2895
816.807	2739
816.948	2899
817.089	2891
817.23	2815
817.371	2811
817.512	2796
817.653	2838
817.793	2804
817.934	2864
818.075	2971
818.216	3001
818.356	2998
818.497	2880
818.638	2811
818.778	2815
818.919	2762
819.06	2773
819.2	2864
819.341	2815
819.481	2811
819.622	2883
819.762	3116
819.903	3009
820.043	2918
820.184	2914
820.324	2895
820.465	3013
820.605	3032
820.746	3039
820.886	2933
821.026	3085
821.167	3184
821.307	3253
821.447	3310
821.588	3222
821.728	3173
821.868	3192
822.008	3055
822.149	3165
822.289	3253
822.429	3070
822.569	3074
822.709	3176
822.849	3036
822.99	3055
823.13	3150
823.27	3180
823.41	3074
823.55	3157
823.69	3119
823.83	3176
823.97	3097
824.11	2986
824.25	2986
824.389	3009
824.529	3119
824.669	3047
824.809	3199
824.949	3230
825.089	3241
825.228	3188
825.368	3005
825.508	2963
825.648	2979
825.787	3001
825.927	2986
826.067	2975
826.206	2944
826.346	3051
826.485	3077
826.625	3138
826.765	3245
826.904	3214
827.044	2948
827.183	2944
827.323	2876
827.462	2979
827.601	2902
827.741	2902
827.88	2918
828.02	2838
828.159	2929
828.298	3005
828.437	3138
828.577	3024
828.716	3275
828.855	3032
828.994	2914
829.134	2861
829.273	2937
829.412	2861
829.551	2868
829.69	2868
829.829	2944
829.968	3123
830.107	3005
830.246	3009
830.385	2876
830.524	2845
830.663	2777
830.802	2678
830.941	2636
831.08	2667
831.219	2785
831.357	2754
831.496	2914
831.635	2731
831.774	2667
831.913	2613
832.051	2583
832.19	2545
832.329	2678
832.467	2530
832.606	2484
832.744	2568
832.883	2571
833.022	2568
833.16	2632
833.299	2670
833.437	2708
833.576	2686
833.714	2697
833.852	2735
833.991	2735
834.129	2834
834.267	2788
834.406	2788
834.544	2857
834.682	2845
834.821	2868
834.959	3055
835.097	2876
835.235	3062
835.373	2986
835.511	3009
835.65	2899
835.788	2925
835.926	2823
836.064	2819
836.202	2823
836.34	3081
836.478	3135
836.615	3062
836.753	3093
836.891	3192
837.029	3173
837.167	3116
837.305	3055
837.443	3017
837.58	2925
837.718	3150
837.856	3036
837.993	3013
838.131	3108
838.269	3119
838.406	3070
838.544	3055
838.681	2941
838.819	2918
838.956	2769
839.094	2819
839.231	2925
839.369	3009
839.506	3344
839.643	3188
839.781	3036
839.918	2925
840.055	3017
840.193	3032
840.33	3070
840.467	3085
840.604	3100
840.742	3401
840.879	3005
841.016	3032
841.153	3081
841.29	3336
841.427	3253
841.564	3222
841.701	3306
841.838	3211
841.975	3165
842.112	3173
842.249	3039
842.385	3001
842.522	3256
842.659	3074
842.796	3020
842.933	3077
843.069	2982
843.206	3001
843.343	3180
843.479	3119
843.616	3154
843.752	2880
843.889	2861
844.025	3047
844.162	2883
844.298	3074
844.435	2982
844.571	2948
844.708	3081
844.844	3165
844.98	3226
845.117	3146
845.253	3024
845.389	3001
845.525	3089
845.661	3093
845.798	3005
845.934	3127
846.07	3039
846.206	3176
846.342	3256
846.478	3173
846.614	3055
846.75	3055
846.886	2994
847.022	3207
847.158	3127
847.294	3188
847.429	3211
847.565	3188
847.701	3469
847.837	2998
847.972	2956
848.108	3142
848.244	3119
848.379	2956
848.515	2933
848.65	2887
848.786	2952
848.921	3020
849.057	3058
849.192	3142
849.328	3081
849.463	3074
849.598	3009
849.734	3028
849.869	2990
850.004	2861
850.14	2925
850.275	2929
850.41	2811
850.545	2880
850.68	2895
850.815	2906
850.95	2929
851.085	3146
851.22	3131
851.355	2994
851.49	2982
851.625	2982
851.76	2986
851.895	2925
852.03	2929
852.165	2982
852.299	3123
852.434	3169
852.569	3165
852.703	3180
852.838	3211
852.973	3359
853.107	3329
853.242	3150
853.376	3089
853.511	3017
853.645	3055
853.78	3199
853.914	3135
854.048	3138
854.183	3127
854.317	3154
854.451	3336
854.585	3184
854.72	3108
854.854	3192
854.988	3077
855.122	3097
855.256	2986
855.39	3135
855.524	3275
855.658	3184
855.792	3161
855.926	3207
856.06	3230
856.194	3283
856.327	3165
856.461	3081
856.595	3123
856.729	3142
856.862	3264
856.996	3214
857.13	3203
857.263	3264
857.397	3310
857.53	3135
857.664	3237
857.797	3275
857.931	3294
858.064	3173
858.197	3226
858.331	3199
858.464	3116
858.597	3074
858.731	3157
858.864	3161
858.997	3146
859.13	3199
859.263	3188
859.396	3283
859.529	3108
859.662	3104
859.795	3093
859.928	3173
860.061	3321
860.194	3344
860.327	3188
860.46	3176
860.592	3268
860.725	3287
860.858	3275
860.99	3142
861.123	3127
861.256	3081
861.388	3169
861.521	3816
861.653	3047
861.786	3020
861.918	3009
862.05	3138
862.183	3112
862.315	3211
862.447	3211
862.58	3119
862.712	3005
862.844	2914
862.976	3097
863.108	3013
863.24	3351
863.372	2902
863.504	2998
863.636	3001
863.768	3058
863.9	3020
864.032	2948
864.164	2971
864.296	3043
864.428	3116
864.559	3097
864.691	3074
864.823	3093
864.954	3070
865.086	3051
865.217	3009
865.349	2948
865.48	3017
865.612	2998
865.743	3150
865.875	3013
866.006	2929
866.137	3001
866.269	2979
866.4	2979
866.531	2944
866.662	2895
866.793	2933
866.924	2944
867.055	3009
867.186	2967
867.317	2933
867.448	2842
867.579	2895
867.71	2895
867.841	2891
867.972	2952
868.103	2918
868.233	2902
868.364	2914
868.495	2948
868.625	3085
868.756	3169
868.886	2994
869.017	3024
869.147	3241
869.278	3218
869.408	3066
869.539	3055
869.669	3112
869.799	3085
869.929	3161
870.06	3157
870.19	3310
870.32	3332
870.45	3329
870.58	3367
870.71	3492
870.84	3481
870.97	3306
871.1	3275
871.23	3500
871.36	3500
871.489	3386
871.619	3435
871.749	3431
871.879	3424
872.008	3500
872.138	3344
872.267	3313
872.397	3188
872.526	3119
872.656	3039
872.785	3112
872.915	3287
873.044	3340
873.173	3260
873.303	3237
873.432	3268
873.561	3272
873.69	3184
873.819	3157
873.948	3237
874.077	3123
874.206	3074
874.335	3108
874.464	3230
874.593	3367
874.722	3279
874.851	3397
874.979	3401
875.108	3321
875.237	3211
875.365	3199
875.494	3230
875.623	3264
875.751	3100
875.88	3157
876.008	3211
876.136	3260
876.265	3359
876.393	3504
876.521	3435
876.65	3439
876.778	3329
876.906	3268
877.034	3237
877.162	3233
877.29	3203
877.418	3275
877.546	3268
877.674	3306
877.802	3249
877.93	3294
878.058	3192
878.185	3108
878.313	3230
878.441	3207
878.568	3108
878.696	3195
878.824	3272
878.951	3340
879.079	3462
879.206	3652
879.333	3473
879.461	3382
879.588	3401
879.715	3519
879.842	3648
879.97	3409
880.097	3180
880.224	3146
880.351	3230
880.478	3283
880.605	3230
880.732	3165
880.859	3523
880.986	3351
881.112	3397
881.239	3230
881.366	3154
881.493	3081
881.619	3043
881.746	3100
881.872	3119
881.999	3066
882.125	3150
882.252	3268
882.378	3374
882.505	3454
882.631	3332
882.757	3214
882.883	3214
883.01	3237
883.136	3161
883.262	3161
883.388	3123
883.514	3397
883.64	3420
883.766	3340
883.892	3214
884.018	3256
884.143	3431
884.269	3557
884.395	3249
884.52	3211
884.646	3226
884.772	3142
884.897	3157
885.023	3222
885.148	3363
885.274	3435
885.399	3401
885.524	3256
885.65	3329
885.775	3302
885.9	3264
886.025	3466
886.15	3370
886.275	3340
886.4	3275
886.525	3321
886.65	3325
886.775	3291
886.9	3530
887.025	3652
887.149	3420
887.274	3294
887.399	3176
887.523	3211
887.648	3195
887.773	3233
887.897	3412
888.021	3450
888.146	3344
888.27	3462
888.395	3572
888.519	3466
888.643	3462
888.767	3466
888.891	3313
889.015	3287
889.139	3336
889.263	3287
889.387	3431
889.511	3564
889.635	3439
889.759	3264
889.883	3313
890.006	3420
890.13	3473
890.254	3264
890.377	3355
890.501	3230
890.624	3226
890.748	3340
890.871	3165
890.995	3112
891.118	3119
891.241	3199
891.364	3264
891.488	3363
891.611	3165
891.734	3211
891.857	3291
891.98	3268
892.103	3344
892.226	3264
892.349	3233
892.471	3138
892.594	3279
892.717	3272
892.839	3283
892.962	3351
893.085	3397
893.207	3355
893.33	3135
893.452	3211
893.575	3363
893.697	3291
893.819	3454
893.941	3507
894.064	3511
894.186	3302
894.308	3291
894.43	3435
894.552	3561
894.674	3511
894.796	3264
894.918	3336
895.04	3298
895.161	3458
895.283	3382
895.405	3294
895.526	3393
895.648	3439
895.769	3435
895.891	3481
896.012	3488
896.134	3504
896.255	3469
896.376	3401
896.498	3378
896.619	3428
896.74	3401
896.861	3409
896.982	3690
897.103	3854
897.224	3606
897.345	3462
897.466	3412
897.587	3500
897.708	3660
897.828	3595
897.949	3469
898.07	3363
898.19	3378
898.311	3644
898.431	3466
898.552	3538
898.672	3591
898.792	3572
898.913	3511
899.033	3435
899.153	3302
899.273	3222
899.393	3294
899.513	3325
899.633	3329
899.753	3359
899.873	3329
899.993	3397
900.113	3363
900.232	3401
900.352	3374
900.472	3310
900.591	3249
900.711	3291
900.83	3260
900.95	3439
901.069	3523
901.189	3348
901.308	3184
901.427	3089
901.546	3199
901.665	3329
901.784	3332
901.904	3222
902.023	3154
902.141	3028
902.26	3024
902.379	3150
902.498	3108
902.617	3104
902.735	3279
902.854	3241
902.973	3184
903.091	3097
903.21	3089
903.328	3157
903.446	3154
903.565	3116
903.683	3192
903.801	3180
903.919	3253
904.038	3283
904.156	3176
904.274	3313
904.392	3272
904.51	3268
904.627	3378
904.745	3435
904.863	3507
904.981	3272
905.098	3176
905.216	3241
905.334	3298
905.451	3340
905.569	3272
905.686	3454
905.803	3439
905.921	3287
906.038	3431
906.155	3416
906.272	3272
906.389	3340
906.506	3237
906.623	3268
906.74	3313
906.857	3169
906.974	3279
907.091	3439
907.208	3614
907.324	3496
907.441	3462
907.557	3222
907.674	3253
907.79	3233
907.907	3287
908.023	3397
908.139	3389
908.256	3329
908.372	3386
908.488	3359
908.604	3268
908.72	3260
908.836	3317
908.952	3283
909.068	3363
909.184	3488
909.3	3428
909.415	3504
909.531	3496
909.647	3275
909.762	3310
909.878	3241
909.993	3370
910.108	3344
910.224	3359
910.339	3359
910.454	3363
910.57	3302
910.685	3264
910.8	3584
910.915	3572
911.03	3416
911.145	3279
911.259	3230
911.374	3317
911.489	3241
911.604	3256
911.718	3138
911.833	3165
911.947	3047
912.062	3017
912.176	3184
912.291	3199
912.405	3199
912.519	3466
912.633	3454
912.748	3363
912.862	3260
912.976	3211
913.09	3077
913.204	3131
913.318	3253
913.431	3336
913.545	3370
913.659	3416
913.772	3336
913.886	3237
914	3195
914.113	3359
914.226	3416
914.34	3374
914.453	3222
914.566	3412
914.68	3275
914.793	3317
914.906	3119
915.019	3142
915.132	3093
915.245	3150
915.358	3249
915.47	3245
915.583	3275
915.696	3272
915.809	3420
915.921	3447
916.034	3260
916.146	3218
916.259	3211
916.371	3382
916.483	3382
916.595	3298
916.708	3332
916.82	3336
916.932	3325
917.044	3336
917.156	3310
917.268	3237
917.38	3287
917.491	3275
917.603	3351
917.715	3469
917.826	3515
917.938	3378
918.049	3298
918.161	3431
918.272	3564
918.384	3599
918.495	3515
918.606	3344
918.717	3275
918.828	3374
918.939	3431
919.05	3332
919.161	3397
919.272	3157
919.383	3344
919.494	3473
919.604	3698
919.715	3481
919.826	3435
919.936	3488
920.047	3572
920.157	3545
920.267	3797
920.378	3606
920.488	3526
920.598	3793
920.708	3941
920.818	3884
920.928	3873
921.038	4067
921.148	4032
921.258	3713
921.368	3644
921.477	3591
921.587	3564
921.697	3488
921.806	3671
921.916	3511
922.025	3363
922.134	3378
922.244	3310
922.353	3450
922.462	3302
922.571	3256
922.68	3146
922.789	3131
922.898	3154
923.007	3142
923.116	3245
923.224	3226
923.333	3241
923.442	3131
923.55	3150
923.659	3192
923.767	3222
923.876	3146
923.984	3287
924.092	3150
924.201	3207
924.309	3291
924.417	3275
924.525	3253
924.633	3264
924.741	4017
924.849	3081
924.956	3306
925.064	3142
925.172	3085
925.279	3180
925.387	3256
925.494	3256
925.602	3412
925.709	3401
925.816	3218
925.924	3359
926.031	3378
926.138	3367
926.245	3389
926.352	3302
926.459	3458
926.566	3534
926.673	3348
926.779	3310
926.886	3306
926.993	3253
927.099	3161
927.206	3173
927.312	3116
927.419	3264
927.525	3260
927.631	3298
927.737	3184
927.843	3188
927.95	3077
928.056	3169
928.162	3230
928.267	3325
928.373	3926
928.479	3367
928.585	3108
928.69	3249
928.796	3298
928.901	3222
929.007	3077
929.112	3298
929.218	3214
929.323	3199
929.428	3237
929.533	3351
929.638	3154
929.743	3203
929.848	3306
929.953	3237
930.058	3233
930.163	3017
930.267	3062
930.372	3253
930.477	3081
930.581	3367
930.685	3188
930.79	3085
930.894	3150
930.998	3150
931.103	3302
931.207	2994
931.311	2990
931.415	2941
931.519	2819
931.623	2819
