Data from test_V78500241_1341.txt Node
Date: Fri Mar 25 16:24:29 CST 2022
User: usil
Spectrometer: V785-0024
Trigger mode: 0
Integration Time (sec): 4.000000E-1
Scans to average: 1
Nonlinearity correction enabled: false
Boxcar width: 0
Storing dark spectrum: false
XAxis mode: Wavelengths
Number of Pixels in Spectrum: 1024
>>>>>Begin Spectral Data<<<<<
801.071	2899
801.214	2922
801.356	2868
801.499	2891
801.641	2883
801.783	2922
801.926	3028
802.068	2960
802.211	2986
802.353	3036
802.496	2967
802.638	3001
802.78	3036
802.923	3097
803.065	2971
803.208	2857
803.35	2914
803.492	2914
803.635	2933
803.777	2724
803.919	2834
804.061	3161
804.204	2937
804.346	2880
804.488	2838
804.63	2979
804.773	2868
804.915	2922
805.057	3097
805.199	2899
805.341	2944
805.483	3013
805.626	3009
805.768	2944
805.91	3104
806.052	3070
806.194	3009
806.336	3214
806.478	3001
806.62	2941
806.762	2998
806.904	3032
807.046	3138
807.188	3001
807.33	2899
807.472	2952
807.614	2887
807.756	2944
807.898	2887
808.04	2880
808.182	2918
808.324	2948
808.465	2864
808.607	2876
808.749	2739
808.891	2849
809.033	2960
809.174	2933
809.316	2861
809.458	2899
809.6	2720
809.741	2766
809.883	2792
810.025	2834
810.166	2819
810.308	2826
810.45	2849
810.591	2766
810.733	2739
810.875	2811
811.016	2773
811.158	2754
811.299	2800
811.441	2952
811.582	2880
811.724	2811
811.865	2804
812.007	2887
812.148	2861
812.29	2842
812.431	2876
812.573	2944
812.714	2937
812.855	3028
812.997	3043
813.138	3112
813.279	3005
813.421	2986
813.562	2929
813.703	2857
813.845	2876
813.986	2762
814.127	2705
814.268	2811
814.41	2819
814.551	2823
814.692	2864
814.833	2800
814.974	2880
815.115	2925
815.256	2796
815.397	2823
815.539	2842
815.68	2758
815.821	2788
815.962	2952
816.103	2883
816.244	2872
816.385	2834
816.526	2937
816.666	2918
816.807	2754
816.948	2845
817.089	2876
817.23	2876
817.371	2766
817.512	2807
817.653	2819
817.793	2819
817.934	2857
818.075	2922
818.216	2975
818.356	2998
818.497	2887
818.638	2762
818.778	2849
818.919	2788
819.06	2750
819.2	2872
819.341	2792
819.481	2815
819.622	2902
819.762	3081
819.903	3028
820.043	2929
820.184	2864
820.324	2853
820.465	3001
820.605	3009
820.746	3017
820.886	2906
821.026	3062
821.167	3142
821.307	3233
821.447	3245
821.588	3203
821.728	3249
821.868	3169
822.008	3135
822.149	3154
822.289	3214
822.429	3024
822.569	3070
822.709	3150
822.849	3028
822.99	3055
823.13	3112
823.27	3192
823.41	3093
823.55	3150
823.69	3131
823.83	3188
823.97	3123
824.11	2971
824.25	2986
824.389	3066
824.529	3112
824.669	3013
824.809	3176
824.949	3260
825.089	3218
825.228	3157
825.368	2952
825.508	2948
825.648	2937
825.787	2994
825.927	2982
826.067	2975
826.206	2960
826.346	3036
826.485	3039
826.625	3108
826.765	3226
826.904	3218
827.044	2960
827.183	2925
827.323	2830
827.462	2994
827.601	2952
827.741	2933
827.88	2948
828.02	2834
828.159	2967
828.298	3024
828.437	3085
828.577	3051
828.716	3226
828.855	3104
828.994	2906
829.134	2872
829.273	2902
829.412	2845
829.551	2861
829.69	2861
829.829	2952
829.968	3108
830.107	3024
830.246	2986
830.385	2914
830.524	2853
830.663	2819
830.802	2705
830.941	2606
831.08	2651
831.219	2735
831.357	2716
831.496	2937
831.635	2705
831.774	2625
831.913	2670
832.051	2522
832.19	2579
832.329	2697
832.467	2503
832.606	2476
832.744	2575
832.883	2579
833.022	2571
833.16	2648
833.299	2644
833.437	2667
833.576	2678
833.714	2712
833.852	2708
833.991	2766
834.129	2819
834.267	2864
834.406	2781
834.544	2830
834.682	2842
834.821	2842
834.959	3074
835.097	2861
835.235	3039
835.373	2979
835.511	2979
835.65	2952
835.788	2944
835.926	2853
836.064	2800
836.202	2830
836.34	3085
836.478	3127
836.615	3032
836.753	3123
836.891	3176
837.029	3127
837.167	3097
837.305	3077
837.443	3047
837.58	2979
837.718	3108
837.856	3074
837.993	3005
838.131	3100
838.269	3127
838.406	3089
838.544	3070
838.681	2948
838.819	2918
838.956	2781
839.094	2830
839.231	2895
839.369	3017
839.506	3393
839.643	3222
839.781	3024
839.918	2952
840.055	3036
840.193	3001
840.33	3066
840.467	3051
840.604	3089
840.742	3386
840.879	3043
841.016	3036
841.153	3085
841.29	3294
841.427	3291
841.564	3249
841.701	3317
841.838	3195
841.975	3176
842.112	3173
842.249	3051
842.385	3032
842.522	3268
842.659	3055
842.796	3062
842.933	3058
843.069	2979
843.206	2998
843.343	3157
843.479	3051
843.616	3093
843.752	2895
843.889	2864
844.025	3081
844.162	2857
844.298	3036
844.435	2925
844.571	2880
844.708	3081
844.844	3165
844.98	3180
845.117	3146
845.253	3051
845.389	2956
845.525	3043
845.661	3093
845.798	3013
845.934	3051
846.07	3028
846.206	3222
846.342	3306
846.478	3222
846.614	3089
846.75	3036
846.886	3017
847.022	3207
847.158	3093
847.294	3176
847.429	3279
847.565	3184
847.701	3473
847.837	3009
847.972	2982
848.108	3184
848.244	3135
848.379	2986
848.515	2956
848.65	2967
848.786	2960
848.921	3009
849.057	3085
849.192	3123
849.328	3081
849.463	3070
849.598	3058
849.734	3051
849.869	3009
850.004	2918
850.14	2994
850.275	2944
850.41	2804
850.545	2861
850.68	2948
850.815	2956
850.95	2979
851.085	3199
851.22	3123
851.355	3032
851.49	2975
851.625	3024
851.76	3039
851.895	2994
852.03	2944
852.165	3062
852.299	3104
852.434	3211
852.569	3192
852.703	3203
852.838	3268
852.973	3336
853.107	3355
853.242	3173
853.376	3127
853.511	3062
853.645	3032
853.78	3272
853.914	3211
854.048	3112
854.183	3119
854.317	3199
854.451	3298
854.585	3146
854.72	3119
854.854	3207
854.988	3116
855.122	3135
855.256	3020
855.39	3150
855.524	3233
855.658	3222
855.792	3214
855.926	3222
856.06	3241
856.194	3294
856.327	3207
856.461	3127
856.595	3142
856.729	3112
856.862	3256
856.996	3184
857.13	3249
857.263	3275
857.397	3321
857.53	3169
857.664	3188
857.797	3294
857.931	3275
858.064	3192
858.197	3268
858.331	3157
858.464	3135
858.597	3043
858.731	3142
858.864	3165
858.997	3108
859.13	3173
859.263	3188
859.396	3203
859.529	3138
859.662	3131
859.795	3051
859.928	3161
860.061	3287
860.194	3344
860.327	3161
860.46	3131
860.592	3279
860.725	3302
860.858	3294
860.99	3146
861.123	3085
861.256	3100
861.388	3157
861.521	3755
861.653	3039
861.786	3001
861.918	3043
862.05	3142
862.183	3104
862.315	3165
862.447	3218
862.58	3108
862.712	2948
862.844	2883
862.976	3058
863.108	3017
863.24	3401
863.372	2910
863.504	2990
863.636	3005
863.768	3039
863.9	3001
864.032	2948
864.164	2960
864.296	3024
864.428	3089
864.559	3089
864.691	3081
864.823	3085
864.954	3036
865.086	3062
865.217	3024
865.349	2979
865.48	3047
865.612	3017
865.743	3169
865.875	3039
866.006	2952
866.137	3017
866.269	3009
866.4	2979
866.531	2975
866.662	2910
866.793	2914
866.924	2925
867.055	3013
867.186	2979
867.317	2925
867.448	2864
867.579	2857
867.71	2853
867.841	2853
867.972	2922
868.103	2922
868.233	2937
868.364	2891
868.495	2941
868.625	3146
868.756	3173
868.886	2975
869.017	3062
869.147	3199
869.278	3207
869.408	3081
869.539	3070
869.669	3093
869.799	3089
869.929	3195
870.06	3157
870.19	3355
870.32	3291
870.45	3294
870.58	3409
870.71	3481
870.84	3447
870.97	3317
871.1	3294
871.23	3515
871.36	3477
871.489	3336
871.619	3496
871.749	3412
871.879	3466
872.008	3507
872.138	3367
872.267	3336
872.397	3142
872.526	3146
872.656	3047
872.785	3142
872.915	3268
873.044	3359
873.173	3230
873.303	3260
873.432	3287
873.561	3283
873.69	3203
873.819	3207
873.948	3222
874.077	3131
874.206	3039
874.335	3108
874.464	3207
874.593	3378
874.722	3275
874.851	3397
874.979	3351
875.108	3329
875.237	3199
875.365	3188
875.494	3199
875.623	3287
875.751	3055
875.88	3150
876.008	3199
876.136	3245
876.265	3412
876.393	3538
876.521	3435
876.65	3389
876.778	3393
876.906	3283
877.034	3199
877.162	3287
877.29	3256
877.418	3287
877.546	3279
877.674	3275
877.802	3272
877.93	3249
878.058	3154
878.185	3150
878.313	3256
878.441	3245
878.568	3085
878.696	3142
878.824	3260
878.951	3325
879.079	3481
879.206	3637
879.333	3469
879.461	3363
879.588	3386
879.715	3526
879.842	3595
879.97	3397
880.097	3180
880.224	3154
880.351	3233
880.478	3241
880.605	3245
880.732	3245
880.859	3530
880.986	3317
881.112	3298
881.239	3230
881.366	3077
881.493	3093
881.619	3032
881.746	3077
881.872	3108
881.999	3131
882.125	3192
882.252	3283
882.378	3336
882.505	3435
882.631	3279
882.757	3211
882.883	3230
883.01	3233
883.136	3192
883.262	3104
883.388	3169
883.514	3348
883.64	3340
883.766	3344
883.892	3230
884.018	3268
884.143	3397
884.269	3584
884.395	3218
884.52	3180
884.646	3169
884.772	3123
884.897	3146
885.023	3253
885.148	3382
885.274	3447
885.399	3382
885.524	3283
885.65	3249
885.775	3344
885.9	3317
886.025	3435
886.15	3374
886.275	3298
886.4	3264
886.525	3302
886.65	3272
886.775	3317
886.9	3553
887.025	3629
887.149	3424
887.274	3275
887.399	3226
887.523	3233
887.648	3195
887.773	3230
887.897	3401
888.021	3431
888.146	3351
888.27	3450
888.395	3561
888.519	3466
888.643	3435
888.767	3488
888.891	3332
889.015	3272
889.139	3283
889.263	3275
889.387	3458
889.511	3511
889.635	3504
889.759	3272
889.883	3340
890.006	3431
890.13	3538
890.254	3291
890.377	3363
890.501	3211
890.624	3195
890.748	3332
890.871	3188
890.995	3119
891.118	3058
891.241	3226
891.364	3256
891.488	3325
891.611	3222
891.734	3222
891.857	3275
891.98	3237
892.103	3355
892.226	3294
892.349	3272
892.471	3131
892.594	3237
892.717	3298
892.839	3253
892.962	3272
893.085	3386
893.207	3317
893.33	3154
893.452	3184
893.575	3405
893.697	3264
893.819	3454
893.941	3561
894.064	3424
894.186	3287
894.308	3268
894.43	3439
894.552	3534
894.674	3443
894.796	3272
894.918	3317
895.04	3325
895.161	3435
895.283	3462
895.405	3306
895.526	3397
895.648	3420
895.769	3462
895.891	3454
896.012	3500
896.134	3496
896.255	3420
896.376	3439
896.498	3393
896.619	3496
896.74	3370
896.861	3428
896.982	3709
897.103	3857
897.224	3603
897.345	3519
897.466	3447
897.587	3534
897.708	3622
897.828	3545
897.949	3458
898.07	3325
898.19	3443
898.311	3610
898.431	3466
898.552	3523
898.672	3606
898.792	3606
898.913	3572
899.033	3469
899.153	3313
899.273	3230
899.393	3275
899.513	3310
899.633	3344
899.753	3363
899.873	3321
899.993	3397
900.113	3329
900.232	3393
900.352	3351
900.472	3340
900.591	3203
900.711	3291
900.83	3275
900.95	3409
901.069	3515
901.189	3378
901.308	3203
901.427	3142
901.546	3176
901.665	3279
901.784	3382
901.904	3195
902.023	3161
902.141	3051
902.26	3028
902.379	3135
902.498	3131
902.617	3055
902.735	3218
902.854	3253
902.973	3165
903.091	3081
903.21	3146
903.328	3142
903.446	3108
903.565	3108
903.683	3192
903.801	3146
903.919	3279
904.038	3313
904.156	3211
904.274	3306
904.392	3275
904.51	3291
904.627	3382
904.745	3462
904.863	3439
904.981	3256
905.098	3203
905.216	3260
905.334	3283
905.451	3344
905.569	3298
905.686	3435
905.803	3469
905.921	3310
906.038	3431
906.155	3351
906.272	3291
906.389	3351
906.506	3241
906.623	3294
906.74	3249
906.857	3233
906.974	3272
907.091	3473
907.208	3553
907.324	3519
907.441	3370
907.557	3272
907.674	3268
907.79	3241
907.907	3306
908.023	3389
908.139	3348
908.256	3306
908.372	3382
908.488	3336
908.604	3275
908.72	3237
908.836	3310
908.952	3287
909.068	3363
909.184	3485
909.3	3424
909.415	3534
909.531	3458
909.647	3287
909.762	3294
909.878	3237
909.993	3363
910.108	3367
910.224	3325
910.339	3393
910.454	3351
910.57	3302
910.685	3268
910.8	3584
910.915	3564
911.03	3458
911.145	3283
911.259	3272
911.374	3332
911.489	3233
911.604	3245
911.718	3142
911.833	3169
911.947	3036
912.062	2986
912.176	3184
912.291	3203
912.405	3165
912.519	3443
912.633	3504
912.748	3321
912.862	3298
912.976	3173
913.09	3043
913.204	3123
913.318	3211
913.431	3359
913.545	3378
913.659	3424
913.772	3321
913.886	3249
914	3230
914.113	3351
914.226	3370
914.34	3374
914.453	3203
914.566	3420
914.68	3260
914.793	3275
914.906	3112
915.019	3123
915.132	3062
915.245	3192
915.358	3203
915.47	3226
915.583	3283
915.696	3268
915.809	3439
915.921	3420
916.034	3275
916.146	3279
916.259	3245
916.371	3405
916.483	3401
916.595	3253
916.708	3332
916.82	3336
916.932	3359
917.044	3367
917.156	3382
917.268	3268
917.38	3332
917.491	3313
917.603	3389
917.715	3519
917.826	3488
917.938	3424
918.049	3279
918.161	3443
918.272	3644
918.384	3610
918.495	3545
918.606	3351
918.717	3306
918.828	3412
918.939	3473
919.05	3363
919.161	3443
919.272	3203
919.383	3325
919.494	3534
919.604	3743
919.715	3534
919.826	3431
919.936	3496
920.047	3667
920.157	3568
920.267	3800
920.378	3637
920.488	3644
920.598	3831
920.708	3972
920.818	3896
920.928	3876
921.038	4090
921.148	4036
921.258	3740
921.368	3686
921.477	3599
921.587	3599
921.697	3507
921.806	3656
921.916	3580
922.025	3389
922.134	3397
922.244	3374
922.353	3435
922.462	3329
922.571	3287
922.68	3146
922.789	3138
922.898	3135
923.007	3131
923.116	3253
923.224	3211
923.333	3203
923.442	3173
923.55	3138
923.659	3195
923.767	3279
923.876	3180
923.984	3260
924.092	3146
924.201	3241
924.309	3260
924.417	3275
924.525	3237
924.633	3256
924.741	4032
924.849	3108
924.956	3310
925.064	3146
925.172	3055
925.279	3138
925.387	3237
925.494	3249
925.602	3401
925.709	3367
925.816	3230
925.924	3348
926.031	3450
926.138	3351
926.245	3382
926.352	3291
926.459	3443
926.566	3504
926.673	3325
926.779	3260
926.886	3287
926.993	3192
927.099	3131
927.206	3146
927.312	3142
927.419	3264
927.525	3272
927.631	3325
927.737	3211
927.843	3161
927.95	3074
928.056	3195
928.162	3203
928.267	3298
928.373	3911
928.479	3332
928.585	3104
928.69	3272
928.796	3325
928.901	3195
929.007	3077
929.112	3264
929.218	3214
929.323	3192
929.428	3199
929.533	3348
929.638	3104
929.743	3214
929.848	3272
929.953	3245
930.058	3192
930.163	3024
930.267	3104
930.372	3268
930.477	3070
930.581	3370
930.685	3207
930.79	3074
930.894	3195
930.998	3157
931.103	3287
931.207	3024
931.311	2937
931.415	2948
931.519	2796
931.623	2838
