Data from test_V78500241_1160.txt Node
Date: Fri Mar 25 16:23:14 CST 2022
User: usil
Spectrometer: V785-0024
Trigger mode: 0
Integration Time (sec): 4.000000E-1
Scans to average: 1
Nonlinearity correction enabled: false
Boxcar width: 0
Storing dark spectrum: false
XAxis mode: Wavelengths
Number of Pixels in Spectrum: 1024
>>>>>Begin Spectral Data<<<<<
801.071	2872
801.214	2941
801.356	2849
801.499	2887
801.641	2864
801.783	2887
801.926	3036
802.068	2975
802.211	2998
802.353	2998
802.496	2933
802.638	3001
802.78	3051
802.923	3112
803.065	2990
803.208	2899
803.35	2891
803.492	2925
803.635	2914
803.777	2766
803.919	2876
804.061	3176
804.204	2952
804.346	2891
804.488	2899
804.63	2937
804.773	2876
804.915	2895
805.057	3062
805.199	2906
805.341	2952
805.483	3058
805.626	3032
805.768	2872
805.91	3119
806.052	3093
806.194	3017
806.336	3211
806.478	3036
806.62	2925
806.762	2941
806.904	3024
807.046	3173
807.188	2971
807.33	2891
807.472	2967
807.614	2864
807.756	2979
807.898	2914
808.04	2914
808.182	2971
808.324	2952
808.465	2861
808.607	2861
808.749	2754
808.891	2823
809.033	2944
809.174	2971
809.316	2922
809.458	2876
809.6	2758
809.741	2773
809.883	2754
810.025	2804
810.166	2796
810.308	2807
810.45	2849
810.591	2769
810.733	2769
810.875	2823
811.016	2750
811.158	2792
811.299	2800
811.441	2937
811.582	2895
811.724	2811
811.865	2807
812.007	2895
812.148	2864
812.29	2857
812.431	2849
812.573	2929
812.714	2963
812.855	3058
812.997	3047
813.138	3089
813.279	3028
813.421	2982
813.562	2941
813.703	2880
813.845	2842
813.986	2777
814.127	2712
814.268	2823
814.41	2826
814.551	2800
814.692	2842
814.833	2864
814.974	2887
815.115	2941
815.256	2804
815.397	2796
815.539	2830
815.68	2735
815.821	2785
815.962	2941
816.103	2895
816.244	2864
816.385	2880
816.526	2967
816.666	2876
816.807	2735
816.948	2857
817.089	2914
817.23	2838
817.371	2796
817.512	2773
817.653	2826
817.793	2819
817.934	2876
818.075	2967
818.216	2952
818.356	3005
818.497	2842
818.638	2766
818.778	2834
818.919	2777
819.06	2769
819.2	2880
819.341	2792
819.481	2796
819.622	2891
819.762	3074
819.903	3017
820.043	2929
820.184	2887
820.324	2929
820.465	2994
820.605	3013
820.746	3001
820.886	2914
821.026	3066
821.167	3173
821.307	3272
821.447	3321
821.588	3226
821.728	3173
821.868	3192
822.008	3036
822.149	3218
822.289	3199
822.429	3100
822.569	3093
822.709	3173
822.849	3024
822.99	3066
823.13	3127
823.27	3173
823.41	3100
823.55	3157
823.69	3188
823.83	3207
823.97	3089
824.11	3024
824.25	3001
824.389	3070
824.529	3085
824.669	3047
824.809	3176
824.949	3226
825.089	3218
825.228	3192
825.368	2998
825.508	2941
825.648	2963
825.787	2994
825.927	3024
826.067	2990
826.206	2979
826.346	3066
826.485	3036
826.625	3108
826.765	3249
826.904	3203
827.044	3005
827.183	2952
827.323	2823
827.462	2948
827.601	2948
827.741	2941
827.88	2960
828.02	2815
828.159	2952
828.298	3058
828.437	3112
828.577	3039
828.716	3245
828.855	3051
828.994	2883
829.134	2918
829.273	2902
829.412	2849
829.551	2823
829.69	2849
829.829	2994
829.968	3104
830.107	3020
830.246	2986
830.385	2899
830.524	2857
830.663	2796
830.802	2727
830.941	2648
831.08	2632
831.219	2731
831.357	2743
831.496	2910
831.635	2720
831.774	2640
831.913	2674
832.051	2499
832.19	2568
832.329	2674
832.467	2530
832.606	2492
832.744	2526
832.883	2564
833.022	2575
833.16	2617
833.299	2667
833.437	2693
833.576	2689
833.714	2678
833.852	2724
833.991	2758
834.129	2838
834.267	2766
834.406	2758
834.544	2864
834.682	2838
834.821	2853
834.959	3024
835.097	2937
835.235	3074
835.373	2979
835.511	3017
835.65	2933
835.788	2922
835.926	2781
836.064	2804
836.202	2853
836.34	3077
836.478	3142
836.615	3058
836.753	3112
836.891	3211
837.029	3165
837.167	3070
837.305	3024
837.443	3032
837.58	2986
837.718	3100
837.856	3043
837.993	3005
838.131	3104
838.269	3066
838.406	3039
838.544	3097
838.681	2918
838.819	2914
838.956	2796
839.094	2785
839.231	2929
839.369	2986
839.506	3359
839.643	3222
839.781	3017
839.918	2971
840.055	3066
840.193	3032
840.33	3055
840.467	3074
840.604	3100
840.742	3378
840.879	3036
841.016	3043
841.153	3108
841.29	3317
841.427	3260
841.564	3264
841.701	3329
841.838	3230
841.975	3169
842.112	3192
842.249	3062
842.385	3009
842.522	3218
842.659	3077
842.796	3017
842.933	3104
843.069	3036
843.206	3043
843.343	3169
843.479	3058
843.616	3119
843.752	2849
843.889	2857
844.025	3081
844.162	2811
844.298	3081
844.435	2956
844.571	2910
844.708	3100
844.844	3146
844.98	3226
845.117	3142
845.253	3036
845.389	2990
845.525	3119
845.661	3100
845.798	3009
845.934	3119
846.07	3001
846.206	3214
846.342	3256
846.478	3218
846.614	3058
846.75	3047
846.886	3024
847.022	3184
847.158	3146
847.294	3173
847.429	3233
847.565	3192
847.701	3492
847.837	3024
847.972	3009
848.108	3138
848.244	3108
848.379	2952
848.515	2937
848.65	2906
848.786	2933
848.921	2982
849.057	3085
849.192	3165
849.328	3028
849.463	3085
849.598	3036
849.734	3036
849.869	2944
850.004	2861
850.14	2967
850.275	2910
850.41	2842
850.545	2838
850.68	2941
850.815	2937
850.95	2960
851.085	3176
851.22	3066
851.355	3028
851.49	2967
851.625	3001
851.76	3032
851.895	2918
852.03	2910
852.165	3017
852.299	3127
852.434	3203
852.569	3112
852.703	3180
852.838	3245
852.973	3329
853.107	3344
853.242	3184
853.376	3123
853.511	2963
853.645	3047
853.78	3230
853.914	3108
854.048	3131
854.183	3093
854.317	3176
854.451	3321
854.585	3150
854.72	3104
854.854	3230
854.988	3077
855.122	3081
855.256	3001
855.39	3138
855.524	3279
855.658	3184
855.792	3165
855.926	3226
856.06	3226
856.194	3340
856.327	3165
856.461	3108
856.595	3093
856.729	3100
856.862	3249
856.996	3207
857.13	3237
857.263	3237
857.397	3321
857.53	3165
857.664	3218
857.797	3253
857.931	3283
858.064	3192
858.197	3253
858.331	3161
858.464	3100
858.597	3093
858.731	3184
858.864	3180
858.997	3112
859.13	3184
859.263	3180
859.396	3226
859.529	3169
859.662	3119
859.795	3100
859.928	3150
860.061	3294
860.194	3348
860.327	3142
860.46	3116
860.592	3256
860.725	3287
860.858	3310
860.99	3112
861.123	3138
861.256	3085
861.388	3169
861.521	3717
861.653	3017
861.786	3024
861.918	3013
862.05	3039
862.183	3100
862.315	3180
862.447	3233
862.58	3154
862.712	2975
862.844	2922
862.976	3039
863.108	3058
863.24	3348
863.372	2899
863.504	3001
863.636	3009
863.768	3032
863.9	2975
864.032	2914
864.164	2990
864.296	3085
864.428	3093
864.559	3188
864.691	3104
864.823	3074
864.954	3032
865.086	3081
865.217	3032
865.349	2975
865.48	3024
865.612	3036
865.743	3165
865.875	3028
866.006	3005
866.137	2990
866.269	2982
866.4	2960
866.531	2948
866.662	2952
866.793	2902
866.924	2925
867.055	3017
867.186	2929
867.317	2880
867.448	2876
867.579	2883
867.71	2895
867.841	2857
867.972	2914
868.103	2899
868.233	2906
868.364	2891
868.495	2902
868.625	3081
868.756	3180
868.886	2998
869.017	3066
869.147	3184
869.278	3211
869.408	3081
869.539	3028
869.669	3154
869.799	3062
869.929	3169
870.06	3119
870.19	3321
870.32	3325
870.45	3321
870.58	3393
870.71	3485
870.84	3492
870.97	3275
871.1	3268
871.23	3515
871.36	3504
871.489	3386
871.619	3450
871.749	3428
871.879	3443
872.008	3515
872.138	3386
872.267	3306
872.397	3135
872.526	3112
872.656	3051
872.785	3123
872.915	3245
873.044	3332
873.173	3237
873.303	3298
873.432	3249
873.561	3249
873.69	3146
873.819	3180
873.948	3237
874.077	3138
874.206	3066
874.335	3108
874.464	3233
874.593	3336
874.722	3264
874.851	3443
874.979	3374
875.108	3317
875.237	3230
875.365	3218
875.494	3188
875.623	3245
875.751	3093
875.88	3119
876.008	3211
876.136	3226
876.265	3401
876.393	3526
876.521	3431
876.65	3409
876.778	3359
876.906	3268
877.034	3233
877.162	3249
877.29	3218
877.418	3298
877.546	3275
877.674	3253
877.802	3233
877.93	3253
878.058	3138
878.185	3127
878.313	3218
878.441	3233
878.568	3089
878.696	3184
878.824	3294
878.951	3310
879.079	3466
879.206	3694
879.333	3435
879.461	3382
879.588	3412
879.715	3485
879.842	3591
879.97	3370
880.097	3173
880.224	3157
880.351	3230
880.478	3256
880.605	3291
880.732	3222
880.859	3538
880.986	3306
881.112	3386
881.239	3214
881.366	3150
881.493	3116
881.619	3039
881.746	3119
881.872	3108
881.999	3157
882.125	3199
882.252	3260
882.378	3325
882.505	3420
882.631	3317
882.757	3192
882.883	3256
883.01	3230
883.136	3161
883.262	3108
883.388	3119
883.514	3329
883.64	3367
883.766	3325
883.892	3184
884.018	3279
884.143	3389
884.269	3526
884.395	3195
884.52	3233
884.646	3226
884.772	3161
884.897	3135
885.023	3222
885.148	3355
885.274	3431
885.399	3412
885.524	3287
885.65	3268
885.775	3332
885.9	3325
886.025	3443
886.15	3378
886.275	3298
886.4	3279
886.525	3294
886.65	3321
886.775	3230
886.9	3500
887.025	3637
887.149	3450
887.274	3264
887.399	3203
887.523	3222
887.648	3161
887.773	3203
887.897	3393
888.021	3412
888.146	3329
888.27	3496
888.395	3553
888.519	3447
888.643	3466
888.767	3534
888.891	3359
889.015	3264
889.139	3321
889.263	3283
889.387	3435
889.511	3534
889.635	3473
889.759	3298
889.883	3332
890.006	3409
890.13	3519
890.254	3287
890.377	3336
890.501	3195
890.624	3203
890.748	3332
890.871	3188
890.995	3104
891.118	3081
891.241	3245
891.364	3203
891.488	3336
891.611	3184
891.734	3222
891.857	3279
891.98	3272
892.103	3340
892.226	3317
892.349	3264
892.471	3142
892.594	3283
892.717	3317
892.839	3268
892.962	3336
893.085	3386
893.207	3325
893.33	3157
893.452	3256
893.575	3340
893.697	3294
893.819	3469
893.941	3549
894.064	3450
894.186	3272
894.308	3291
894.43	3469
894.552	3568
894.674	3458
894.796	3310
894.918	3359
895.04	3287
895.161	3439
895.283	3382
895.405	3332
895.526	3378
895.648	3428
895.769	3409
895.891	3462
896.012	3477
896.134	3481
896.255	3416
896.376	3405
896.498	3374
896.619	3439
896.74	3397
896.861	3409
896.982	3698
897.103	3827
897.224	3629
897.345	3507
897.466	3443
897.587	3542
897.708	3656
897.828	3610
897.949	3481
898.07	3367
898.19	3393
898.311	3599
898.431	3477
898.552	3553
898.672	3625
898.792	3587
898.913	3530
899.033	3454
899.153	3313
899.273	3199
899.393	3310
899.513	3359
899.633	3325
899.753	3367
899.873	3313
899.993	3409
900.113	3351
900.232	3412
900.352	3374
900.472	3279
900.591	3203
900.711	3310
900.83	3256
900.95	3431
901.069	3523
901.189	3409
901.308	3192
901.427	3150
901.546	3203
901.665	3313
901.784	3348
901.904	3256
902.023	3161
902.141	3066
902.26	3028
902.379	3146
902.498	3100
902.617	3085
902.735	3211
902.854	3264
902.973	3214
903.091	3070
903.21	3070
903.328	3176
903.446	3135
903.565	3112
903.683	3226
903.801	3192
903.919	3241
904.038	3310
904.156	3173
904.274	3268
904.392	3283
904.51	3317
904.627	3348
904.745	3431
904.863	3477
904.981	3283
905.098	3173
905.216	3226
905.334	3310
905.451	3348
905.569	3321
905.686	3397
905.803	3454
905.921	3291
906.038	3466
906.155	3370
906.272	3306
906.389	3370
906.506	3233
906.623	3245
906.74	3268
906.857	3188
906.974	3272
907.091	3477
907.208	3576
907.324	3519
907.441	3405
907.557	3230
907.674	3237
907.79	3249
907.907	3306
908.023	3386
908.139	3416
908.256	3325
908.372	3401
908.488	3370
908.604	3233
908.72	3260
908.836	3275
908.952	3283
909.068	3370
909.184	3500
909.3	3405
909.415	3496
909.531	3504
909.647	3298
909.762	3313
909.878	3279
909.993	3393
910.108	3348
910.224	3363
910.339	3401
910.454	3393
910.57	3294
910.685	3275
910.8	3595
910.915	3545
911.03	3439
911.145	3264
911.259	3306
911.374	3317
911.489	3268
911.604	3230
911.718	3142
911.833	3203
911.947	3077
912.062	2960
912.176	3165
912.291	3203
912.405	3241
912.519	3416
912.633	3504
912.748	3332
912.862	3268
912.976	3157
913.09	3077
913.204	3150
913.318	3272
913.431	3310
913.545	3355
913.659	3386
913.772	3340
913.886	3230
914	3233
914.113	3355
914.226	3424
914.34	3363
914.453	3207
914.566	3401
914.68	3321
914.793	3332
914.906	3165
915.019	3108
915.132	3051
915.245	3195
915.358	3195
915.47	3237
915.583	3294
915.696	3272
915.809	3428
915.921	3454
916.034	3291
916.146	3294
916.259	3214
916.371	3409
916.483	3370
916.595	3264
916.708	3370
916.82	3344
916.932	3374
917.044	3359
917.156	3344
917.268	3298
917.38	3272
917.491	3306
917.603	3363
917.715	3458
917.826	3473
917.938	3393
918.049	3275
918.161	3431
918.272	3549
918.384	3580
918.495	3504
918.606	3302
918.717	3260
918.828	3378
918.939	3424
919.05	3302
919.161	3370
919.272	3176
919.383	3306
919.494	3542
919.604	3675
919.715	3466
919.826	3473
919.936	3428
920.047	3553
920.157	3557
920.267	3732
920.378	3614
920.488	3591
920.598	3827
920.708	3960
920.818	3842
920.928	3835
921.038	3998
921.148	3987
921.258	3747
921.368	3622
921.477	3576
921.587	3561
921.697	3526
921.806	3660
921.916	3545
922.025	3416
922.134	3378
922.244	3359
922.353	3450
922.462	3306
922.571	3260
922.68	3173
922.789	3119
922.898	3161
923.007	3131
923.116	3233
923.224	3211
923.333	3249
923.442	3142
923.55	3131
923.659	3138
923.767	3275
923.876	3157
923.984	3302
924.092	3138
924.201	3253
924.309	3249
924.417	3325
924.525	3253
924.633	3253
924.741	4059
924.849	3157
924.956	3298
925.064	3157
925.172	3081
925.279	3131
925.387	3226
925.494	3245
925.602	3424
925.709	3382
925.816	3268
925.924	3294
926.031	3435
926.138	3355
926.245	3416
926.352	3272
926.459	3485
926.566	3530
926.673	3359
926.779	3298
926.886	3294
926.993	3195
927.099	3176
927.206	3176
927.312	3142
927.419	3291
927.525	3237
927.631	3313
927.737	3176
927.843	3161
927.95	3047
928.056	3165
928.162	3233
928.267	3340
928.373	3903
928.479	3355
928.585	3093
928.69	3291
928.796	3279
928.901	3188
929.007	3081
929.112	3226
929.218	3207
929.323	3203
929.428	3169
929.533	3344
929.638	3207
929.743	3176
929.848	3298
929.953	3241
930.058	3195
930.163	3085
930.267	3051
930.372	3230
930.477	3058
930.581	3351
930.685	3188
930.79	3119
930.894	3146
930.998	3127
931.103	3355
931.207	2998
931.311	2986
931.415	2990
931.519	2826
931.623	2857
