Data from test_V78500241_2046.txt Node
Date: Fri Mar 25 16:29:22 CST 2022
User: usil
Spectrometer: V785-0024
Trigger mode: 0
Integration Time (sec): 4.000000E-1
Scans to average: 1
Nonlinearity correction enabled: false
Boxcar width: 0
Storing dark spectrum: false
XAxis mode: Wavelengths
Number of Pixels in Spectrum: 1024
>>>>>Begin Spectral Data<<<<<
801.071	2883
801.214	2944
801.356	2849
801.499	2899
801.641	2883
801.783	2941
801.926	3070
802.068	2960
802.211	3013
802.353	3036
802.496	2941
802.638	3013
802.78	3020
802.923	3062
803.065	2971
803.208	2880
803.35	2914
803.492	2906
803.635	2914
803.777	2724
803.919	2845
804.061	3230
804.204	2960
804.346	2914
804.488	2788
804.63	2933
804.773	2914
804.915	2883
805.057	3070
805.199	2918
805.341	2910
805.483	3009
805.626	2979
805.768	2944
805.91	3058
806.052	3138
806.194	3005
806.336	3188
806.478	2975
806.62	2952
806.762	2963
806.904	3032
807.046	3154
807.188	3001
807.33	2914
807.472	2937
807.614	2929
807.756	2982
807.898	2937
808.04	2910
808.182	2925
808.324	2948
808.465	2902
808.607	2876
808.749	2788
808.891	2819
809.033	2979
809.174	3005
809.316	2891
809.458	2880
809.6	2773
809.741	2743
809.883	2777
810.025	2826
810.166	2838
810.308	2788
810.45	2857
810.591	2758
810.733	2769
810.875	2804
811.016	2807
811.158	2743
811.299	2807
811.441	2922
811.582	2902
811.724	2815
811.865	2838
812.007	2918
812.148	2929
812.29	2876
812.431	2906
812.573	2929
812.714	2986
812.855	3032
812.997	3036
813.138	3150
813.279	3009
813.421	2994
813.562	2929
813.703	2883
813.845	2891
813.986	2762
814.127	2743
814.268	2811
814.41	2811
814.551	2796
814.692	2857
814.833	2834
814.974	2891
815.115	2994
815.256	2845
815.397	2800
815.539	2826
815.68	2785
815.821	2792
815.962	2948
816.103	2941
816.244	2868
816.385	2849
816.526	2982
816.666	2868
816.807	2731
816.948	2887
817.089	2902
817.23	2845
817.371	2758
817.512	2773
817.653	2868
817.793	2834
817.934	2876
818.075	2960
818.216	3028
818.356	3043
818.497	2826
818.638	2781
818.778	2842
818.919	2807
819.06	2766
819.2	2826
819.341	2807
819.481	2796
819.622	2963
819.762	3089
819.903	3017
820.043	2914
820.184	2914
820.324	2872
820.465	3001
820.605	2994
820.746	3009
820.886	2941
821.026	3104
821.167	3127
821.307	3253
821.447	3302
821.588	3214
821.728	3188
821.868	3180
822.008	3081
822.149	3195
822.289	3180
822.429	3108
822.569	3074
822.709	3138
822.849	3024
822.99	3051
823.13	3195
823.27	3233
823.41	3157
823.55	3142
823.69	3097
823.83	3199
823.97	3116
824.11	3013
824.25	2998
824.389	3062
824.529	3047
824.669	3066
824.809	3188
824.949	3272
825.089	3233
825.228	3169
825.368	3009
825.508	2967
825.648	2952
825.787	3001
825.927	3013
826.067	3009
826.206	2929
826.346	3036
826.485	3100
826.625	3093
826.765	3245
826.904	3165
827.044	2979
827.183	2925
827.323	2864
827.462	2975
827.601	2910
827.741	2925
827.88	2933
828.02	2819
828.159	2941
828.298	3039
828.437	3108
828.577	3005
828.716	3237
828.855	3070
828.994	2906
829.134	2891
829.273	2899
829.412	2861
829.551	2883
829.69	2906
829.829	3001
829.968	3123
830.107	3017
830.246	3009
830.385	2944
830.524	2853
830.663	2777
830.802	2720
830.941	2621
831.08	2636
831.219	2754
831.357	2777
831.496	2937
831.635	2705
831.774	2651
831.913	2678
832.051	2583
832.19	2598
832.329	2697
832.467	2526
832.606	2461
832.744	2575
832.883	2587
833.022	2549
833.16	2655
833.299	2708
833.437	2708
833.576	2697
833.714	2659
833.852	2743
833.991	2758
834.129	2807
834.267	2830
834.406	2807
834.544	2876
834.682	2849
834.821	2857
834.959	3062
835.097	2857
835.235	3051
835.373	2998
835.511	2994
835.65	2925
835.788	2944
835.926	2815
836.064	2830
836.202	2857
836.34	3119
836.478	3142
836.615	3024
836.753	3112
836.891	3192
837.029	3123
837.167	3085
837.305	3043
837.443	2994
837.58	2941
837.718	3123
837.856	3070
837.993	3032
838.131	3108
838.269	3108
838.406	3112
838.544	3085
838.681	2906
838.819	2937
838.956	2792
839.094	2781
839.231	2906
839.369	3005
839.506	3378
839.643	3211
839.781	2990
839.918	2986
840.055	3020
840.193	3074
840.33	3028
840.467	3112
840.604	3150
840.742	3409
840.879	3020
841.016	3039
841.153	3127
841.29	3317
841.427	3287
841.564	3237
841.701	3313
841.838	3218
841.975	3169
842.112	3214
842.249	3055
842.385	2998
842.522	3253
842.659	3070
842.796	3047
842.933	3104
843.069	3043
843.206	3043
843.343	3138
843.479	3074
843.616	3157
843.752	2883
843.889	2899
844.025	3043
844.162	2864
844.298	3043
844.435	2941
844.571	2925
844.708	3070
844.844	3180
844.98	3214
845.117	3203
845.253	3024
845.389	2975
845.525	3104
845.661	3074
845.798	2971
845.934	3127
846.07	3058
846.206	3184
846.342	3329
846.478	3192
846.614	3051
846.75	3055
846.886	3017
847.022	3195
847.158	3142
847.294	3176
847.429	3222
847.565	3207
847.701	3466
847.837	3062
847.972	3001
848.108	3150
848.244	3131
848.379	3017
848.515	2944
848.65	2941
848.786	2956
848.921	2982
849.057	3089
849.192	3116
849.328	3024
849.463	3093
849.598	3085
849.734	3028
849.869	2967
850.004	2902
850.14	2956
850.275	2895
850.41	2838
850.545	2845
850.68	2899
850.815	2963
850.95	2979
851.085	3184
851.22	3081
851.355	2967
851.49	3013
851.625	2971
851.76	2994
851.895	2929
852.03	2895
852.165	3005
852.299	3146
852.434	3176
852.569	3138
852.703	3195
852.838	3245
852.973	3317
853.107	3359
853.242	3180
853.376	3058
853.511	2937
853.645	3039
853.78	3222
853.914	3108
854.048	3119
854.183	3070
854.317	3146
854.451	3264
854.585	3112
854.72	3100
854.854	3218
854.988	3028
855.122	3112
855.256	2960
855.39	3081
855.524	3199
855.658	3150
855.792	3154
855.926	3188
856.06	3275
856.194	3222
856.327	3165
856.461	3104
856.595	3032
856.729	3032
856.862	3226
856.996	3123
857.13	3180
857.263	3241
857.397	3302
857.53	3138
857.664	3222
857.797	3226
857.931	3279
858.064	3161
858.197	3195
858.331	3112
858.464	3081
858.597	3017
858.731	3112
858.864	3135
858.997	3074
859.13	3154
859.263	3146
859.396	3203
859.529	3070
859.662	3051
859.795	3039
859.928	3135
860.061	3241
860.194	3298
860.327	3131
860.46	3077
860.592	3214
860.725	3199
860.858	3260
860.99	3097
861.123	3085
861.256	3043
861.388	3146
861.521	3865
861.653	3020
861.786	2975
861.918	2986
862.05	3070
862.183	3077
862.315	3093
862.447	3195
862.58	3081
862.712	2941
862.844	2861
862.976	3009
863.108	3001
863.24	3321
863.372	2895
863.504	2933
863.636	2922
863.768	3017
863.9	2982
864.032	2914
864.164	2929
864.296	2963
864.428	3066
864.559	3100
864.691	3058
864.823	3036
864.954	3024
865.086	3020
865.217	2967
865.349	2944
865.48	2982
865.612	3009
865.743	3184
865.875	2986
866.006	2967
866.137	2956
866.269	2948
866.4	2933
866.531	2891
866.662	2902
866.793	2914
866.924	2880
867.055	2933
867.186	2952
867.317	2861
867.448	2788
867.579	2845
867.71	2823
867.841	2823
867.972	2880
868.103	2910
868.233	2899
868.364	2861
868.495	2883
868.625	3093
868.756	3138
868.886	2963
869.017	3005
869.147	3173
869.278	3138
869.408	3032
869.539	3020
869.669	3112
869.799	3047
869.929	3112
870.06	3112
870.19	3325
870.32	3294
870.45	3302
870.58	3321
870.71	3386
870.84	3458
870.97	3302
871.1	3260
871.23	3507
871.36	3477
871.489	3348
871.619	3386
871.749	3389
871.879	3420
872.008	3435
872.138	3351
872.267	3226
872.397	3146
872.526	3093
872.656	3005
872.785	3100
872.915	3211
873.044	3306
873.173	3237
873.303	3268
873.432	3249
873.561	3275
873.69	3161
873.819	3123
873.948	3218
874.077	3089
874.206	3043
874.335	3085
874.464	3214
874.593	3348
874.722	3253
874.851	3389
874.979	3325
875.108	3298
875.237	3161
875.365	3176
875.494	3138
875.623	3253
875.751	3058
875.88	3093
876.008	3173
876.136	3253
876.265	3340
876.393	3507
876.521	3428
876.65	3386
876.778	3336
876.906	3283
877.034	3165
877.162	3237
877.29	3169
877.418	3218
877.546	3176
877.674	3253
877.802	3195
877.93	3203
878.058	3142
878.185	3077
878.313	3192
878.441	3169
878.568	3058
878.696	3150
878.824	3184
878.951	3275
879.079	3431
879.206	3591
879.333	3420
879.461	3310
879.588	3359
879.715	3477
879.842	3591
879.97	3348
880.097	3176
880.224	3093
880.351	3195
880.478	3195
880.605	3203
880.732	3176
880.859	3504
880.986	3310
881.112	3351
881.239	3188
881.366	3077
881.493	3039
881.619	3001
881.746	3077
881.872	3112
881.999	3077
882.125	3112
882.252	3241
882.378	3275
882.505	3443
882.631	3249
882.757	3150
882.883	3195
883.01	3230
883.136	3161
883.262	3104
883.388	3104
883.514	3302
883.64	3393
883.766	3291
883.892	3203
884.018	3176
884.143	3435
884.269	3511
884.395	3207
884.52	3150
884.646	3173
884.772	3108
884.897	3100
885.023	3218
885.148	3325
885.274	3424
885.399	3370
885.524	3272
885.65	3268
885.775	3313
885.9	3260
886.025	3424
886.15	3386
886.275	3294
886.4	3188
886.525	3302
886.65	3291
886.775	3268
886.9	3485
887.025	3637
887.149	3382
887.274	3264
887.399	3161
887.523	3188
887.648	3192
887.773	3180
887.897	3378
888.021	3374
888.146	3287
888.27	3416
888.395	3542
888.519	3401
888.643	3447
888.767	3488
888.891	3279
889.015	3226
889.139	3291
889.263	3222
889.387	3386
889.511	3526
889.635	3416
889.759	3294
889.883	3268
890.006	3363
890.13	3443
890.254	3237
890.377	3336
890.501	3241
890.624	3192
890.748	3321
890.871	3157
890.995	3066
891.118	3039
891.241	3195
891.364	3249
891.488	3329
891.611	3192
891.734	3207
891.857	3279
891.98	3218
892.103	3321
892.226	3237
892.349	3211
892.471	3104
892.594	3218
892.717	3256
892.839	3283
892.962	3313
893.085	3332
893.207	3291
893.33	3188
893.452	3207
893.575	3313
893.697	3230
893.819	3473
893.941	3481
894.064	3428
894.186	3256
894.308	3253
894.43	3443
894.552	3519
894.674	3481
894.796	3249
894.918	3310
895.04	3283
895.161	3409
895.283	3393
895.405	3287
895.526	3340
895.648	3428
895.769	3443
895.891	3443
896.012	3473
896.134	3469
896.255	3409
896.376	3378
896.498	3348
896.619	3378
896.74	3374
896.861	3374
896.982	3667
897.103	3842
897.224	3557
897.345	3477
897.466	3405
897.587	3488
897.708	3599
897.828	3530
897.949	3393
898.07	3298
898.19	3428
898.311	3580
898.431	3424
898.552	3523
898.672	3595
898.792	3568
898.913	3549
899.033	3409
899.153	3253
899.273	3188
899.393	3291
899.513	3325
899.633	3291
899.753	3340
899.873	3313
899.993	3378
900.113	3321
900.232	3420
900.352	3336
900.472	3268
900.591	3195
900.711	3329
900.83	3256
900.95	3382
901.069	3466
901.189	3370
901.308	3214
901.427	3142
901.546	3161
901.665	3272
901.784	3294
901.904	3184
902.023	3150
902.141	3055
902.26	3005
902.379	3154
902.498	3032
902.617	3051
902.735	3207
902.854	3173
902.973	3176
903.091	3017
903.21	3039
903.328	3112
903.446	3074
903.565	3119
903.683	3203
903.801	3142
903.919	3237
904.038	3268
904.156	3127
904.274	3287
904.392	3214
904.51	3294
904.627	3355
904.745	3416
904.863	3401
904.981	3245
905.098	3165
905.216	3226
905.334	3279
905.451	3279
905.569	3351
905.686	3424
905.803	3424
905.921	3279
906.038	3447
906.155	3355
906.272	3253
906.389	3310
906.506	3226
906.623	3256
906.74	3260
906.857	3165
906.974	3264
907.091	3443
907.208	3542
907.324	3462
907.441	3332
907.557	3203
907.674	3237
907.79	3203
907.907	3291
908.023	3386
908.139	3374
908.256	3329
908.372	3389
908.488	3317
908.604	3230
908.72	3211
908.836	3272
908.952	3272
909.068	3321
909.184	3454
909.3	3409
909.415	3454
909.531	3450
909.647	3237
909.762	3291
909.878	3272
909.993	3340
910.108	3367
910.224	3306
910.339	3416
910.454	3344
910.57	3253
910.685	3237
910.8	3534
910.915	3526
911.03	3424
911.145	3199
911.259	3268
911.374	3313
911.489	3199
911.604	3222
911.718	3108
911.833	3138
911.947	3020
912.062	2967
912.176	3184
912.291	3131
912.405	3180
912.519	3416
912.633	3450
912.748	3348
912.862	3310
912.976	3161
913.09	3039
913.204	3135
913.318	3188
913.431	3329
913.545	3306
913.659	3405
913.772	3332
913.886	3214
914	3192
914.113	3329
914.226	3374
914.34	3325
914.453	3173
914.566	3386
914.68	3287
914.793	3272
914.906	3112
915.019	3097
915.132	3024
915.245	3127
915.358	3226
915.47	3218
915.583	3237
915.696	3306
915.809	3386
915.921	3420
916.034	3218
916.146	3226
916.259	3233
916.371	3393
916.483	3348
916.595	3249
916.708	3332
916.82	3374
916.932	3306
917.044	3363
917.156	3329
917.268	3291
917.38	3298
917.491	3317
917.603	3393
917.715	3466
917.826	3496
917.938	3409
918.049	3291
918.161	3435
918.272	3553
918.384	3561
918.495	3496
918.606	3367
918.717	3310
918.828	3424
918.939	3447
919.05	3332
919.161	3378
919.272	3230
919.383	3279
919.494	3526
919.604	3698
919.715	3507
919.826	3416
919.936	3481
920.047	3641
920.157	3599
920.267	3816
920.378	3641
920.488	3622
920.598	3804
920.708	3994
920.818	3896
920.928	3865
921.038	4059
921.148	4051
921.258	3743
921.368	3686
921.477	3622
921.587	3561
921.697	3504
921.806	3694
921.916	3553
922.025	3378
922.134	3405
922.244	3325
922.353	3504
922.462	3287
922.571	3275
922.68	3154
922.789	3135
922.898	3188
923.007	3157
923.116	3268
923.224	3230
923.333	3264
923.442	3123
923.55	3146
923.659	3146
923.767	3256
923.876	3173
923.984	3306
924.092	3157
924.201	3256
924.309	3275
924.417	3291
924.525	3245
924.633	3283
924.741	4211
924.849	3093
924.956	3321
925.064	3142
925.172	3100
925.279	3119
925.387	3226
925.494	3233
925.602	3389
925.709	3386
925.816	3222
925.924	3317
926.031	3416
926.138	3348
926.245	3416
926.352	3298
926.459	3469
926.566	3466
926.673	3359
926.779	3260
926.886	3260
926.993	3188
927.099	3169
927.206	3157
927.312	3154
927.419	3237
927.525	3260
927.631	3313
927.737	3211
927.843	3138
927.95	3055
928.056	3150
928.162	3192
928.267	3291
928.373	3937
928.479	3351
928.585	3085
928.69	3214
928.796	3283
928.901	3214
929.007	3093
929.112	3218
929.218	3256
929.323	3207
929.428	3211
929.533	3332
929.638	3116
929.743	3188
929.848	3310
929.953	3264
930.058	3184
930.163	3020
930.267	3108
930.372	3218
930.477	3070
930.581	3359
930.685	3207
930.79	3097
930.894	3150
930.998	3146
931.103	3321
931.207	3009
931.311	3005
931.415	2925
931.519	2819
931.623	2830
