Data from test_V78500241_1971.txt Node
Date: Fri Mar 25 16:28:51 CST 2022
User: usil
Spectrometer: V785-0024
Trigger mode: 0
Integration Time (sec): 4.000000E-1
Scans to average: 1
Nonlinearity correction enabled: false
Boxcar width: 0
Storing dark spectrum: false
XAxis mode: Wavelengths
Number of Pixels in Spectrum: 1024
>>>>>Begin Spectral Data<<<<<
801.071	2914
801.214	2971
801.356	2887
801.499	2887
801.641	2861
801.783	2975
801.926	3039
802.068	2982
802.211	2986
802.353	3020
802.496	2941
802.638	3020
802.78	3020
802.923	3093
803.065	2975
803.208	2887
803.35	2922
803.492	2925
803.635	2895
803.777	2739
803.919	2876
804.061	3173
804.204	2948
804.346	2891
804.488	2868
804.63	3013
804.773	2853
804.915	2914
805.057	3097
805.199	2929
805.341	2979
805.483	3047
805.626	2998
805.768	2929
805.91	3051
806.052	3093
806.194	3032
806.336	3203
806.478	3036
806.62	2941
806.762	2986
806.904	3043
807.046	3165
807.188	2963
807.33	2914
807.472	2990
807.614	2918
807.756	2994
807.898	2941
808.04	2857
808.182	2975
808.324	2944
808.465	2895
808.607	2868
808.749	2804
808.891	2868
809.033	2960
809.174	2967
809.316	2876
809.458	2883
809.6	2762
809.741	2773
809.883	2750
810.025	2815
810.166	2864
810.308	2838
810.45	2861
810.591	2781
810.733	2750
810.875	2838
811.016	2773
811.158	2743
811.299	2788
811.441	2910
811.582	2899
811.724	2826
811.865	2788
812.007	2910
812.148	2868
812.29	2861
812.431	2887
812.573	2952
812.714	2933
812.855	3051
812.997	3039
813.138	3119
813.279	3005
813.421	3001
813.562	2960
813.703	2834
813.845	2876
813.986	2762
814.127	2754
814.268	2800
814.41	2830
814.551	2811
814.692	2868
814.833	2788
814.974	2891
815.115	2925
815.256	2815
815.397	2769
815.539	2842
815.68	2804
815.821	2781
815.962	2963
816.103	2960
816.244	2876
816.385	2853
816.526	2944
816.666	2937
816.807	2754
816.948	2902
817.089	2887
817.23	2876
817.371	2766
817.512	2815
817.653	2804
817.793	2815
817.934	2880
818.075	2925
818.216	2952
818.356	3020
818.497	2857
818.638	2804
818.778	2796
818.919	2777
819.06	2769
819.2	2868
819.341	2781
819.481	2845
819.622	2925
819.762	3074
819.903	3009
820.043	2914
820.184	2887
820.324	2929
820.465	3043
820.605	3024
820.746	3047
820.886	2906
821.026	3104
821.167	3138
821.307	3272
821.447	3268
821.588	3199
821.728	3214
821.868	3176
822.008	3058
822.149	3176
822.289	3214
822.429	3093
822.569	3081
822.709	3161
822.849	3047
822.99	3097
823.13	3180
823.27	3203
823.41	3108
823.55	3161
823.69	3127
823.83	3135
823.97	3093
824.11	3001
824.25	2994
824.389	3036
824.529	3127
824.669	3032
824.809	3169
824.949	3226
825.089	3180
825.228	3119
825.368	3032
825.508	2960
825.648	2998
825.787	3009
825.927	2990
826.067	2941
826.206	2975
826.346	3074
826.485	3093
826.625	3116
826.765	3249
826.904	3241
827.044	2982
827.183	2933
827.323	2834
827.462	3020
827.601	2902
827.741	2899
827.88	2929
828.02	2849
828.159	2952
828.298	3055
828.437	3138
828.577	3009
828.716	3245
828.855	3013
828.994	2910
829.134	2872
829.273	2906
829.412	2819
829.551	2857
829.69	2849
829.829	2979
829.968	3131
830.107	3009
830.246	3024
830.385	2902
830.524	2845
830.663	2826
830.802	2739
830.941	2663
831.08	2644
831.219	2716
831.357	2705
831.496	2933
831.635	2731
831.774	2625
831.913	2670
832.051	2533
832.19	2579
832.329	2648
832.467	2526
832.606	2492
832.744	2571
832.883	2594
833.022	2579
833.16	2663
833.299	2655
833.437	2674
833.576	2678
833.714	2689
833.852	2724
833.991	2739
834.129	2796
834.267	2842
834.406	2785
834.544	2883
834.682	2826
834.821	2845
834.959	3047
835.097	2883
835.235	3062
835.373	2990
835.511	2986
835.65	2941
835.788	2929
835.926	2838
836.064	2815
836.202	2823
836.34	3024
836.478	3127
836.615	3028
836.753	3135
836.891	3222
837.029	3150
837.167	3081
837.305	3089
837.443	3043
837.58	2937
837.718	3097
837.856	3089
837.993	3028
838.131	3127
838.269	3108
838.406	3116
838.544	3104
838.681	2948
838.819	2910
838.956	2819
839.094	2754
839.231	2925
839.369	2998
839.506	3393
839.643	3230
839.781	2998
839.918	2960
840.055	3047
840.193	3017
840.33	3066
840.467	3131
840.604	3123
840.742	3424
840.879	3055
841.016	3043
841.153	3093
841.29	3336
841.427	3283
841.564	3264
841.701	3325
841.838	3211
841.975	3161
842.112	3199
842.249	3024
842.385	3051
842.522	3245
842.659	3093
842.796	3074
842.933	3055
843.069	3009
843.206	3017
843.343	3161
843.479	3116
843.616	3169
843.752	2902
843.889	2876
844.025	3074
844.162	2845
844.298	3074
844.435	2975
844.571	2918
844.708	3074
844.844	3188
844.98	3275
845.117	3157
845.253	3089
845.389	2963
845.525	3100
845.661	3066
845.798	3070
845.934	3100
846.07	3066
846.206	3173
846.342	3321
846.478	3211
846.614	3074
846.75	3039
846.886	3005
847.022	3230
847.158	3119
847.294	3214
847.429	3241
847.565	3207
847.701	3466
847.837	3036
847.972	2994
848.108	3127
848.244	3135
848.379	3009
848.515	2895
848.65	2929
848.786	2925
848.921	2979
849.057	3093
849.192	3093
849.328	3070
849.463	3081
849.598	3047
849.734	3039
849.869	2963
850.004	2922
850.14	2979
850.275	2899
850.41	2819
850.545	2899
850.68	2914
850.815	2918
850.95	3013
851.085	3207
851.22	3104
851.355	3032
851.49	2994
851.625	2998
851.76	2998
851.895	2933
852.03	2880
852.165	3039
852.299	3123
852.434	3173
852.569	3123
852.703	3192
852.838	3275
852.973	3370
853.107	3329
853.242	3131
853.376	3047
853.511	2963
853.645	3036
853.78	3214
853.914	3104
854.048	3097
854.183	3058
854.317	3119
854.451	3268
854.585	3119
854.72	3081
854.854	3180
854.988	3051
855.122	3081
855.256	2933
855.39	3100
855.524	3253
855.658	3154
855.792	3146
855.926	3165
856.06	3226
856.194	3237
856.327	3161
856.461	3039
856.595	3085
856.729	3093
856.862	3192
856.996	3146
857.13	3195
857.263	3233
857.397	3287
857.53	3123
857.664	3138
857.797	3249
857.931	3214
858.064	3199
858.197	3207
858.331	3138
858.464	3089
858.597	2990
858.731	3112
858.864	3127
858.997	3097
859.13	3157
859.263	3173
859.396	3222
859.529	3081
859.662	3077
859.795	3043
859.928	3127
860.061	3283
860.194	3279
860.327	3131
860.46	3081
860.592	3214
860.725	3241
860.858	3264
860.99	3081
861.123	3089
861.256	3039
861.388	3119
861.521	3854
861.653	3013
861.786	2998
861.918	2990
862.05	3089
862.183	3066
862.315	3154
862.447	3199
862.58	3089
862.712	2960
862.844	2861
862.976	2982
863.108	2998
863.24	3420
863.372	2883
863.504	2933
863.636	2941
863.768	3005
863.9	2998
864.032	2906
864.164	2941
864.296	3013
864.428	3089
864.559	3089
864.691	3047
864.823	3051
864.954	3020
865.086	3020
865.217	2967
865.349	2944
865.48	3001
865.612	3062
865.743	3173
865.875	2971
866.006	2918
866.137	2963
866.269	2925
866.4	2937
866.531	2925
866.662	2853
866.793	2845
866.924	2872
867.055	2986
867.186	2941
867.317	2868
867.448	2849
867.579	2849
867.71	2861
867.841	2830
867.972	2895
868.103	2895
868.233	2826
868.364	2842
868.495	2868
868.625	3077
868.756	3176
868.886	2998
869.017	2994
869.147	3146
869.278	3131
869.408	3036
869.539	3009
869.669	3112
869.799	3043
869.929	3123
870.06	3100
870.19	3351
870.32	3260
870.45	3321
870.58	3340
870.71	3409
870.84	3416
870.97	3272
871.1	3207
871.23	3519
871.36	3481
871.489	3370
871.619	3389
871.749	3386
871.879	3363
872.008	3458
872.138	3363
872.267	3245
872.397	3116
872.526	3074
872.656	3001
872.785	3108
872.915	3237
873.044	3302
873.173	3203
873.303	3283
873.432	3241
873.561	3233
873.69	3161
873.819	3165
873.948	3184
874.077	3138
874.206	3058
874.335	3081
874.464	3180
874.593	3389
874.722	3233
874.851	3389
874.979	3313
875.108	3302
875.237	3169
875.365	3116
875.494	3157
875.623	3222
875.751	3070
875.88	3108
876.008	3226
876.136	3253
876.265	3370
876.393	3488
876.521	3409
876.65	3412
876.778	3298
876.906	3272
877.034	3211
877.162	3237
877.29	3173
877.418	3245
877.546	3211
877.674	3214
877.802	3237
877.93	3203
878.058	3150
878.185	3093
878.313	3199
878.441	3188
878.568	3039
878.696	3161
878.824	3253
878.951	3275
879.079	3439
879.206	3633
879.333	3466
879.461	3317
879.588	3367
879.715	3447
879.842	3599
879.97	3382
880.097	3176
880.224	3108
880.351	3192
880.478	3207
880.605	3195
880.732	3146
880.859	3526
880.986	3321
881.112	3294
881.239	3154
881.366	3100
881.493	3036
881.619	3001
881.746	3077
881.872	3100
881.999	3093
882.125	3112
882.252	3195
882.378	3256
882.505	3431
882.631	3249
882.757	3150
882.883	3199
883.01	3211
883.136	3192
883.262	3066
883.388	3089
883.514	3321
883.64	3374
883.766	3310
883.892	3176
884.018	3253
884.143	3393
884.269	3549
884.395	3184
884.52	3104
884.646	3157
884.772	3077
884.897	3081
885.023	3230
885.148	3317
885.274	3435
885.399	3355
885.524	3313
885.65	3222
885.775	3306
885.9	3218
886.025	3409
886.15	3310
886.275	3310
886.4	3272
886.525	3294
886.65	3272
886.775	3245
886.9	3488
887.025	3629
887.149	3355
887.274	3253
887.399	3161
887.523	3184
887.648	3184
887.773	3173
887.897	3329
888.021	3412
888.146	3294
888.27	3443
888.395	3492
888.519	3462
888.643	3420
888.767	3424
888.891	3298
889.015	3226
889.139	3294
889.263	3237
889.387	3409
889.511	3488
889.635	3431
889.759	3272
889.883	3275
890.006	3401
890.13	3511
890.254	3253
890.377	3340
890.501	3169
890.624	3165
890.748	3294
890.871	3184
890.995	3135
891.118	3039
891.241	3180
891.364	3199
891.488	3340
891.611	3165
891.734	3226
891.857	3245
891.98	3237
892.103	3336
892.226	3321
892.349	3222
892.471	3104
892.594	3211
892.717	3306
892.839	3294
892.962	3275
893.085	3317
893.207	3294
893.33	3150
893.452	3222
893.575	3344
893.697	3310
893.819	3450
893.941	3504
894.064	3450
894.186	3245
894.308	3249
894.43	3416
894.552	3549
894.674	3466
894.796	3260
894.918	3298
895.04	3306
895.161	3405
895.283	3405
895.405	3348
895.526	3378
895.648	3363
895.769	3450
895.891	3428
896.012	3462
896.134	3443
896.255	3374
896.376	3382
896.498	3329
896.619	3386
896.74	3329
896.861	3401
896.982	3675
897.103	3827
897.224	3545
897.345	3485
897.466	3420
897.587	3477
897.708	3606
897.828	3545
897.949	3458
898.07	3313
898.19	3378
898.311	3576
898.431	3416
898.552	3477
898.672	3542
898.792	3576
898.913	3496
899.033	3401
899.153	3329
899.273	3230
899.393	3302
899.513	3317
899.633	3340
899.753	3298
899.873	3310
899.993	3374
900.113	3359
900.232	3412
900.352	3340
900.472	3268
900.591	3150
900.711	3294
900.83	3176
900.95	3397
901.069	3462
901.189	3355
901.308	3173
901.427	3085
901.546	3207
901.665	3302
901.784	3302
901.904	3199
902.023	3154
902.141	3009
902.26	3039
902.379	3135
902.498	3066
902.617	3032
902.735	3211
902.854	3192
902.973	3176
903.091	3055
903.21	3077
903.328	3131
903.446	3097
903.565	3123
903.683	3207
903.801	3138
903.919	3237
904.038	3275
904.156	3150
904.274	3351
904.392	3256
904.51	3306
904.627	3302
904.745	3397
904.863	3504
904.981	3237
905.098	3192
905.216	3195
905.334	3279
905.451	3332
905.569	3291
905.686	3424
905.803	3416
905.921	3287
906.038	3454
906.155	3351
906.272	3294
906.389	3313
906.506	3230
906.623	3222
906.74	3287
906.857	3195
906.974	3237
907.091	3462
907.208	3526
907.324	3477
907.441	3351
907.557	3241
907.674	3195
907.79	3199
907.907	3302
908.023	3370
908.139	3351
908.256	3310
908.372	3382
908.488	3386
908.604	3245
908.72	3214
908.836	3272
908.952	3260
909.068	3344
909.184	3477
909.3	3382
909.415	3466
909.531	3477
909.647	3275
909.762	3272
909.878	3272
909.993	3370
910.108	3363
910.224	3313
910.339	3374
910.454	3336
910.57	3291
910.685	3222
910.8	3572
910.915	3549
911.03	3412
911.145	3268
911.259	3275
911.374	3310
911.489	3256
911.604	3211
911.718	3077
911.833	3157
911.947	3005
912.062	2994
912.176	3142
912.291	3157
912.405	3173
912.519	3420
912.633	3466
912.748	3325
912.862	3256
912.976	3188
913.09	3047
913.204	3146
913.318	3203
913.431	3355
913.545	3310
913.659	3416
913.772	3344
913.886	3218
914	3188
914.113	3329
914.226	3386
914.34	3363
914.453	3180
914.566	3397
914.68	3264
914.793	3321
914.906	3169
915.019	3104
915.132	3093
915.245	3184
915.358	3180
915.47	3195
915.583	3268
915.696	3313
915.809	3382
915.921	3447
916.034	3245
916.146	3264
916.259	3192
916.371	3401
916.483	3336
916.595	3298
916.708	3317
916.82	3382
916.932	3336
917.044	3351
917.156	3386
917.268	3230
917.38	3317
917.491	3275
917.603	3393
917.715	3454
917.826	3431
917.938	3355
918.049	3264
918.161	3424
918.272	3572
918.384	3553
918.495	3454
918.606	3313
918.717	3256
918.828	3386
918.939	3428
919.05	3321
919.161	3340
919.272	3195
919.383	3264
919.494	3519
919.604	3709
919.715	3439
919.826	3416
919.936	3477
920.047	3591
920.157	3595
920.267	3736
920.378	3587
920.488	3622
920.598	3789
920.708	3956
920.818	3823
920.928	3842
921.038	4059
921.148	3964
921.258	3690
921.368	3591
921.477	3572
921.587	3557
921.697	3477
921.806	3603
921.916	3526
922.025	3302
922.134	3336
922.244	3313
922.353	3431
922.462	3260
922.571	3226
922.68	3123
922.789	3036
922.898	3142
923.007	3097
923.116	3195
923.224	3123
923.333	3173
923.442	3070
923.55	3089
923.659	3138
923.767	3207
923.876	3093
923.984	3253
924.092	3135
924.201	3195
924.309	3184
924.417	3237
924.525	3180
924.633	3230
924.741	4188
924.849	3066
924.956	3287
925.064	3100
925.172	3036
925.279	3116
925.387	3199
925.494	3218
925.602	3310
925.709	3310
925.816	3184
925.924	3275
926.031	3306
926.138	3310
926.245	3340
926.352	3233
926.459	3420
926.566	3439
926.673	3275
926.779	3287
926.886	3237
926.993	3169
927.099	3135
927.206	3100
927.312	3100
927.419	3233
927.525	3203
927.631	3237
927.737	3169
927.843	3135
927.95	3013
928.056	3195
928.162	3135
928.267	3237
928.373	3873
928.479	3291
928.585	3051
928.69	3184
928.796	3233
928.901	3127
929.007	3043
929.112	3188
929.218	3142
929.323	3165
929.428	3119
929.533	3306
929.638	3135
929.743	3142
929.848	3275
929.953	3245
930.058	3085
930.163	2979
930.267	3062
930.372	3176
930.477	3058
930.581	3279
930.685	3131
930.79	3074
930.894	3127
930.998	3074
931.103	3279
931.207	2963
931.311	2922
931.415	2922
931.519	2796
931.623	2796
