Data from test_V78500241_315.txt Node
Date: Fri Mar 25 16:17:23 CST 2022
User: usil
Spectrometer: V785-0024
Trigger mode: 0
Integration Time (sec): 4.000000E-1
Scans to average: 1
Nonlinearity correction enabled: false
Boxcar width: 0
Storing dark spectrum: false
XAxis mode: Wavelengths
Number of Pixels in Spectrum: 1024
>>>>>Begin Spectral Data<<<<<
801.071	2963
801.214	2971
801.356	2933
801.499	2922
801.641	2899
801.783	2944
801.926	3058
802.068	2982
802.211	3009
802.353	3070
802.496	2952
802.638	3020
802.78	3024
802.923	3047
803.065	3020
803.208	2906
803.35	2929
803.492	2990
803.635	2922
803.777	2796
803.919	2864
804.061	3218
804.204	2937
804.346	2902
804.488	2872
804.63	3005
804.773	2899
804.915	2933
805.057	3081
805.199	2925
805.341	2952
805.483	3047
805.626	2986
805.768	2933
805.91	3127
806.052	3131
806.194	3009
806.336	3237
806.478	2994
806.62	2963
806.762	2979
806.904	3024
807.046	3146
807.188	2990
807.33	2933
807.472	2963
807.614	2925
807.756	3005
807.898	2922
808.04	2925
808.182	2956
808.324	2982
808.465	2861
808.607	2899
808.749	2807
808.891	2819
809.033	2982
809.174	2975
809.316	2910
809.458	2853
809.6	2766
809.741	2815
809.883	2792
810.025	2857
810.166	2872
810.308	2804
810.45	2857
810.591	2781
810.733	2750
810.875	2823
811.016	2785
811.158	2788
811.299	2815
811.441	2941
811.582	2902
811.724	2834
811.865	2845
812.007	2918
812.148	2876
812.29	2861
812.431	2925
812.573	2941
812.714	2948
812.855	3070
812.997	3058
813.138	3123
813.279	3024
813.421	2975
813.562	2990
813.703	2868
813.845	2849
813.986	2792
814.127	2743
814.268	2857
814.41	2804
814.551	2830
814.692	2868
814.833	2777
814.974	2918
815.115	2925
815.256	2823
815.397	2792
815.539	2868
815.68	2811
815.821	2785
815.962	2944
816.103	2914
816.244	2872
816.385	2887
816.526	2975
816.666	2948
816.807	2758
816.948	2887
817.089	2906
817.23	2845
817.371	2769
817.512	2815
817.653	2838
817.793	2838
817.934	2857
818.075	2975
818.216	2956
818.356	3024
818.497	2925
818.638	2792
818.778	2861
818.919	2769
819.06	2746
819.2	2922
819.341	2788
819.481	2788
819.622	2906
819.762	3112
819.903	3024
820.043	2880
820.184	2925
820.324	2887
820.465	2998
820.605	3020
820.746	3039
820.886	2937
821.026	3131
821.167	3157
821.307	3211
821.447	3294
821.588	3233
821.728	3173
821.868	3226
822.008	3081
822.149	3142
822.289	3222
822.429	3085
822.569	3116
822.709	3211
822.849	3039
822.99	3097
823.13	3165
823.27	3230
823.41	3097
823.55	3161
823.69	3161
823.83	3192
823.97	3077
824.11	3005
824.25	2990
824.389	3039
824.529	3123
824.669	3089
824.809	3218
824.949	3253
825.089	3211
825.228	3142
825.368	3009
825.508	2963
825.648	2967
825.787	3055
825.927	3009
826.067	2941
826.206	2960
826.346	3058
826.485	3051
826.625	3127
826.765	3287
826.904	3207
827.044	2967
827.183	2929
827.323	2868
827.462	2979
827.601	2937
827.741	2952
827.88	2963
828.02	2861
828.159	2975
828.298	3051
828.437	3123
828.577	3047
828.716	3214
828.855	3077
828.994	2895
829.134	2845
829.273	2910
829.412	2887
829.551	2868
829.69	2864
829.829	2982
829.968	3146
830.107	3024
830.246	3024
830.385	2933
830.524	2895
830.663	2826
830.802	2712
830.941	2625
831.08	2651
831.219	2766
831.357	2785
831.496	2956
831.635	2720
831.774	2636
831.913	2655
832.051	2575
832.19	2571
832.329	2693
832.467	2514
832.606	2473
832.744	2575
832.883	2590
833.022	2568
833.16	2632
833.299	2689
833.437	2720
833.576	2712
833.714	2724
833.852	2727
833.991	2773
834.129	2781
834.267	2811
834.406	2788
834.544	2864
834.682	2883
834.821	2864
834.959	3051
835.097	2922
835.235	3089
835.373	3001
835.511	3036
835.65	2922
835.788	2941
835.926	2842
836.064	2811
836.202	2838
836.34	3077
836.478	3142
836.615	3070
836.753	3100
836.891	3241
837.029	3154
837.167	3116
837.305	3062
837.443	3039
837.58	2971
837.718	3112
837.856	3058
837.993	2994
838.131	3119
838.269	3104
838.406	3081
838.544	3074
838.681	2975
838.819	2937
838.956	2788
839.094	2807
839.231	2922
839.369	3020
839.506	3355
839.643	3207
839.781	2994
839.918	2929
840.055	3039
840.193	3047
840.33	3051
840.467	3119
840.604	3123
840.742	3401
840.879	3036
841.016	3047
841.153	3123
841.29	3329
841.427	3283
841.564	3275
841.701	3302
841.838	3203
841.975	3173
842.112	3237
842.249	3062
842.385	2994
842.522	3253
842.659	3100
842.796	3055
842.933	3070
843.069	3039
843.206	3070
843.343	3226
843.479	3100
843.616	3135
843.752	2906
843.889	2872
844.025	3100
844.162	2899
844.298	3058
844.435	2956
844.571	2887
844.708	3039
844.844	3173
844.98	3214
845.117	3195
845.253	3024
845.389	2994
845.525	3070
845.661	3108
845.798	3005
845.934	3085
846.07	3051
846.206	3211
846.342	3340
846.478	3222
846.614	3104
846.75	3017
846.886	3017
847.022	3279
847.158	3127
847.294	3176
847.429	3230
847.565	3241
847.701	3492
847.837	3058
847.972	2982
848.108	3173
848.244	3180
848.379	2979
848.515	2922
848.65	2876
848.786	2960
848.921	2986
849.057	3077
849.192	3154
849.328	3043
849.463	3058
849.598	3043
849.734	3055
849.869	2929
850.004	2929
850.14	2925
850.275	2941
850.41	2819
850.545	2880
850.68	2944
850.815	2944
850.95	2975
851.085	3173
851.22	3119
851.355	3024
851.49	2986
851.625	2986
851.76	3070
851.895	2929
852.03	2891
852.165	3036
852.299	3116
852.434	3180
852.569	3169
852.703	3161
852.838	3241
852.973	3329
853.107	3310
853.242	3176
853.376	3077
853.511	2960
853.645	3017
853.78	3249
853.914	3100
854.048	3093
854.183	3070
854.317	3127
854.451	3275
854.585	3146
854.72	3097
854.854	3207
854.988	3074
855.122	3112
855.256	2975
855.39	3058
855.524	3207
855.658	3180
855.792	3138
855.926	3195
856.06	3211
856.194	3256
856.327	3119
856.461	3062
856.595	3043
856.729	3085
856.862	3203
856.996	3150
857.13	3173
857.263	3241
857.397	3230
857.53	3100
857.664	3207
857.797	3222
857.931	3256
858.064	3116
858.197	3214
858.331	3127
858.464	3123
858.597	3017
858.731	3085
858.864	3123
858.997	3070
859.13	3127
859.263	3195
859.396	3176
859.529	3062
859.662	3070
859.795	3036
859.928	3138
860.061	3260
860.194	3313
860.327	3131
860.46	3070
860.592	3237
860.725	3230
860.858	3218
860.99	3116
861.123	3066
861.256	3039
861.388	3123
861.521	3861
861.653	3009
861.786	2967
861.918	2994
862.05	3074
862.183	3077
862.315	3146
862.447	3192
862.58	3077
862.712	2948
862.844	2891
862.976	3001
863.108	3009
863.24	3336
863.372	2895
863.504	2967
863.636	2956
863.768	2986
863.9	2967
864.032	2918
864.164	2929
864.296	3005
864.428	3070
864.559	3100
864.691	3070
864.823	3051
864.954	3066
865.086	3036
865.217	2982
865.349	2975
865.48	2971
865.612	2990
865.743	3131
865.875	2975
866.006	2933
866.137	2948
866.269	2933
866.4	2929
866.531	2914
866.662	2883
866.793	2891
866.924	2857
867.055	2952
867.186	2914
867.317	2899
867.448	2845
867.579	2838
867.71	2819
867.841	2834
867.972	2918
868.103	2883
868.233	2868
868.364	2891
868.495	2914
868.625	3055
868.756	3138
868.886	2982
869.017	3039
869.147	3116
869.278	3161
869.408	3032
869.539	3047
869.669	3104
869.799	2994
869.929	3150
870.06	3097
870.19	3275
870.32	3283
870.45	3275
870.58	3382
870.71	3416
870.84	3431
870.97	3287
871.1	3249
871.23	3511
871.36	3393
871.489	3310
871.619	3382
871.749	3367
871.879	3450
872.008	3507
872.138	3340
872.267	3321
872.397	3142
872.526	3089
872.656	3009
872.785	3074
872.915	3241
873.044	3310
873.173	3180
873.303	3233
873.432	3245
873.561	3211
873.69	3154
873.819	3119
873.948	3203
874.077	3108
874.206	3036
874.335	3066
874.464	3188
874.593	3344
874.722	3233
874.851	3367
874.979	3340
875.108	3332
875.237	3192
875.365	3150
875.494	3195
875.623	3256
875.751	3089
875.88	3089
876.008	3176
876.136	3211
876.265	3329
876.393	3500
876.521	3416
876.65	3351
876.778	3287
876.906	3245
877.034	3176
877.162	3211
877.29	3195
877.418	3249
877.546	3256
877.674	3272
877.802	3241
877.93	3230
878.058	3157
878.185	3116
878.313	3226
878.441	3169
878.568	3043
878.696	3154
878.824	3237
878.951	3249
879.079	3412
879.206	3618
879.333	3420
879.461	3332
879.588	3370
879.715	3477
879.842	3557
879.97	3340
880.097	3165
880.224	3116
880.351	3180
880.478	3199
880.605	3165
880.732	3161
880.859	3492
880.986	3249
881.112	3329
881.239	3207
881.366	3081
881.493	3066
881.619	3032
881.746	3043
881.872	3074
881.999	3055
882.125	3108
882.252	3237
882.378	3298
882.505	3428
882.631	3279
882.757	3150
882.883	3207
883.01	3230
883.136	3169
883.262	3077
883.388	3093
883.514	3325
883.64	3351
883.766	3332
883.892	3188
884.018	3264
884.143	3401
884.269	3530
884.395	3226
884.52	3142
884.646	3161
884.772	3119
884.897	3085
885.023	3211
885.148	3332
885.274	3405
885.399	3370
885.524	3279
885.65	3226
885.775	3268
885.9	3233
886.025	3389
886.15	3355
886.275	3306
886.4	3214
886.525	3325
886.65	3272
886.775	3279
886.9	3492
887.025	3587
887.149	3409
887.274	3226
887.399	3135
887.523	3199
887.648	3165
887.773	3222
887.897	3321
888.021	3370
888.146	3256
888.27	3428
888.395	3534
888.519	3409
888.643	3435
888.767	3431
888.891	3317
889.015	3264
889.139	3298
889.263	3245
889.387	3416
889.511	3496
889.635	3435
889.759	3268
889.883	3275
890.006	3409
890.13	3439
890.254	3260
890.377	3336
890.501	3214
890.624	3192
890.748	3317
890.871	3233
890.995	3100
891.118	3104
891.241	3241
891.364	3237
891.488	3367
891.611	3211
891.734	3272
891.857	3306
891.98	3226
892.103	3363
892.226	3325
892.349	3241
892.471	3157
892.594	3264
892.717	3348
892.839	3298
892.962	3306
893.085	3386
893.207	3332
893.33	3184
893.452	3230
893.575	3393
893.697	3306
893.819	3500
893.941	3530
894.064	3526
894.186	3329
894.308	3348
894.43	3454
894.552	3587
894.674	3473
894.796	3325
894.918	3348
895.04	3340
895.161	3511
895.283	3393
895.405	3370
895.526	3363
895.648	3492
895.769	3466
895.891	3500
896.012	3504
896.134	3511
896.255	3462
896.376	3431
896.498	3382
896.619	3462
896.74	3393
896.861	3447
896.982	3740
897.103	3911
897.224	3652
897.345	3542
897.466	3439
897.587	3515
897.708	3701
897.828	3580
897.949	3469
898.07	3378
898.19	3424
898.311	3648
898.431	3496
898.552	3542
898.672	3625
898.792	3637
898.913	3606
899.033	3458
899.153	3329
899.273	3317
899.393	3302
899.513	3374
899.633	3355
899.753	3351
899.873	3325
899.993	3447
900.113	3370
900.232	3412
900.352	3386
900.472	3329
900.591	3291
900.711	3321
900.83	3268
900.95	3477
901.069	3542
901.189	3397
901.308	3192
901.427	3180
901.546	3241
901.665	3374
901.784	3374
901.904	3226
902.023	3188
902.141	3051
902.26	3028
902.379	3154
902.498	3127
902.617	3070
902.735	3222
902.854	3291
902.973	3226
903.091	3085
903.21	3112
903.328	3180
903.446	3097
903.565	3154
903.683	3256
903.801	3184
903.919	3287
904.038	3321
904.156	3222
904.274	3317
904.392	3302
904.51	3306
904.627	3325
904.745	3496
904.863	3530
904.981	3329
905.098	3169
905.216	3233
905.334	3310
905.451	3302
905.569	3302
905.686	3458
905.803	3466
905.921	3325
906.038	3458
906.155	3359
906.272	3310
906.389	3359
906.506	3222
906.623	3302
906.74	3302
906.857	3279
906.974	3294
907.091	3469
907.208	3603
907.324	3488
907.441	3389
907.557	3256
907.674	3329
907.79	3249
907.907	3313
908.023	3447
908.139	3389
908.256	3374
908.372	3412
908.488	3367
908.604	3260
908.72	3298
908.836	3310
908.952	3317
909.068	3367
909.184	3553
909.3	3435
909.415	3515
909.531	3519
909.647	3310
909.762	3340
909.878	3294
909.993	3405
910.108	3336
910.224	3409
910.339	3485
910.454	3363
910.57	3313
910.685	3287
910.8	3648
910.915	3564
911.03	3485
911.145	3306
911.259	3310
911.374	3329
911.489	3264
911.604	3253
911.718	3192
911.833	3173
911.947	3051
912.062	3020
912.176	3211
912.291	3230
912.405	3287
912.519	3431
912.633	3496
912.748	3370
912.862	3310
912.976	3203
913.09	3135
913.204	3188
913.318	3233
913.431	3355
913.545	3370
913.659	3405
913.772	3344
913.886	3260
914	3245
914.113	3386
914.226	3469
914.34	3405
914.453	3256
914.566	3447
914.68	3378
914.793	3363
914.906	3199
915.019	3131
915.132	3100
915.245	3214
915.358	3237
915.47	3317
915.583	3298
915.696	3325
915.809	3450
915.921	3428
916.034	3298
916.146	3283
916.259	3245
916.371	3386
916.483	3359
916.595	3260
916.708	3378
916.82	3340
916.932	3378
917.044	3374
917.156	3348
917.268	3298
917.38	3340
917.491	3325
917.603	3439
917.715	3477
917.826	3492
917.938	3405
918.049	3279
918.161	3485
918.272	3603
918.384	3599
918.495	3542
918.606	3386
918.717	3310
918.828	3412
918.939	3439
919.05	3325
919.161	3397
919.272	3199
919.383	3317
919.494	3519
919.604	3709
919.715	3530
919.826	3439
919.936	3496
920.047	3663
920.157	3584
920.267	3778
920.378	3652
920.488	3644
920.598	3816
920.708	3994
920.818	3823
920.928	3816
921.038	4074
921.148	4032
921.258	3759
921.368	3648
921.477	3648
921.587	3572
921.697	3439
921.806	3667
921.916	3561
922.025	3393
922.134	3405
922.244	3389
922.353	3481
922.462	3287
922.571	3268
922.68	3150
922.789	3089
922.898	3184
923.007	3116
923.116	3249
923.224	3214
923.333	3211
923.442	3108
923.55	3123
923.659	3135
923.767	3253
923.876	3154
923.984	3260
924.092	3135
924.201	3230
924.309	3268
924.417	3279
924.525	3176
924.633	3313
924.741	4196
924.849	3104
924.956	3306
925.064	3127
925.172	3043
925.279	3127
925.387	3230
925.494	3230
925.602	3416
925.709	3340
925.816	3184
925.924	3336
926.031	3424
926.138	3397
926.245	3370
926.352	3237
926.459	3466
926.566	3466
926.673	3313
926.779	3241
926.886	3275
926.993	3188
927.099	3161
927.206	3169
927.312	3154
927.419	3256
927.525	3245
927.631	3294
927.737	3165
927.843	3154
927.95	3097
928.056	3146
928.162	3188
928.267	3283
928.373	3869
928.479	3329
928.585	3093
928.69	3245
928.796	3321
928.901	3173
929.007	3077
929.112	3268
929.218	3222
929.323	3184
929.428	3192
929.533	3340
929.638	3169
929.743	3142
929.848	3321
929.953	3226
930.058	3169
930.163	3039
930.267	3058
930.372	3214
930.477	3043
930.581	3348
930.685	3184
930.79	3100
930.894	3119
930.998	3131
931.103	3310
931.207	2990
931.311	2979
931.415	2937
931.519	2807
931.623	2834
