Data from test_V78500241_230.txt Node
Date: Fri Mar 25 16:16:47 CST 2022
User: usil
Spectrometer: V785-0024
Trigger mode: 0
Integration Time (sec): 4.000000E-1
Scans to average: 1
Nonlinearity correction enabled: false
Boxcar width: 0
Storing dark spectrum: false
XAxis mode: Wavelengths
Number of Pixels in Spectrum: 1024
>>>>>Begin Spectral Data<<<<<
801.071	2899
801.214	2918
801.356	2887
801.499	2895
801.641	2864
801.783	2929
801.926	3051
802.068	2994
802.211	3032
802.353	3039
802.496	2975
802.638	3043
802.78	3058
802.923	3089
803.065	3036
803.208	2902
803.35	2925
803.492	2937
803.635	2941
803.777	2781
803.919	2880
804.061	3207
804.204	2956
804.346	2922
804.488	2834
804.63	3005
804.773	2876
804.915	2922
805.057	3100
805.199	2902
805.341	2994
805.483	3058
805.626	2994
805.768	2963
805.91	3097
806.052	3157
806.194	3066
806.336	3256
806.478	3013
806.62	2960
806.762	2967
806.904	3066
807.046	3188
807.188	2948
807.33	2906
807.472	2963
807.614	2899
807.756	2963
807.898	2956
808.04	2918
808.182	2982
808.324	2937
808.465	2845
808.607	2914
808.749	2807
808.891	2845
809.033	2967
809.174	2971
809.316	2914
809.458	2899
809.6	2777
809.741	2807
809.883	2785
810.025	2872
810.166	2857
810.308	2838
810.45	2861
810.591	2788
810.733	2758
810.875	2826
811.016	2788
811.158	2773
811.299	2807
811.441	2925
811.582	2902
811.724	2830
811.865	2830
812.007	2933
812.148	2883
812.29	2861
812.431	2872
812.573	2914
812.714	3013
812.855	3058
812.997	3089
813.138	3184
813.279	3028
813.421	2982
813.562	2956
813.703	2895
813.845	2910
813.986	2777
814.127	2720
814.268	2834
814.41	2883
814.551	2826
814.692	2876
814.833	2830
814.974	2918
815.115	2929
815.256	2811
815.397	2830
815.539	2880
815.68	2731
815.821	2811
815.962	2937
816.103	2941
816.244	2880
816.385	2868
816.526	2971
816.666	2941
816.807	2762
816.948	2899
817.089	2880
817.23	2876
817.371	2804
817.512	2800
817.653	2853
817.793	2811
817.934	2895
818.075	2994
818.216	2994
818.356	3032
818.497	2899
818.638	2834
818.778	2807
818.919	2777
819.06	2758
819.2	2868
819.341	2788
819.481	2792
819.622	2948
819.762	3100
819.903	3032
820.043	2960
820.184	2929
820.324	2872
820.465	3013
820.605	2998
820.746	3028
820.886	2937
821.026	3112
821.167	3142
821.307	3275
821.447	3272
821.588	3222
821.728	3195
821.868	3165
822.008	3093
822.149	3203
822.289	3180
822.429	3104
822.569	3089
822.709	3214
822.849	3028
822.99	3077
823.13	3131
823.27	3241
823.41	3108
823.55	3146
823.69	3157
823.83	3146
823.97	3112
824.11	2998
824.25	3005
824.389	3077
824.529	3127
824.669	3070
824.809	3211
824.949	3222
825.089	3230
825.228	3173
825.368	3001
825.508	2963
825.648	2952
825.787	3024
825.927	3039
826.067	2952
826.206	2986
826.346	3032
826.485	3085
826.625	3112
826.765	3294
826.904	3230
827.044	2998
827.183	2944
827.323	2868
827.462	3020
827.601	2925
827.741	2941
827.88	2952
828.02	2830
828.159	2990
828.298	3032
828.437	3138
828.577	3051
828.716	3253
828.855	3066
828.994	2918
829.134	2918
829.273	2918
829.412	2876
829.551	2868
829.69	2914
829.829	2998
829.968	3150
830.107	2982
830.246	3013
830.385	2922
830.524	2880
830.663	2834
830.802	2746
830.941	2651
831.08	2651
831.219	2781
831.357	2758
831.496	2929
831.635	2727
831.774	2644
831.913	2655
832.051	2556
832.19	2571
832.329	2693
832.467	2552
832.606	2492
832.744	2575
832.883	2583
833.022	2568
833.16	2659
833.299	2667
833.437	2716
833.576	2701
833.714	2720
833.852	2731
833.991	2766
834.129	2834
834.267	2830
834.406	2815
834.544	2845
834.682	2887
834.821	2830
834.959	3070
835.097	2891
835.235	3077
835.373	2979
835.511	3043
835.65	2967
835.788	2929
835.926	2807
836.064	2796
836.202	2838
836.34	3077
836.478	3112
836.615	3036
836.753	3176
836.891	3184
837.029	3146
837.167	3127
837.305	3055
837.443	3047
837.58	2990
837.718	3135
837.856	3024
837.993	3085
838.131	3146
838.269	3165
838.406	3112
838.544	3100
838.681	2933
838.819	2925
838.956	2823
839.094	2819
839.231	2922
839.369	2986
839.506	3351
839.643	3233
839.781	3013
839.918	2975
840.055	3085
840.193	3013
840.33	3066
840.467	3100
840.604	3176
840.742	3370
840.879	3051
841.016	3043
841.153	3150
841.29	3336
841.427	3313
841.564	3275
841.701	3306
841.838	3226
841.975	3169
842.112	3195
842.249	3089
842.385	3024
842.522	3256
842.659	3097
842.796	3058
842.933	3085
843.069	3058
843.206	3024
843.343	3207
843.479	3077
843.616	3104
843.752	2906
843.889	2887
844.025	3077
844.162	2883
844.298	3081
844.435	2971
844.571	2948
844.708	3043
844.844	3184
844.98	3226
845.117	3176
845.253	3070
845.389	2994
845.525	3123
845.661	3146
845.798	2982
845.934	3131
846.07	3047
846.206	3222
846.342	3321
846.478	3230
846.614	3108
846.75	3032
846.886	3009
847.022	3226
847.158	3135
847.294	3211
847.429	3253
847.565	3211
847.701	3477
847.837	3009
847.972	2986
848.108	3184
848.244	3123
848.379	2994
848.515	2941
848.65	2975
848.786	2963
848.921	3001
849.057	3081
849.192	3127
849.328	3032
849.463	3097
849.598	3062
849.734	3036
849.869	2952
850.004	2918
850.14	2971
850.275	2880
850.41	2807
850.545	2861
850.68	2944
850.815	2952
850.95	2944
851.085	3192
851.22	3093
851.355	3036
851.49	2956
851.625	2982
851.76	3039
851.895	2914
852.03	2922
852.165	3013
852.299	3112
852.434	3180
852.569	3135
852.703	3165
852.838	3233
852.973	3351
853.107	3310
853.242	3112
853.376	3081
853.511	2944
853.645	3062
853.78	3188
853.914	3127
854.048	3116
854.183	3104
854.317	3100
854.451	3313
854.585	3062
854.72	3058
854.854	3188
854.988	3036
855.122	3066
855.256	2944
855.39	3089
855.524	3256
855.658	3192
855.792	3146
855.926	3157
856.06	3230
856.194	3253
856.327	3119
856.461	3055
856.595	3138
856.729	3020
856.862	3173
856.996	3161
857.13	3176
857.263	3226
857.397	3230
857.53	3131
857.664	3184
857.797	3233
857.931	3249
858.064	3135
858.197	3222
858.331	3070
858.464	3104
858.597	3036
858.731	3108
858.864	3100
858.997	3085
859.13	3131
859.263	3184
859.396	3195
859.529	3093
859.662	3074
859.795	3032
859.928	3135
860.061	3260
860.194	3321
860.327	3112
860.46	3085
860.592	3233
860.725	3226
860.858	3245
860.99	3077
861.123	3047
861.256	3047
861.388	3119
861.521	3873
861.653	2994
861.786	3013
861.918	3001
862.05	3093
862.183	3074
862.315	3165
862.447	3203
862.58	3108
862.712	2922
862.844	2868
862.976	3017
863.108	3001
863.24	3370
863.372	2891
863.504	2979
863.636	2933
863.768	3032
863.9	3047
864.032	2906
864.164	2975
864.296	3047
864.428	3066
864.559	3108
864.691	3093
864.823	3093
864.954	3043
865.086	3097
865.217	3024
865.349	2944
865.48	3009
865.612	3036
865.743	3192
865.875	3043
866.006	2990
866.137	3047
866.269	2975
866.4	2948
866.531	2971
866.662	2910
866.793	2933
866.924	2937
867.055	2990
867.186	2979
867.317	2925
867.448	2899
867.579	2918
867.71	2891
867.841	2876
867.972	2941
868.103	2944
868.233	2960
868.364	2925
868.495	2941
868.625	3150
868.756	3218
868.886	3024
869.017	3024
869.147	3237
869.278	3241
869.408	3104
869.539	3077
869.669	3165
869.799	3062
869.929	3203
870.06	3142
870.19	3355
870.32	3325
870.45	3389
870.58	3416
870.71	3519
870.84	3481
870.97	3332
871.1	3306
871.23	3523
871.36	3538
871.489	3416
871.619	3454
871.749	3431
871.879	3477
872.008	3500
872.138	3409
872.267	3329
872.397	3230
872.526	3154
872.656	3039
872.785	3157
872.915	3283
873.044	3321
873.173	3264
873.303	3260
873.432	3249
873.561	3256
873.69	3218
873.819	3161
873.948	3264
874.077	3157
874.206	3104
874.335	3108
874.464	3260
874.593	3401
874.722	3264
874.851	3397
874.979	3363
875.108	3367
875.237	3195
875.365	3222
875.494	3226
875.623	3332
875.751	3108
875.88	3188
876.008	3230
876.136	3298
876.265	3405
876.393	3523
876.521	3466
876.65	3428
876.778	3355
876.906	3306
877.034	3249
877.162	3233
877.29	3203
877.418	3313
877.546	3283
877.674	3287
877.802	3283
877.93	3272
878.058	3214
878.185	3154
878.313	3241
878.441	3249
878.568	3119
878.696	3233
878.824	3275
878.951	3310
879.079	3488
879.206	3667
879.333	3466
879.461	3389
879.588	3420
879.715	3507
879.842	3648
879.97	3428
880.097	3173
880.224	3180
880.351	3230
880.478	3287
880.605	3245
880.732	3214
880.859	3538
880.986	3325
881.112	3332
881.239	3233
881.366	3089
881.493	3066
881.619	3093
881.746	3077
881.872	3123
881.999	3154
882.125	3165
882.252	3291
882.378	3332
882.505	3500
882.631	3310
882.757	3203
882.883	3249
883.01	3241
883.136	3184
883.262	3138
883.388	3184
883.514	3310
883.64	3370
883.766	3336
883.892	3241
884.018	3264
884.143	3454
884.269	3625
884.395	3237
884.52	3203
884.646	3188
884.772	3119
884.897	3150
885.023	3218
885.148	3374
885.274	3458
885.399	3424
885.524	3367
885.65	3306
885.775	3397
885.9	3313
886.025	3500
886.15	3405
886.275	3332
886.4	3287
886.525	3348
886.65	3298
886.775	3321
886.9	3504
887.025	3648
887.149	3447
887.274	3298
887.399	3226
887.523	3241
887.648	3173
887.773	3211
887.897	3431
888.021	3458
888.146	3351
888.27	3431
888.395	3576
888.519	3473
888.643	3488
888.767	3477
888.891	3348
889.015	3268
889.139	3329
889.263	3306
889.387	3462
889.511	3568
889.635	3496
889.759	3294
889.883	3321
890.006	3439
890.13	3511
890.254	3332
890.377	3378
890.501	3237
890.624	3222
890.748	3321
890.871	3222
890.995	3180
891.118	3097
891.241	3241
891.364	3264
891.488	3367
891.611	3214
891.734	3268
891.857	3348
891.98	3272
892.103	3359
892.226	3321
892.349	3283
892.471	3173
892.594	3272
892.717	3336
892.839	3306
892.962	3329
893.085	3393
893.207	3351
893.33	3173
893.452	3233
893.575	3382
893.697	3313
893.819	3492
893.941	3530
894.064	3496
894.186	3291
894.308	3302
894.43	3431
894.552	3576
894.674	3496
894.796	3279
894.918	3317
895.04	3321
895.161	3450
895.283	3454
895.405	3344
895.526	3397
895.648	3477
895.769	3477
895.891	3515
896.012	3534
896.134	3496
896.255	3416
896.376	3412
896.498	3386
896.619	3462
896.74	3397
896.861	3443
896.982	3713
897.103	3922
897.224	3652
897.345	3526
897.466	3450
897.587	3542
897.708	3663
897.828	3580
897.949	3477
898.07	3348
898.19	3439
898.311	3641
898.431	3469
898.552	3568
898.672	3660
898.792	3564
898.913	3523
899.033	3473
899.153	3336
899.273	3268
899.393	3317
899.513	3348
899.633	3348
899.753	3389
899.873	3355
899.993	3424
900.113	3386
900.232	3412
900.352	3367
900.472	3321
900.591	3245
900.711	3348
900.83	3298
900.95	3439
901.069	3526
901.189	3405
901.308	3218
901.427	3161
901.546	3226
901.665	3317
901.784	3363
901.904	3211
902.023	3176
902.141	3043
902.26	2979
902.379	3218
902.498	3123
902.617	3097
902.735	3207
902.854	3222
902.973	3214
903.091	3055
903.21	3066
903.328	3146
903.446	3131
903.565	3161
903.683	3256
903.801	3173
903.919	3275
904.038	3344
904.156	3214
904.274	3378
904.392	3287
904.51	3294
904.627	3348
904.745	3439
904.863	3519
904.981	3302
905.098	3253
905.216	3253
905.334	3329
905.451	3298
905.569	3340
905.686	3458
905.803	3454
905.921	3291
906.038	3428
906.155	3424
906.272	3317
906.389	3374
906.506	3279
906.623	3279
906.74	3317
906.857	3226
906.974	3272
907.091	3477
907.208	3633
907.324	3492
907.441	3447
907.557	3294
907.674	3268
907.79	3272
907.907	3329
908.023	3409
908.139	3424
908.256	3332
908.372	3393
908.488	3412
908.604	3283
908.72	3256
908.836	3340
908.952	3298
909.068	3405
909.184	3534
909.3	3420
909.415	3526
909.531	3507
909.647	3310
909.762	3329
909.878	3313
909.993	3367
910.108	3412
910.224	3359
910.339	3428
910.454	3370
910.57	3336
910.685	3245
910.8	3629
910.915	3580
911.03	3500
911.145	3279
911.259	3306
911.374	3329
911.489	3279
911.604	3287
911.718	3146
911.833	3184
911.947	3043
912.062	2994
912.176	3226
912.291	3214
912.405	3214
912.519	3488
912.633	3530
912.748	3363
912.862	3302
912.976	3161
913.09	3112
913.204	3157
913.318	3241
913.431	3355
913.545	3329
913.659	3431
913.772	3374
913.886	3264
914	3226
914.113	3416
914.226	3458
914.34	3363
914.453	3222
914.566	3428
914.68	3321
914.793	3370
914.906	3169
915.019	3157
915.132	3081
915.245	3207
915.358	3233
915.47	3256
915.583	3298
915.696	3291
915.809	3431
915.921	3469
916.034	3310
916.146	3279
916.259	3237
916.371	3382
916.483	3389
916.595	3268
916.708	3351
916.82	3348
916.932	3367
917.044	3310
917.156	3367
917.268	3332
917.38	3329
917.491	3317
917.603	3405
917.715	3485
917.826	3519
917.938	3435
918.049	3306
918.161	3469
918.272	3641
918.384	3618
918.495	3526
918.606	3355
918.717	3260
918.828	3412
918.939	3435
919.05	3355
919.161	3401
919.272	3199
919.383	3302
919.494	3530
919.604	3724
919.715	3515
919.826	3462
919.936	3447
920.047	3618
920.157	3576
920.267	3800
920.378	3618
920.488	3633
920.598	3827
920.708	3998
920.818	3838
920.928	3850
921.038	4059
921.148	4017
921.258	3743
921.368	3656
921.477	3625
921.587	3580
921.697	3477
921.806	3629
921.916	3568
922.025	3382
922.134	3405
922.244	3393
922.353	3439
922.462	3264
922.571	3260
922.68	3100
922.789	3116
922.898	3161
923.007	3104
923.116	3268
923.224	3203
923.333	3211
923.442	3100
923.55	3093
923.659	3176
923.767	3245
923.876	3146
923.984	3264
924.092	3180
924.201	3226
924.309	3245
924.417	3298
924.525	3237
924.633	3275
924.741	4207
924.849	3093
924.956	3287
925.064	3097
925.172	3070
925.279	3108
925.387	3222
925.494	3207
925.602	3340
925.709	3348
925.816	3211
925.924	3287
926.031	3386
926.138	3351
926.245	3409
926.352	3268
926.459	3439
926.566	3462
926.673	3386
926.779	3256
926.886	3287
926.993	3199
927.099	3135
927.206	3104
927.312	3123
927.419	3283
927.525	3214
927.631	3317
927.737	3146
927.843	3161
927.95	3108
928.056	3161
928.162	3165
928.267	3291
928.373	3869
928.479	3336
928.585	3051
928.69	3272
928.796	3268
928.901	3157
929.007	3093
929.112	3222
929.218	3146
929.323	3150
929.428	3169
929.533	3348
929.638	3150
929.743	3138
929.848	3264
929.953	3199
930.058	3188
930.163	3020
930.267	3093
930.372	3241
930.477	3077
930.581	3355
930.685	3207
930.79	3104
930.894	3165
930.998	3127
931.103	3302
931.207	2982
931.311	2998
931.415	2979
931.519	2796
931.623	2849
