Data from test_V78500241_1811.txt Node
Date: Fri Mar 25 16:27:44 CST 2022
User: usil
Spectrometer: V785-0024
Trigger mode: 0
Integration Time (sec): 4.000000E-1
Scans to average: 1
Nonlinearity correction enabled: false
Boxcar width: 0
Storing dark spectrum: false
XAxis mode: Wavelengths
Number of Pixels in Spectrum: 1024
>>>>>Begin Spectral Data<<<<<
801.071	2925
801.214	2937
801.356	2887
801.499	2891
801.641	2861
801.783	2956
801.926	3017
802.068	2979
802.211	2998
802.353	3005
802.496	3001
802.638	2990
802.78	3032
802.923	3100
803.065	2998
803.208	2906
803.35	2918
803.492	2937
803.635	2906
803.777	2796
803.919	2861
804.061	3180
804.204	2952
804.346	2918
804.488	2845
804.63	2998
804.773	2872
804.915	2891
805.057	3055
805.199	2914
805.341	2979
805.483	3032
805.626	2998
805.768	2971
805.91	3070
806.052	3074
806.194	2986
806.336	3226
806.478	3051
806.62	2971
806.762	2982
806.904	3047
807.046	3169
807.188	2967
807.33	2910
807.472	3020
807.614	2895
807.756	3017
807.898	2944
808.04	2910
808.182	2963
808.324	2941
808.465	2899
808.607	2868
808.749	2788
808.891	2842
809.033	2994
809.174	2971
809.316	2902
809.458	2918
809.6	2804
809.741	2743
809.883	2758
810.025	2830
810.166	2838
810.308	2857
810.45	2876
810.591	2773
810.733	2804
810.875	2811
811.016	2781
811.158	2769
811.299	2800
811.441	2960
811.582	2857
811.724	2823
811.865	2842
812.007	2941
812.148	2876
812.29	2872
812.431	2853
812.573	2895
812.714	2929
812.855	3028
812.997	3047
813.138	3108
813.279	2982
813.421	2971
813.562	2941
813.703	2891
813.845	2891
813.986	2800
814.127	2735
814.268	2868
814.41	2853
814.551	2807
814.692	2849
814.833	2807
814.974	2902
815.115	2910
815.256	2864
815.397	2777
815.539	2872
815.68	2762
815.821	2785
815.962	2948
816.103	2986
816.244	2868
816.385	2853
816.526	2979
816.666	2899
816.807	2750
816.948	2906
817.089	2906
817.23	2864
817.371	2762
817.512	2796
817.653	2834
817.793	2796
817.934	2880
818.075	2975
818.216	2990
818.356	3001
818.497	2864
818.638	2804
818.778	2826
818.919	2781
819.06	2777
819.2	2868
819.341	2811
819.481	2800
819.622	2902
819.762	3112
819.903	3032
820.043	2952
820.184	2895
820.324	2899
820.465	2990
820.605	3009
820.746	3013
820.886	2914
821.026	3089
821.167	3138
821.307	3298
821.447	3302
821.588	3237
821.728	3230
821.868	3192
822.008	3051
822.149	3211
822.289	3237
822.429	3066
822.569	3077
822.709	3173
822.849	3024
822.99	3093
823.13	3150
823.27	3222
823.41	3135
823.55	3104
823.69	3127
823.83	3230
823.97	3093
824.11	2975
824.25	2982
824.389	3074
824.529	3081
824.669	3093
824.809	3180
824.949	3268
825.089	3176
825.228	3146
825.368	3024
825.508	2925
825.648	2963
825.787	2986
825.927	3020
826.067	2941
826.206	2990
826.346	3051
826.485	3047
826.625	3070
826.765	3279
826.904	3214
827.044	2986
827.183	2933
827.323	2842
827.462	3017
827.601	2880
827.741	2883
827.88	2925
828.02	2838
828.159	2982
828.298	3055
828.437	3138
828.577	3051
828.716	3237
828.855	3062
828.994	2906
829.134	2895
829.273	2887
829.412	2838
829.551	2876
829.69	2887
829.829	2979
829.968	3119
830.107	2998
830.246	3005
830.385	2895
830.524	2880
830.663	2830
830.802	2724
830.941	2636
831.08	2686
831.219	2708
831.357	2769
831.496	2948
831.635	2766
831.774	2648
831.913	2651
832.051	2568
832.19	2587
832.329	2674
832.467	2507
832.606	2484
832.744	2610
832.883	2579
833.022	2571
833.16	2655
833.299	2705
833.437	2697
833.576	2716
833.714	2743
833.852	2735
833.991	2766
834.129	2842
834.267	2849
834.406	2823
834.544	2868
834.682	2861
834.821	2910
834.959	3051
835.097	2876
835.235	3039
835.373	2979
835.511	3001
835.65	2925
835.788	2941
835.926	2811
836.064	2819
836.202	2842
836.34	3085
836.478	3150
836.615	3055
836.753	3138
836.891	3214
837.029	3154
837.167	3058
837.305	3062
837.443	3020
837.58	2948
837.718	3135
837.856	3058
837.993	3032
838.131	3100
838.269	3089
838.406	3104
838.544	3077
838.681	2914
838.819	2918
838.956	2788
839.094	2838
839.231	2948
839.369	2998
839.506	3348
839.643	3241
839.781	2963
839.918	2944
840.055	3070
840.193	3028
840.33	3043
840.467	3097
840.604	3161
840.742	3382
840.879	3013
841.016	3047
841.153	3100
841.29	3325
841.427	3313
841.564	3272
841.701	3325
841.838	3214
841.975	3169
842.112	3184
842.249	3062
842.385	3039
842.522	3256
842.659	3066
842.796	3024
842.933	3097
843.069	3039
843.206	3017
843.343	3188
843.479	3116
843.616	3135
843.752	2864
843.889	2845
844.025	3055
844.162	2887
844.298	3062
844.435	2929
844.571	2922
844.708	3085
844.844	3173
844.98	3237
845.117	3207
845.253	3081
845.389	3005
845.525	3100
845.661	3100
845.798	3001
845.934	3150
846.07	3051
846.206	3211
846.342	3310
846.478	3226
846.614	3028
846.75	3043
846.886	3013
847.022	3241
847.158	3142
847.294	3184
847.429	3245
847.565	3211
847.701	3504
847.837	3051
847.972	2994
848.108	3142
848.244	3135
848.379	2971
848.515	2918
848.65	2883
848.786	2956
848.921	3013
849.057	3097
849.192	3116
849.328	3032
849.463	3108
849.598	3070
849.734	3013
849.869	2967
850.004	2941
850.14	2948
850.275	2906
850.41	2819
850.545	2895
850.68	2902
850.815	2952
850.95	2956
851.085	3188
851.22	3135
851.355	3024
851.49	2975
851.625	3036
851.76	2990
851.895	2929
852.03	2891
852.165	3001
852.299	3089
852.434	3165
852.569	3176
852.703	3146
852.838	3207
852.973	3351
853.107	3336
853.242	3127
853.376	3081
853.511	2979
853.645	3062
853.78	3230
853.914	3108
854.048	3104
854.183	3108
854.317	3135
854.451	3283
854.585	3123
854.72	3089
854.854	3230
854.988	3055
855.122	3085
855.256	2998
855.39	3119
855.524	3253
855.658	3176
855.792	3154
855.926	3165
856.06	3207
856.194	3264
856.327	3108
856.461	3066
856.595	3074
856.729	3081
856.862	3188
856.996	3138
857.13	3211
857.263	3237
857.397	3233
857.53	3077
857.664	3176
857.797	3211
857.931	3272
858.064	3180
858.197	3199
858.331	3150
858.464	3108
858.597	3001
858.731	3097
858.864	3123
858.997	3074
859.13	3157
859.263	3157
859.396	3241
859.529	3123
859.662	3058
859.795	3032
859.928	3112
860.061	3294
860.194	3245
860.327	3135
860.46	3093
860.592	3249
860.725	3230
860.858	3256
860.99	3093
861.123	3066
861.256	3043
861.388	3154
861.521	3854
861.653	3013
861.786	2986
861.918	2994
862.05	3089
862.183	3089
862.315	3135
862.447	3180
862.58	3062
862.712	2952
862.844	2880
862.976	3028
863.108	3005
863.24	3428
863.372	2887
863.504	2952
863.636	2937
863.768	3013
863.9	2956
864.032	2868
864.164	2944
864.296	3017
864.428	3062
864.559	3085
864.691	3032
864.823	3055
864.954	3032
865.086	3062
865.217	3001
865.349	2937
865.48	2998
865.612	2998
865.743	3157
865.875	2960
866.006	2883
866.137	2952
866.269	2956
866.4	2963
866.531	2963
866.662	2895
866.793	2895
866.924	2929
867.055	2956
867.186	2941
867.317	2899
867.448	2857
867.579	2845
867.71	2811
867.841	2849
867.972	2902
868.103	2883
868.233	2883
868.364	2838
868.495	2914
868.625	3085
868.756	3195
868.886	3013
869.017	3009
869.147	3161
869.278	3146
869.408	3066
869.539	3024
869.669	3085
869.799	3024
869.929	3112
870.06	3112
870.19	3321
870.32	3294
870.45	3291
870.58	3374
870.71	3450
870.84	3431
870.97	3256
871.1	3253
871.23	3458
871.36	3424
871.489	3348
871.619	3405
871.749	3412
871.879	3469
872.008	3485
872.138	3397
872.267	3306
872.397	3146
872.526	3081
872.656	2944
872.785	3100
872.915	3222
873.044	3325
873.173	3226
873.303	3230
873.432	3218
873.561	3226
873.69	3161
873.819	3112
873.948	3233
874.077	3123
874.206	3017
874.335	3058
874.464	3230
874.593	3332
874.722	3272
874.851	3439
874.979	3321
875.108	3313
875.237	3226
875.365	3116
875.494	3123
875.623	3207
875.751	3043
875.88	3100
876.008	3192
876.136	3211
876.265	3367
876.393	3507
876.521	3405
876.65	3416
876.778	3294
876.906	3245
877.034	3192
877.162	3222
877.29	3214
877.418	3264
877.546	3275
877.674	3264
877.802	3222
877.93	3192
878.058	3173
878.185	3077
878.313	3230
878.441	3230
878.568	3081
878.696	3146
878.824	3241
878.951	3325
879.079	3466
879.206	3606
879.333	3481
879.461	3317
879.588	3367
879.715	3481
879.842	3576
879.97	3401
880.097	3176
880.224	3169
880.351	3165
880.478	3233
880.605	3195
880.732	3192
880.859	3466
880.986	3283
881.112	3355
881.239	3154
881.366	3112
881.493	3058
881.619	3051
881.746	3085
881.872	3085
881.999	3085
882.125	3165
882.252	3237
882.378	3298
882.505	3409
882.631	3313
882.757	3146
882.883	3207
883.01	3207
883.136	3150
883.262	3089
883.388	3138
883.514	3291
883.64	3336
883.766	3294
883.892	3180
884.018	3245
884.143	3435
884.269	3519
884.395	3203
884.52	3154
884.646	3180
884.772	3135
884.897	3100
885.023	3173
885.148	3340
885.274	3363
885.399	3340
885.524	3275
885.65	3256
885.775	3332
885.9	3291
886.025	3424
886.15	3363
886.275	3294
886.4	3268
886.525	3260
886.65	3302
886.775	3283
886.9	3462
887.025	3622
887.149	3378
887.274	3230
887.399	3165
887.523	3180
887.648	3161
887.773	3173
887.897	3344
888.021	3412
888.146	3302
888.27	3435
888.395	3488
888.519	3409
888.643	3420
888.767	3477
888.891	3310
889.015	3214
889.139	3256
889.263	3249
889.387	3378
889.511	3443
889.635	3431
889.759	3256
889.883	3291
890.006	3401
890.13	3466
890.254	3275
890.377	3325
890.501	3165
890.624	3192
890.748	3283
890.871	3161
890.995	3074
891.118	3055
891.241	3169
891.364	3188
891.488	3348
891.611	3127
891.734	3218
891.857	3279
891.98	3226
892.103	3355
892.226	3287
892.349	3218
892.471	3089
892.594	3260
892.717	3249
892.839	3256
892.962	3310
893.085	3370
893.207	3287
893.33	3131
893.452	3199
893.575	3344
893.697	3230
893.819	3458
893.941	3477
894.064	3431
894.186	3264
894.308	3256
894.43	3420
894.552	3572
894.674	3420
894.796	3256
894.918	3306
895.04	3272
895.161	3447
895.283	3389
895.405	3279
895.526	3374
895.648	3443
895.769	3405
895.891	3412
896.012	3435
896.134	3447
896.255	3420
896.376	3340
896.498	3325
896.619	3450
896.74	3336
896.861	3405
896.982	3675
897.103	3831
897.224	3564
897.345	3485
897.466	3416
897.587	3466
897.708	3625
897.828	3507
897.949	3443
898.07	3363
898.19	3405
898.311	3580
898.431	3477
898.552	3458
898.672	3606
898.792	3568
898.913	3515
899.033	3439
899.153	3321
899.273	3211
899.393	3336
899.513	3306
899.633	3336
899.753	3344
899.873	3291
899.993	3370
900.113	3321
900.232	3397
900.352	3374
900.472	3294
900.591	3241
900.711	3298
900.83	3237
900.95	3420
901.069	3526
901.189	3291
901.308	3195
901.427	3100
901.546	3131
901.665	3294
901.784	3336
901.904	3199
902.023	3142
902.141	3005
902.26	2986
902.379	3127
902.498	3104
902.617	3051
902.735	3195
902.854	3211
902.973	3154
903.091	3062
903.21	3058
903.328	3131
903.446	3165
903.565	3100
903.683	3161
903.801	3135
903.919	3218
904.038	3275
904.156	3165
904.274	3287
904.392	3241
904.51	3272
904.627	3355
904.745	3447
904.863	3507
904.981	3253
905.098	3180
905.216	3237
905.334	3264
905.451	3306
905.569	3321
905.686	3397
905.803	3439
905.921	3275
906.038	3420
906.155	3363
906.272	3264
906.389	3336
906.506	3241
906.623	3245
906.74	3306
906.857	3173
906.974	3249
907.091	3443
907.208	3576
907.324	3530
907.441	3389
907.557	3222
907.674	3249
907.79	3184
907.907	3260
908.023	3409
908.139	3393
908.256	3344
908.372	3382
908.488	3340
908.604	3268
908.72	3245
908.836	3264
908.952	3237
909.068	3332
909.184	3477
909.3	3363
909.415	3523
909.531	3477
909.647	3287
909.762	3313
909.878	3241
909.993	3344
910.108	3336
910.224	3359
910.339	3401
910.454	3275
910.57	3291
910.685	3192
910.8	3603
910.915	3538
911.03	3435
911.145	3275
911.259	3256
911.374	3313
911.489	3241
911.604	3207
911.718	3119
911.833	3112
911.947	3032
912.062	2956
912.176	3165
912.291	3169
912.405	3203
912.519	3412
912.633	3473
912.748	3332
912.862	3256
912.976	3176
913.09	3051
913.204	3123
913.318	3268
913.431	3310
913.545	3313
913.659	3397
913.772	3332
913.886	3195
914	3195
914.113	3378
914.226	3416
914.34	3382
914.453	3218
914.566	3443
914.68	3268
914.793	3298
914.906	3104
915.019	3104
915.132	3028
915.245	3180
915.358	3192
915.47	3192
915.583	3237
915.696	3272
915.809	3431
915.921	3397
916.034	3279
916.146	3253
916.259	3195
916.371	3367
916.483	3363
916.595	3253
916.708	3355
916.82	3287
916.932	3344
917.044	3291
917.156	3332
917.268	3237
917.38	3302
917.491	3275
917.603	3344
917.715	3443
917.826	3458
917.938	3405
918.049	3245
918.161	3416
918.272	3580
918.384	3557
918.495	3462
918.606	3344
918.717	3241
918.828	3378
918.939	3443
919.05	3283
919.161	3351
919.272	3165
919.383	3298
919.494	3500
919.604	3637
919.715	3519
919.826	3401
919.936	3473
920.047	3614
920.157	3538
920.267	3770
920.378	3572
920.488	3549
920.598	3724
920.708	3979
920.818	3808
920.928	3819
921.038	4013
921.148	3994
921.258	3675
921.368	3584
921.477	3610
921.587	3496
921.697	3466
921.806	3603
921.916	3530
922.025	3351
922.134	3378
922.244	3329
922.353	3458
922.462	3237
922.571	3230
922.68	3100
922.789	3066
922.898	3154
923.007	3100
923.116	3192
923.224	3165
923.333	3157
923.442	3100
923.55	3062
923.659	3142
923.767	3233
923.876	3074
923.984	3245
924.092	3104
924.201	3165
924.309	3256
924.417	3192
924.525	3188
924.633	3241
924.741	4006
924.849	3028
924.956	3245
925.064	3104
925.172	3062
925.279	3085
925.387	3199
925.494	3222
925.602	3355
925.709	3340
925.816	3173
925.924	3313
926.031	3397
926.138	3310
926.245	3336
926.352	3256
926.459	3450
926.566	3454
926.673	3298
926.779	3249
926.886	3211
926.993	3150
927.099	3142
927.206	3119
927.312	3104
927.419	3275
927.525	3230
927.631	3237
927.737	3131
927.843	3097
927.95	2994
928.056	3123
928.162	3165
928.267	3241
928.373	3759
928.479	3348
928.585	3093
928.69	3245
928.796	3241
928.901	3188
929.007	3020
929.112	3253
929.218	3199
929.323	3119
929.428	3127
929.533	3325
929.638	3127
929.743	3135
929.848	3237
929.953	3214
930.058	3138
930.163	3020
930.267	3070
930.372	3195
930.477	3009
930.581	3294
930.685	3127
930.79	3077
930.894	3089
930.998	3112
931.103	3275
931.207	2933
931.311	2948
931.415	2922
931.519	2754
931.623	2792
