Data from test_V78500241_1231.txt Node
Date: Fri Mar 25 16:23:43 CST 2022
User: usil
Spectrometer: V785-0024
Trigger mode: 0
Integration Time (sec): 4.000000E-1
Scans to average: 1
Nonlinearity correction enabled: false
Boxcar width: 0
Storing dark spectrum: false
XAxis mode: Wavelengths
Number of Pixels in Spectrum: 1024
>>>>>Begin Spectral Data<<<<<
801.071	2891
801.214	2963
801.356	2864
801.499	2895
801.641	2861
801.783	2868
801.926	3062
802.068	2952
802.211	2956
802.353	3100
802.496	2948
802.638	2982
802.78	3051
802.923	3097
803.065	2998
803.208	2899
803.35	2937
803.492	2922
803.635	2918
803.777	2773
803.919	2902
804.061	3161
804.204	2941
804.346	2895
804.488	2864
804.63	2960
804.773	2857
804.915	2929
805.057	3074
805.199	2952
805.341	2982
805.483	3058
805.626	2986
805.768	2963
805.91	3081
806.052	3100
806.194	3032
806.336	3218
806.478	3013
806.62	2933
806.762	2986
806.904	3074
807.046	3154
807.188	2979
807.33	2929
807.472	2982
807.614	2899
807.756	2998
807.898	2986
808.04	2861
808.182	2994
808.324	2937
808.465	2891
808.607	2861
808.749	2800
808.891	2845
809.033	2971
809.174	2971
809.316	2887
809.458	2876
809.6	2769
809.741	2769
809.883	2800
810.025	2857
810.166	2807
810.308	2834
810.45	2807
810.591	2739
810.733	2785
810.875	2807
811.016	2785
811.158	2739
811.299	2811
811.441	2941
811.582	2918
811.724	2785
811.865	2819
812.007	2910
812.148	2872
812.29	2823
812.431	2876
812.573	2933
812.714	2975
812.855	3058
812.997	3074
813.138	3116
813.279	3024
813.421	2990
813.562	2967
813.703	2864
813.845	2895
813.986	2762
814.127	2701
814.268	2811
814.41	2807
814.551	2823
814.692	2849
814.833	2838
814.974	2876
815.115	2956
815.256	2838
815.397	2838
815.539	2891
815.68	2788
815.821	2826
815.962	2952
816.103	2899
816.244	2880
816.385	2842
816.526	2937
816.666	2922
816.807	2758
816.948	2868
817.089	2933
817.23	2872
817.371	2773
817.512	2800
817.653	2800
817.793	2807
817.934	2868
818.075	2956
818.216	2998
818.356	3024
818.497	2933
818.638	2811
818.778	2823
818.919	2766
819.06	2754
819.2	2857
819.341	2777
819.481	2804
819.622	2914
819.762	3051
819.903	3017
820.043	2918
820.184	2868
820.324	2887
820.465	3009
820.605	3013
820.746	2986
820.886	2914
821.026	3093
821.167	3184
821.307	3218
821.447	3294
821.588	3279
821.728	3218
821.868	3207
822.008	3051
822.149	3222
822.289	3222
822.429	3097
822.569	3074
822.709	3161
822.849	3020
822.99	3062
823.13	3184
823.27	3218
823.41	3081
823.55	3173
823.69	3165
823.83	3214
823.97	3070
824.11	2994
824.25	3020
824.389	3085
824.529	3097
824.669	3051
824.809	3176
824.949	3211
825.089	3176
825.228	3135
825.368	3005
825.508	2979
825.648	2979
825.787	2990
825.927	3013
826.067	2956
826.206	2948
826.346	3081
826.485	3051
826.625	3116
826.765	3256
826.904	3233
827.044	2967
827.183	2906
827.323	2861
827.462	3028
827.601	2899
827.741	2929
827.88	2937
828.02	2815
828.159	2952
828.298	3005
828.437	3081
828.577	3047
828.716	3264
828.855	3081
828.994	2891
829.134	2887
829.273	2914
829.412	2845
829.551	2864
829.69	2853
829.829	2956
829.968	3127
830.107	2990
830.246	2975
830.385	2918
830.524	2853
830.663	2777
830.802	2727
830.941	2640
831.08	2621
831.219	2766
831.357	2773
831.496	2944
831.635	2727
831.774	2648
831.913	2640
832.051	2556
832.19	2598
832.329	2663
832.467	2530
832.606	2480
832.744	2571
832.883	2617
833.022	2594
833.16	2621
833.299	2667
833.437	2697
833.576	2670
833.714	2697
833.852	2724
833.991	2754
834.129	2845
834.267	2853
834.406	2773
834.544	2849
834.682	2887
834.821	2826
834.959	3017
835.097	2872
835.235	3032
835.373	3001
835.511	3024
835.65	2960
835.788	2929
835.926	2811
836.064	2849
836.202	2849
836.34	3062
836.478	3112
836.615	3020
836.753	3116
836.891	3211
837.029	3138
837.167	3123
837.305	3058
837.443	3055
837.58	2952
837.718	3131
837.856	3070
837.993	3036
838.131	3077
838.269	3097
838.406	3093
838.544	3085
838.681	2963
838.819	2944
838.956	2819
839.094	2823
839.231	2910
839.369	3013
839.506	3409
839.643	3214
839.781	3013
839.918	2956
840.055	3020
840.193	3036
840.33	3032
840.467	3062
840.604	3173
840.742	3374
840.879	3001
841.016	3036
841.153	3104
841.29	3332
841.427	3302
841.564	3249
841.701	3306
841.838	3226
841.975	3176
842.112	3253
842.249	3058
842.385	3039
842.522	3249
842.659	3100
842.796	3085
842.933	3119
843.069	3017
843.206	3009
843.343	3199
843.479	3085
843.616	3108
843.752	2857
843.889	2864
844.025	3062
844.162	2864
844.298	3100
844.435	2906
844.571	2910
844.708	3085
844.844	3188
844.98	3184
845.117	3169
845.253	3043
845.389	2990
845.525	3123
845.661	3116
845.798	2986
845.934	3089
846.07	3028
846.206	3241
846.342	3283
846.478	3253
846.614	3100
846.75	3066
846.886	3013
847.022	3241
847.158	3104
847.294	3192
847.429	3264
847.565	3207
847.701	3511
847.837	3005
847.972	2971
848.108	3176
848.244	3119
848.379	2963
848.515	2941
848.65	2922
848.786	2929
848.921	3009
849.057	3112
849.192	3146
849.328	3070
849.463	3081
849.598	3039
849.734	3032
849.869	2990
850.004	2910
850.14	2952
850.275	2906
850.41	2842
850.545	2895
850.68	2910
850.815	2922
850.95	2956
851.085	3184
851.22	3093
851.355	3024
851.49	2929
851.625	2971
851.76	2979
851.895	2895
852.03	2906
852.165	3047
852.299	3093
852.434	3154
852.569	3116
852.703	3169
852.838	3214
852.973	3306
853.107	3336
853.242	3161
853.376	3104
853.511	2998
853.645	3043
853.78	3211
853.914	3070
854.048	3104
854.183	3081
854.317	3154
854.451	3283
854.585	3108
854.72	3036
854.854	3169
854.988	3039
855.122	3089
855.256	2982
855.39	3112
855.524	3199
855.658	3146
855.792	3169
855.926	3211
856.06	3173
856.194	3218
856.327	3150
856.461	3036
856.595	3123
856.729	3100
856.862	3199
856.996	3119
857.13	3195
857.263	3165
857.397	3245
857.53	3123
857.664	3218
857.797	3218
857.931	3264
858.064	3154
858.197	3222
858.331	3154
858.464	3062
858.597	2971
858.731	3077
858.864	3131
858.997	3089
859.13	3154
859.263	3161
859.396	3211
859.529	3089
859.662	3055
859.795	3043
859.928	3157
860.061	3253
860.194	3253
860.327	3119
860.46	3089
860.592	3264
860.725	3203
860.858	3245
860.99	3112
861.123	3055
861.256	3039
861.388	3127
861.521	3694
861.653	3020
861.786	3001
861.918	2994
862.05	3066
862.183	3112
862.315	3142
862.447	3214
862.58	3093
862.712	2982
862.844	2872
862.976	3017
863.108	3009
863.24	3313
863.372	2872
863.504	2925
863.636	2944
863.768	3028
863.9	2998
864.032	2899
864.164	2925
864.296	3024
864.428	3055
864.559	3104
864.691	3036
864.823	3055
864.954	3028
865.086	3043
865.217	3009
865.349	2956
865.48	2998
865.612	2986
865.743	3169
865.875	2975
866.006	2944
866.137	2971
866.269	2914
866.4	2941
866.531	2891
866.662	2910
866.793	2861
866.924	2880
867.055	2937
867.186	2902
867.317	2910
867.448	2830
867.579	2849
867.71	2849
867.841	2815
867.972	2891
868.103	2876
868.233	2887
868.364	2902
868.495	2937
868.625	3070
868.756	3173
868.886	2967
869.017	3005
869.147	3180
869.278	3161
869.408	3020
869.539	3020
869.669	3066
869.799	3047
869.929	3119
870.06	3104
870.19	3298
870.32	3291
870.45	3298
870.58	3367
870.71	3447
870.84	3443
870.97	3283
871.1	3253
871.23	3477
871.36	3450
871.489	3336
871.619	3409
871.749	3393
871.879	3412
872.008	3473
872.138	3313
872.267	3287
872.397	3157
872.526	3093
872.656	3051
872.785	3100
872.915	3218
873.044	3294
873.173	3214
873.303	3249
873.432	3237
873.561	3249
873.69	3157
873.819	3142
873.948	3192
874.077	3100
874.206	3032
874.335	3097
874.464	3237
874.593	3351
874.722	3256
874.851	3370
874.979	3374
875.108	3325
875.237	3233
875.365	3150
875.494	3093
875.623	3279
875.751	3043
875.88	3116
876.008	3169
876.136	3218
876.265	3340
876.393	3496
876.521	3428
876.65	3386
876.778	3313
876.906	3237
877.034	3157
877.162	3218
877.29	3150
877.418	3211
877.546	3211
877.674	3211
877.802	3268
877.93	3203
878.058	3146
878.185	3097
878.313	3184
878.441	3214
878.568	3097
878.696	3157
878.824	3226
878.951	3302
879.079	3458
879.206	3629
879.333	3428
879.461	3340
879.588	3370
879.715	3458
879.842	3584
879.97	3401
880.097	3169
880.224	3123
880.351	3195
880.478	3226
880.605	3203
880.732	3176
880.859	3511
880.986	3298
881.112	3310
881.239	3184
881.366	3081
881.493	3028
881.619	3051
881.746	3051
881.872	3097
881.999	3104
882.125	3116
882.252	3211
882.378	3325
882.505	3428
882.631	3249
882.757	3146
882.883	3207
883.01	3233
883.136	3161
883.262	3089
883.388	3100
883.514	3325
883.64	3374
883.766	3329
883.892	3226
884.018	3268
884.143	3386
884.269	3584
884.395	3165
884.52	3199
884.646	3184
884.772	3123
884.897	3104
885.023	3157
885.148	3355
885.274	3397
885.399	3378
885.524	3253
885.65	3279
885.775	3298
885.9	3298
886.025	3382
886.15	3340
886.275	3249
886.4	3222
886.525	3302
886.65	3264
886.775	3302
886.9	3485
887.025	3584
887.149	3416
887.274	3222
887.399	3184
887.523	3180
887.648	3207
887.773	3195
887.897	3382
888.021	3401
888.146	3298
888.27	3447
888.395	3561
888.519	3409
888.643	3428
888.767	3420
888.891	3317
889.015	3279
889.139	3268
889.263	3253
889.387	3382
889.511	3549
889.635	3405
889.759	3321
889.883	3302
890.006	3382
890.13	3496
890.254	3283
890.377	3355
890.501	3195
890.624	3142
890.748	3325
890.871	3138
890.995	3100
891.118	3028
891.241	3188
891.364	3188
891.488	3321
891.611	3173
891.734	3214
891.857	3275
891.98	3256
892.103	3310
892.226	3241
892.349	3173
892.471	3093
892.594	3249
892.717	3287
892.839	3226
892.962	3279
893.085	3344
893.207	3275
893.33	3108
893.452	3184
893.575	3321
893.697	3241
893.819	3492
893.941	3504
894.064	3416
894.186	3245
894.308	3253
894.43	3431
894.552	3523
894.674	3469
894.796	3264
894.918	3256
895.04	3249
895.161	3424
895.283	3363
895.405	3260
895.526	3363
895.648	3420
895.769	3389
895.891	3447
896.012	3458
896.134	3431
896.255	3412
896.376	3359
896.498	3313
896.619	3401
896.74	3336
896.861	3412
896.982	3694
897.103	3819
897.224	3606
897.345	3481
897.466	3450
897.587	3469
897.708	3595
897.828	3538
897.949	3454
898.07	3294
898.19	3374
898.311	3595
898.431	3447
898.552	3469
898.672	3633
898.792	3564
898.913	3500
899.033	3405
899.153	3287
899.273	3203
899.393	3306
899.513	3317
899.633	3298
899.753	3389
899.873	3321
899.993	3409
900.113	3275
900.232	3401
900.352	3310
900.472	3294
900.591	3211
900.711	3332
900.83	3233
900.95	3416
901.069	3477
901.189	3378
901.308	3192
901.427	3131
901.546	3195
901.665	3313
901.784	3321
901.904	3218
902.023	3157
902.141	3001
902.26	2944
902.379	3142
902.498	3070
902.617	3036
902.735	3195
902.854	3218
902.973	3214
903.091	3017
903.21	3058
903.328	3108
903.446	3077
903.565	3104
903.683	3188
903.801	3169
903.919	3249
904.038	3279
904.156	3169
904.274	3268
904.392	3253
904.51	3249
904.627	3351
904.745	3420
904.863	3469
904.981	3233
905.098	3188
905.216	3230
905.334	3275
905.451	3336
905.569	3264
905.686	3409
905.803	3435
905.921	3260
906.038	3378
906.155	3351
906.272	3260
906.389	3336
906.506	3218
906.623	3222
906.74	3241
906.857	3165
906.974	3230
907.091	3431
907.208	3591
907.324	3439
907.441	3355
907.557	3207
907.674	3207
907.79	3203
907.907	3302
908.023	3378
908.139	3344
908.256	3336
908.372	3355
908.488	3389
908.604	3253
908.72	3245
908.836	3313
908.952	3291
909.068	3351
909.184	3507
909.3	3397
909.415	3500
909.531	3507
909.647	3272
909.762	3264
909.878	3279
909.993	3367
910.108	3313
910.224	3321
910.339	3424
910.454	3310
910.57	3226
910.685	3230
910.8	3564
910.915	3500
911.03	3409
911.145	3207
911.259	3249
911.374	3310
911.489	3241
911.604	3222
911.718	3066
911.833	3157
911.947	3058
912.062	2956
912.176	3150
912.291	3195
912.405	3211
912.519	3416
912.633	3466
912.748	3359
912.862	3272
912.976	3173
913.09	3055
913.204	3108
913.318	3173
913.431	3378
913.545	3294
913.659	3409
913.772	3336
913.886	3245
914	3222
914.113	3329
914.226	3409
914.34	3351
914.453	3245
914.566	3409
914.68	3226
914.793	3291
914.906	3176
915.019	3074
915.132	3051
915.245	3203
915.358	3218
915.47	3218
915.583	3283
915.696	3287
915.809	3363
915.921	3405
916.034	3230
916.146	3253
916.259	3207
916.371	3367
916.483	3348
916.595	3249
916.708	3310
916.82	3310
916.932	3325
917.044	3355
917.156	3306
917.268	3279
917.38	3279
917.491	3294
917.603	3359
917.715	3481
917.826	3412
917.938	3386
918.049	3233
918.161	3420
918.272	3557
918.384	3542
918.495	3477
918.606	3321
918.717	3279
918.828	3393
918.939	3409
919.05	3294
919.161	3359
919.272	3195
919.383	3291
919.494	3504
919.604	3663
919.715	3466
919.826	3359
919.936	3428
920.047	3549
920.157	3572
920.267	3698
920.378	3633
920.488	3591
920.598	3766
920.708	3941
920.818	3819
920.928	3812
921.038	3998
921.148	4013
921.258	3755
921.368	3587
921.477	3553
921.587	3515
921.697	3443
921.806	3595
921.916	3526
922.025	3306
922.134	3378
922.244	3310
922.353	3439
922.462	3249
922.571	3207
922.68	3070
922.789	3036
922.898	3131
923.007	3089
923.116	3188
923.224	3161
923.333	3154
923.442	3097
923.55	3097
923.659	3138
923.767	3218
923.876	3123
923.984	3226
924.092	3116
924.201	3218
924.309	3211
924.417	3245
924.525	3184
924.633	3226
924.741	4010
924.849	3039
924.956	3268
925.064	3085
925.172	3009
925.279	3074
925.387	3195
925.494	3184
925.602	3340
925.709	3332
925.816	3176
925.924	3287
926.031	3336
926.138	3313
926.245	3363
926.352	3287
926.459	3409
926.566	3488
926.673	3306
926.779	3207
926.886	3256
926.993	3184
927.099	3138
927.206	3131
927.312	3093
927.419	3180
927.525	3195
927.631	3226
927.737	3100
927.843	3138
927.95	2986
928.056	3131
928.162	3146
928.267	3256
928.373	3854
928.479	3310
928.585	3070
928.69	3161
928.796	3253
928.901	3146
929.007	3062
929.112	3207
929.218	3161
929.323	3138
929.428	3146
929.533	3294
929.638	3093
929.743	3199
929.848	3268
929.953	3256
930.058	3112
930.163	2986
930.267	3036
930.372	3169
930.477	3070
930.581	3329
930.685	3142
930.79	3047
930.894	3138
930.998	3093
931.103	3291
931.207	2941
931.311	2941
931.415	2910
931.519	2781
931.623	2788
