Data from test_V78500241_1385.txt Node
Date: Fri Mar 25 16:24:47 CST 2022
User: usil
Spectrometer: V785-0024
Trigger mode: 0
Integration Time (sec): 4.000000E-1
Scans to average: 1
Nonlinearity correction enabled: false
Boxcar width: 0
Storing dark spectrum: false
XAxis mode: Wavelengths
Number of Pixels in Spectrum: 1024
>>>>>Begin Spectral Data<<<<<
801.071	2925
801.214	2944
801.356	2929
801.499	2929
801.641	2899
801.783	2918
801.926	3051
802.068	3024
802.211	2979
802.353	3077
802.496	2994
802.638	3013
802.78	3039
802.923	3081
803.065	2986
803.208	2918
803.35	2922
803.492	2956
803.635	2910
803.777	2785
803.919	2891
804.061	3233
804.204	2979
804.346	2918
804.488	2857
804.63	2994
804.773	2876
804.915	2937
805.057	3093
805.199	2933
805.341	3009
805.483	3081
805.626	3028
805.768	2971
805.91	3089
806.052	3138
806.194	3043
806.336	3241
806.478	3020
806.62	2975
806.762	2944
806.904	3074
807.046	3180
807.188	2982
807.33	2925
807.472	3005
807.614	2918
807.756	2982
807.898	2891
808.04	2902
808.182	3005
808.324	2994
808.465	2872
808.607	2883
808.749	2788
808.891	2880
809.033	2975
809.174	2982
809.316	2895
809.458	2887
809.6	2769
809.741	2788
809.883	2788
810.025	2872
810.166	2853
810.308	2853
810.45	2853
810.591	2807
810.733	2769
810.875	2819
811.016	2769
811.158	2762
811.299	2807
811.441	2933
811.582	2899
811.724	2838
811.865	2826
812.007	2902
812.148	2880
812.29	2819
812.431	2868
812.573	2963
812.714	2948
812.855	3070
812.997	3062
813.138	3116
813.279	3013
813.421	3013
813.562	2914
813.703	2849
813.845	2883
813.986	2708
814.127	2705
814.268	2868
814.41	2880
814.551	2819
814.692	2891
814.833	2785
814.974	2918
815.115	2925
815.256	2830
815.397	2838
815.539	2849
815.68	2796
815.821	2815
815.962	2922
816.103	2899
816.244	2883
816.385	2868
816.526	3009
816.666	2922
816.807	2746
816.948	2876
817.089	2925
817.23	2876
817.371	2785
817.512	2773
817.653	2857
817.793	2823
817.934	2922
818.075	2975
818.216	2990
818.356	3017
818.497	2937
818.638	2796
818.778	2853
818.919	2811
819.06	2792
819.2	2864
819.341	2826
819.481	2796
819.622	2941
819.762	3089
819.903	3062
820.043	2925
820.184	2929
820.324	2925
820.465	3020
820.605	3062
820.746	2990
820.886	2975
821.026	3104
821.167	3192
821.307	3253
821.447	3302
821.588	3237
821.728	3237
821.868	3180
822.008	3157
822.149	3218
822.289	3272
822.429	3112
822.569	3119
822.709	3199
822.849	3070
822.99	3116
823.13	3176
823.27	3211
823.41	3150
823.55	3184
823.69	3180
823.83	3222
823.97	3127
824.11	3055
824.25	3005
824.389	3097
824.529	3138
824.669	3108
824.809	3253
824.949	3253
825.089	3249
825.228	3176
825.368	3036
825.508	3005
825.648	2956
825.787	3070
825.927	3039
826.067	3013
826.206	2994
826.346	3089
826.485	3157
826.625	3154
826.765	3355
826.904	3241
827.044	3024
827.183	2986
827.323	2872
827.462	3032
827.601	2925
827.741	2963
827.88	3009
828.02	2868
828.159	3020
828.298	3104
828.437	3188
828.577	3089
828.716	3272
828.855	3123
828.994	2925
829.134	2910
829.273	2948
829.412	2902
829.551	2883
829.69	2929
829.829	3039
829.968	3184
830.107	3024
830.246	3104
830.385	3001
830.524	2929
830.663	2838
830.802	2762
830.941	2739
831.08	2712
831.219	2811
831.357	2811
831.496	2956
831.635	2727
831.774	2689
831.913	2693
832.051	2587
832.19	2610
832.329	2746
832.467	2587
832.606	2537
832.744	2606
832.883	2621
833.022	2632
833.16	2663
833.299	2727
833.437	2712
833.576	2788
833.714	2758
833.852	2758
833.991	2788
834.129	2842
834.267	2861
834.406	2845
834.544	2895
834.682	2929
834.821	2899
834.959	3066
835.097	2933
835.235	3135
835.373	3013
835.511	3055
835.65	2960
835.788	3001
835.926	2864
836.064	2842
836.202	2861
836.34	3138
836.478	3188
836.615	3112
836.753	3135
836.891	3226
837.029	3188
837.167	3180
837.305	3097
837.443	3070
837.58	3017
837.718	3161
837.856	3093
837.993	3081
838.131	3112
838.269	3097
838.406	3157
838.544	3108
838.681	2956
838.819	2941
838.956	2857
839.094	2834
839.231	2937
839.369	3074
839.506	3435
839.643	3230
839.781	3047
839.918	2975
840.055	3070
840.193	3058
840.33	3131
840.467	3104
840.604	3188
840.742	3435
840.879	3066
841.016	3058
841.153	3161
841.29	3344
841.427	3310
841.564	3317
841.701	3344
841.838	3256
841.975	3195
842.112	3260
842.249	3051
842.385	3051
842.522	3249
842.659	3131
842.796	3070
842.933	3074
843.069	3135
843.206	3047
843.343	3218
843.479	3116
843.616	3180
843.752	2944
843.889	2914
844.025	3127
844.162	2944
844.298	3077
844.435	2960
844.571	2933
844.708	3070
844.844	3237
844.98	3272
845.117	3195
845.253	3062
845.389	3043
845.525	3131
845.661	3142
845.798	3070
845.934	3138
846.07	3081
846.206	3237
846.342	3374
846.478	3245
846.614	3116
846.75	3070
846.886	3036
847.022	3237
847.158	3188
847.294	3218
847.429	3291
847.565	3253
847.701	3519
847.837	3036
847.972	3039
848.108	3184
848.244	3192
848.379	3017
848.515	2986
848.65	2906
848.786	2990
848.921	3024
849.057	3100
849.192	3169
849.328	3081
849.463	3169
849.598	3081
849.734	3058
849.869	2990
850.004	2933
850.14	3005
850.275	2948
850.41	2868
850.545	2944
850.68	2944
850.815	3009
850.95	2982
851.085	3199
851.22	3119
851.355	3062
851.49	2998
851.625	3055
851.76	3058
851.895	2967
852.03	2902
852.165	3070
852.299	3119
852.434	3176
852.569	3138
852.703	3188
852.838	3253
852.973	3382
853.107	3351
853.242	3150
853.376	3150
853.511	2975
853.645	3043
853.78	3256
853.914	3127
854.048	3127
854.183	3093
854.317	3142
854.451	3325
854.585	3131
854.72	3108
854.854	3203
854.988	3097
855.122	3108
855.256	3013
855.39	3146
855.524	3253
855.658	3203
855.792	3180
855.926	3230
856.06	3241
856.194	3291
856.327	3188
856.461	3070
856.595	3100
856.729	3104
856.862	3211
856.996	3184
857.13	3230
857.263	3256
857.397	3325
857.53	3157
857.664	3211
857.797	3233
857.931	3272
858.064	3176
858.197	3275
858.331	3173
858.464	3146
858.597	3032
858.731	3116
858.864	3142
858.997	3077
859.13	3218
859.263	3195
859.396	3207
859.529	3119
859.662	3108
859.795	3070
859.928	3180
860.061	3313
860.194	3294
860.327	3176
860.46	3116
860.592	3291
860.725	3317
860.858	3302
860.99	3161
861.123	3062
861.256	3100
861.388	3180
861.521	3793
861.653	3066
861.786	2998
861.918	3001
862.05	3066
862.183	3123
862.315	3157
862.447	3230
862.58	3104
862.712	2979
862.844	2929
862.976	3055
863.108	3043
863.24	3313
863.372	2929
863.504	3013
863.636	2952
863.768	3001
863.9	2990
864.032	2918
864.164	2982
864.296	3028
864.428	3066
864.559	3119
864.691	3070
864.823	3085
864.954	3043
865.086	3081
865.217	2990
865.349	2937
865.48	2967
865.612	3013
865.743	3142
865.875	2994
866.006	2967
866.137	2975
866.269	2979
866.4	2952
866.531	2914
866.662	2906
866.793	2902
866.924	2891
867.055	3009
867.186	2952
867.317	2895
867.448	2842
867.579	2838
867.71	2887
867.841	2845
867.972	2902
868.103	2922
868.233	2883
868.364	2925
868.495	2914
868.625	3116
868.756	3192
868.886	2990
869.017	3058
869.147	3199
869.278	3180
869.408	3070
869.539	3036
869.669	3127
869.799	3100
869.929	3135
870.06	3150
870.19	3344
870.32	3279
870.45	3283
870.58	3382
870.71	3454
870.84	3492
870.97	3332
871.1	3237
871.23	3443
871.36	3477
871.489	3393
871.619	3431
871.749	3409
871.879	3428
872.008	3492
872.138	3351
872.267	3283
872.397	3176
872.526	3093
872.656	3043
872.785	3135
872.915	3256
873.044	3313
873.173	3218
873.303	3245
873.432	3237
873.561	3233
873.69	3154
873.819	3138
873.948	3214
874.077	3108
874.206	3100
874.335	3104
874.464	3218
874.593	3355
874.722	3241
874.851	3420
874.979	3370
875.108	3374
875.237	3222
875.365	3195
875.494	3161
875.623	3249
875.751	3108
875.88	3077
876.008	3222
876.136	3245
876.265	3329
876.393	3519
876.521	3450
876.65	3389
876.778	3367
876.906	3283
877.034	3211
877.162	3264
877.29	3222
877.418	3268
877.546	3275
877.674	3306
877.802	3249
877.93	3211
878.058	3154
878.185	3104
878.313	3211
878.441	3218
878.568	3104
878.696	3154
878.824	3310
878.951	3310
879.079	3443
879.206	3663
879.333	3496
879.461	3332
879.588	3336
879.715	3462
879.842	3610
879.97	3378
880.097	3192
880.224	3123
880.351	3211
880.478	3222
880.605	3203
880.732	3222
880.859	3496
880.986	3317
881.112	3310
881.239	3192
881.366	3108
881.493	3043
881.619	3032
881.746	3104
881.872	3135
881.999	3112
882.125	3169
882.252	3245
882.378	3313
882.505	3443
882.631	3294
882.757	3184
882.883	3214
883.01	3237
883.136	3165
883.262	3135
883.388	3123
883.514	3313
883.64	3378
883.766	3306
883.892	3161
884.018	3256
884.143	3424
884.269	3500
884.395	3214
884.52	3180
884.646	3211
884.772	3146
884.897	3127
885.023	3192
885.148	3321
885.274	3447
885.399	3351
885.524	3291
885.65	3298
885.775	3340
885.9	3310
886.025	3447
886.15	3412
886.275	3287
886.4	3275
886.525	3306
886.65	3310
886.775	3287
886.9	3572
887.025	3656
887.149	3435
887.274	3260
887.399	3154
887.523	3211
887.648	3195
887.773	3214
887.897	3355
888.021	3431
888.146	3344
888.27	3443
888.395	3572
888.519	3447
888.643	3443
888.767	3481
888.891	3329
889.015	3207
889.139	3313
889.263	3264
889.387	3424
889.511	3473
889.635	3443
889.759	3302
889.883	3291
890.006	3420
890.13	3523
890.254	3283
890.377	3363
890.501	3195
890.624	3199
890.748	3321
890.871	3199
890.995	3108
891.118	3058
891.241	3203
891.364	3241
891.488	3351
891.611	3199
891.734	3222
891.857	3329
891.98	3249
892.103	3367
892.226	3340
892.349	3203
892.471	3085
892.594	3260
892.717	3291
892.839	3302
892.962	3272
893.085	3378
893.207	3268
893.33	3188
893.452	3214
893.575	3382
893.697	3253
893.819	3481
893.941	3523
894.064	3477
894.186	3294
894.308	3253
894.43	3401
894.552	3500
894.674	3500
894.796	3260
894.918	3279
895.04	3291
895.161	3435
895.283	3439
895.405	3340
895.526	3348
895.648	3405
895.769	3428
895.891	3450
896.012	3504
896.134	3488
896.255	3428
896.376	3363
896.498	3378
896.619	3431
896.74	3370
896.861	3431
896.982	3675
897.103	3835
897.224	3614
897.345	3561
897.466	3443
897.587	3492
897.708	3595
897.828	3534
897.949	3469
898.07	3348
898.19	3424
898.311	3629
898.431	3485
898.552	3519
898.672	3603
898.792	3576
898.913	3530
899.033	3435
899.153	3272
899.273	3233
899.393	3325
899.513	3310
899.633	3306
899.753	3348
899.873	3287
899.993	3370
900.113	3329
900.232	3389
900.352	3386
900.472	3287
900.591	3195
900.711	3332
900.83	3218
900.95	3439
901.069	3507
901.189	3382
901.308	3188
901.427	3135
901.546	3233
901.665	3317
901.784	3332
901.904	3203
902.023	3173
902.141	2998
902.26	3005
902.379	3138
902.498	3077
902.617	3047
902.735	3218
902.854	3237
902.973	3211
903.091	3066
903.21	3077
903.328	3161
903.446	3142
903.565	3123
903.683	3188
903.801	3138
903.919	3264
904.038	3264
904.156	3169
904.274	3279
904.392	3264
904.51	3275
904.627	3340
904.745	3439
904.863	3526
904.981	3283
905.098	3169
905.216	3233
905.334	3340
905.451	3294
905.569	3294
905.686	3416
905.803	3443
905.921	3279
906.038	3405
906.155	3370
906.272	3279
906.389	3355
906.506	3218
906.623	3287
906.74	3298
906.857	3241
906.974	3253
907.091	3443
907.208	3564
907.324	3431
907.441	3382
907.557	3241
907.674	3211
907.79	3226
907.907	3279
908.023	3336
908.139	3382
908.256	3325
908.372	3367
908.488	3348
908.604	3268
908.72	3237
908.836	3298
908.952	3302
909.068	3378
909.184	3492
909.3	3386
909.415	3561
909.531	3481
909.647	3256
909.762	3264
909.878	3249
909.993	3344
910.108	3336
910.224	3348
910.339	3363
910.454	3317
910.57	3325
910.685	3260
910.8	3633
910.915	3572
911.03	3443
911.145	3268
911.259	3283
911.374	3329
911.489	3264
911.604	3214
911.718	3123
911.833	3169
911.947	3017
912.062	2975
912.176	3165
912.291	3192
912.405	3233
912.519	3389
912.633	3492
912.748	3340
912.862	3283
912.976	3192
913.09	3089
913.204	3123
913.318	3211
913.431	3386
913.545	3336
913.659	3416
913.772	3329
913.886	3192
914	3176
914.113	3359
914.226	3428
914.34	3336
914.453	3180
914.566	3409
914.68	3313
914.793	3329
914.906	3157
915.019	3127
915.132	3055
915.245	3176
915.358	3176
915.47	3230
915.583	3256
915.696	3294
915.809	3393
915.921	3397
916.034	3241
916.146	3279
916.259	3218
916.371	3389
916.483	3367
916.595	3302
916.708	3340
916.82	3370
916.932	3325
917.044	3378
917.156	3386
917.268	3264
917.38	3306
917.491	3287
917.603	3355
917.715	3454
917.826	3519
917.938	3370
918.049	3260
918.161	3405
918.272	3587
918.384	3587
918.495	3469
918.606	3363
918.717	3283
918.828	3367
918.939	3416
919.05	3287
919.161	3351
919.272	3165
919.383	3302
919.494	3504
919.604	3701
919.715	3473
919.826	3386
919.936	3412
920.047	3591
920.157	3553
920.267	3755
920.378	3595
920.488	3557
920.598	3774
920.708	3941
920.818	3823
920.928	3835
921.038	4063
921.148	3998
921.258	3713
921.368	3625
921.477	3576
921.587	3553
921.697	3473
921.806	3641
921.916	3515
922.025	3367
922.134	3351
922.244	3291
922.353	3435
922.462	3287
922.571	3256
922.68	3100
922.789	3097
922.898	3154
923.007	3108
923.116	3180
923.224	3192
923.333	3203
923.442	3089
923.55	3123
923.659	3123
923.767	3214
923.876	3146
923.984	3222
924.092	3135
924.201	3169
924.309	3199
924.417	3245
924.525	3173
924.633	3226
924.741	3983
924.849	3028
924.956	3237
925.064	3089
925.172	3047
925.279	3062
925.387	3203
925.494	3192
925.602	3370
925.709	3332
925.816	3184
925.924	3279
926.031	3389
926.138	3313
926.245	3340
926.352	3233
926.459	3431
926.566	3466
926.673	3340
926.779	3233
926.886	3230
926.993	3127
927.099	3127
927.206	3138
927.312	3112
927.419	3226
927.525	3211
927.631	3264
927.737	3188
927.843	3138
927.95	3020
928.056	3165
928.162	3165
928.267	3218
928.373	3876
928.479	3275
928.585	3032
928.69	3207
928.796	3264
928.901	3192
929.007	3028
929.112	3218
929.218	3237
929.323	3142
929.428	3146
929.533	3306
929.638	3123
929.743	3116
929.848	3275
929.953	3253
930.058	3161
930.163	2979
930.267	3028
930.372	3237
930.477	3077
930.581	3272
930.685	3211
930.79	3058
930.894	3100
930.998	3097
931.103	3291
931.207	2994
931.311	2937
931.415	2925
931.519	2773
931.623	2792
