Data from test_V78500241_981.txt Node
Date: Fri Mar 25 16:21:59 CST 2022
User: usil
Spectrometer: V785-0024
Trigger mode: 0
Integration Time (sec): 4.000000E-1
Scans to average: 1
Nonlinearity correction enabled: false
Boxcar width: 0
Storing dark spectrum: false
XAxis mode: Wavelengths
Number of Pixels in Spectrum: 1024
>>>>>Begin Spectral Data<<<<<
801.071	2933
801.214	2971
801.356	2902
801.499	2910
801.641	2883
801.783	2944
801.926	3047
802.068	3005
802.211	3024
802.353	3043
802.496	3005
802.638	3024
802.78	3032
802.923	3070
803.065	2994
803.208	2902
803.35	2910
803.492	2956
803.635	2906
803.777	2754
803.919	2876
804.061	3203
804.204	2956
804.346	2937
804.488	2876
804.63	3005
804.773	2918
804.915	2914
805.057	3127
805.199	2948
805.341	2956
805.483	3074
805.626	3032
805.768	2975
805.91	3100
806.052	3138
806.194	3066
806.336	3214
806.478	3039
806.62	2979
806.762	2975
806.904	3066
807.046	3192
807.188	3024
807.33	2933
807.472	3020
807.614	2918
807.756	3001
807.898	2925
808.04	2910
808.182	3013
808.324	2963
808.465	2887
808.607	2895
808.749	2804
808.891	2861
809.033	2986
809.174	2994
809.316	2933
809.458	2895
809.6	2781
809.741	2788
809.883	2800
810.025	2857
810.166	2849
810.308	2883
810.45	2861
810.591	2743
810.733	2769
810.875	2845
811.016	2773
811.158	2773
811.299	2838
811.441	2933
811.582	2933
811.724	2857
811.865	2857
812.007	2883
812.148	2899
812.29	2883
812.431	2914
812.573	2948
812.714	2975
812.855	3036
812.997	3028
813.138	3131
813.279	2982
813.421	3005
813.562	2986
813.703	2861
813.845	2918
813.986	2777
814.127	2746
814.268	2811
814.41	2842
814.551	2842
814.692	2895
814.833	2842
814.974	2883
815.115	2941
815.256	2842
815.397	2826
815.539	2864
815.68	2785
815.821	2804
815.962	2944
816.103	2925
816.244	2857
816.385	2883
816.526	2967
816.666	2937
816.807	2754
816.948	2880
817.089	2906
817.23	2876
817.371	2788
817.512	2796
817.653	2895
817.793	2811
817.934	2906
818.075	3001
818.216	3013
818.356	3036
818.497	2887
818.638	2819
818.778	2815
818.919	2766
819.06	2766
819.2	2887
819.341	2807
819.481	2830
819.622	2922
819.762	3100
819.903	3055
820.043	2944
820.184	2895
820.324	2922
820.465	3017
820.605	3024
820.746	3024
820.886	2914
821.026	3089
821.167	3154
821.307	3253
821.447	3313
821.588	3294
821.728	3214
821.868	3180
822.008	3070
822.149	3195
822.289	3241
822.429	3097
822.569	3108
822.709	3169
822.849	3028
822.99	3108
823.13	3142
823.27	3241
823.41	3131
823.55	3146
823.69	3138
823.83	3195
823.97	3146
824.11	3047
824.25	3028
824.389	3062
824.529	3142
824.669	3081
824.809	3195
824.949	3275
825.089	3233
825.228	3131
825.368	3043
825.508	2960
825.648	2975
825.787	2994
825.927	3055
826.067	2975
826.206	2952
826.346	3066
826.485	3097
826.625	3131
826.765	3283
826.904	3214
827.044	3020
827.183	2948
827.323	2857
827.462	2998
827.601	2902
827.741	2933
827.88	2967
828.02	2872
828.159	2967
828.298	3081
828.437	3116
828.577	3024
828.716	3283
828.855	3066
828.994	2941
829.134	2902
829.273	2922
829.412	2887
829.551	2853
829.69	2906
829.829	2994
829.968	3116
830.107	3005
830.246	3009
830.385	2937
830.524	2891
830.663	2830
830.802	2743
830.941	2674
831.08	2651
831.219	2746
831.357	2781
831.496	2979
831.635	2716
831.774	2674
831.913	2663
832.051	2545
832.19	2564
832.329	2674
832.467	2514
832.606	2476
832.744	2594
832.883	2606
833.022	2617
833.16	2689
833.299	2693
833.437	2708
833.576	2712
833.714	2697
833.852	2724
833.991	2796
834.129	2857
834.267	2845
834.406	2788
834.544	2868
834.682	2849
834.821	2872
834.959	3104
835.097	2899
835.235	3077
835.373	2998
835.511	3062
835.65	2952
835.788	2971
835.926	2834
836.064	2826
836.202	2834
836.34	3112
836.478	3169
836.615	3047
836.753	3131
836.891	3237
837.029	3176
837.167	3085
837.305	3077
837.443	3017
837.58	2967
837.718	3165
837.856	3047
837.993	3066
838.131	3119
838.269	3112
838.406	3119
838.544	3100
838.681	2929
838.819	2902
838.956	2807
839.094	2838
839.231	2906
839.369	2990
839.506	3389
839.643	3176
839.781	3043
839.918	2986
840.055	3032
840.193	3074
840.33	3070
840.467	3081
840.604	3131
840.742	3374
840.879	3032
841.016	3062
841.153	3119
841.29	3310
841.427	3329
841.564	3272
841.701	3310
841.838	3230
841.975	3192
842.112	3165
842.249	3070
842.385	3055
842.522	3272
842.659	3085
842.796	3051
842.933	3089
843.069	3039
843.206	3009
843.343	3165
843.479	3150
843.616	3146
843.752	2910
843.889	2891
844.025	3097
844.162	2891
844.298	3051
844.435	2975
844.571	2933
844.708	3089
844.844	3157
844.98	3237
845.117	3188
845.253	3062
845.389	3020
845.525	3104
845.661	3123
845.798	3058
845.934	3066
846.07	3058
846.206	3214
846.342	3317
846.478	3237
846.614	3119
846.75	3058
846.886	3039
847.022	3218
847.158	3173
847.294	3199
847.429	3245
847.565	3249
847.701	3466
847.837	3028
847.972	3036
848.108	3169
848.244	3142
848.379	3020
848.515	2944
848.65	2933
848.786	2967
848.921	2998
849.057	3131
849.192	3142
849.328	3085
849.463	3104
849.598	3070
849.734	3039
849.869	3028
850.004	2956
850.14	2990
850.275	2929
850.41	2811
850.545	2876
850.68	2971
850.815	2948
850.95	2971
851.085	3180
851.22	3085
851.355	3020
851.49	2952
851.625	3009
851.76	2998
851.895	2922
852.03	2902
852.165	3032
852.299	3104
852.434	3203
852.569	3119
852.703	3123
852.838	3226
852.973	3329
853.107	3283
853.242	3142
853.376	3066
853.511	2967
853.645	3055
853.78	3214
853.914	3112
854.048	3093
854.183	3097
854.317	3131
854.451	3260
854.585	3150
854.72	3089
854.854	3195
854.988	3070
855.122	3097
855.256	3024
855.39	3116
855.524	3230
855.658	3184
855.792	3142
855.926	3207
856.06	3214
856.194	3283
856.327	3161
856.461	3074
856.595	3089
856.729	3104
856.862	3237
856.996	3146
857.13	3203
857.263	3173
857.397	3264
857.53	3077
857.664	3226
857.797	3233
857.931	3275
858.064	3142
858.197	3214
858.331	3135
858.464	3089
858.597	2986
858.731	3089
858.864	3112
858.997	3093
859.13	3180
859.263	3165
859.396	3146
859.529	3055
859.662	3081
859.795	3039
859.928	3123
860.061	3294
860.194	3283
860.327	3154
860.46	3062
860.592	3249
860.725	3226
860.858	3211
860.99	3089
861.123	3055
861.256	3066
861.388	3131
861.521	3838
861.653	3047
861.786	3036
861.918	2941
862.05	3097
862.183	3077
862.315	3127
862.447	3195
862.58	3089
862.712	2899
862.844	2872
862.976	3028
863.108	2998
863.24	3416
863.372	2868
863.504	2960
863.636	2971
863.768	3013
863.9	3013
864.032	2906
864.164	2914
864.296	2990
864.428	3066
864.559	3085
864.691	3077
864.823	3020
864.954	3028
865.086	3043
865.217	3013
865.349	2952
865.48	2994
865.612	3009
865.743	3127
865.875	2998
866.006	2963
866.137	2963
866.269	2986
866.4	2933
866.531	2960
866.662	2895
866.793	2883
866.924	2910
867.055	2975
867.186	2922
867.317	2876
867.448	2838
867.579	2826
867.71	2830
867.841	2838
867.972	2906
868.103	2910
868.233	2937
868.364	2891
868.495	2899
868.625	3074
868.756	3142
868.886	2956
869.017	2979
869.147	3180
869.278	3142
869.408	3032
869.539	3032
869.669	3047
869.799	3039
869.929	3123
870.06	3108
870.19	3344
870.32	3249
870.45	3321
870.58	3389
870.71	3481
870.84	3454
870.97	3298
871.1	3253
871.23	3473
871.36	3409
871.489	3405
871.619	3420
871.749	3397
871.879	3450
872.008	3496
872.138	3351
872.267	3233
872.397	3135
872.526	3097
872.656	2986
872.785	3077
872.915	3241
873.044	3302
873.173	3253
873.303	3237
873.432	3256
873.561	3237
873.69	3138
873.819	3138
873.948	3245
874.077	3108
874.206	3017
874.335	3127
874.464	3211
874.593	3367
874.722	3207
874.851	3374
874.979	3340
875.108	3298
875.237	3176
875.365	3112
875.494	3165
875.623	3192
875.751	3089
875.88	3108
876.008	3161
876.136	3188
876.265	3363
876.393	3557
876.521	3428
876.65	3405
876.778	3336
876.906	3260
877.034	3195
877.162	3241
877.29	3169
877.418	3222
877.546	3256
877.674	3218
877.802	3256
877.93	3249
878.058	3119
878.185	3097
878.313	3199
878.441	3180
878.568	3047
878.696	3104
878.824	3237
878.951	3294
879.079	3420
879.206	3606
879.333	3435
879.461	3336
879.588	3370
879.715	3477
879.842	3584
879.97	3374
880.097	3203
880.224	3104
880.351	3214
880.478	3211
880.605	3161
880.732	3169
880.859	3462
880.986	3325
881.112	3321
881.239	3233
881.366	3112
881.493	3062
881.619	3024
881.746	3070
881.872	3066
881.999	3093
882.125	3161
882.252	3230
882.378	3275
882.505	3367
882.631	3291
882.757	3142
882.883	3222
883.01	3256
883.136	3165
883.262	3077
883.388	3116
883.514	3298
883.64	3393
883.766	3317
883.892	3218
884.018	3241
884.143	3393
884.269	3538
884.395	3195
884.52	3161
884.646	3157
884.772	3165
884.897	3131
885.023	3199
885.148	3348
885.274	3389
885.399	3321
885.524	3317
885.65	3253
885.775	3329
885.9	3313
886.025	3405
886.15	3405
886.275	3260
886.4	3214
886.525	3283
886.65	3249
886.775	3268
886.9	3469
887.025	3618
887.149	3420
887.274	3279
887.399	3154
887.523	3138
887.648	3165
887.773	3165
887.897	3329
888.021	3393
888.146	3253
888.27	3424
888.395	3511
888.519	3420
888.643	3428
888.767	3443
888.891	3275
889.015	3245
889.139	3256
889.263	3233
889.387	3359
889.511	3477
889.635	3450
889.759	3287
889.883	3256
890.006	3389
890.13	3466
890.254	3272
890.377	3332
890.501	3165
890.624	3154
890.748	3287
890.871	3119
890.995	3112
891.118	3047
891.241	3218
891.364	3214
891.488	3294
891.611	3150
891.734	3218
891.857	3313
891.98	3226
892.103	3321
892.226	3256
892.349	3199
892.471	3135
892.594	3279
892.717	3264
892.839	3249
892.962	3291
893.085	3351
893.207	3260
893.33	3119
893.452	3211
893.575	3340
893.697	3188
893.819	3443
893.941	3511
894.064	3466
894.186	3268
894.308	3253
894.43	3431
894.552	3534
894.674	3462
894.796	3241
894.918	3325
895.04	3294
895.161	3428
895.283	3393
895.405	3279
895.526	3363
895.648	3393
895.769	3397
895.891	3462
896.012	3435
896.134	3515
896.255	3382
896.376	3397
896.498	3378
896.619	3416
896.74	3359
896.861	3424
896.982	3637
897.103	3831
897.224	3561
897.345	3511
897.466	3458
897.587	3485
897.708	3641
897.828	3549
897.949	3424
898.07	3340
898.19	3450
898.311	3599
898.431	3469
898.552	3496
898.672	3584
898.792	3595
898.913	3549
899.033	3409
899.153	3313
899.273	3226
899.393	3340
899.513	3317
899.633	3298
899.753	3344
899.873	3294
899.993	3386
900.113	3389
900.232	3359
900.352	3348
900.472	3268
900.591	3237
900.711	3348
900.83	3264
900.95	3435
901.069	3519
901.189	3370
901.308	3195
901.427	3135
901.546	3184
901.665	3310
901.784	3325
901.904	3165
902.023	3135
902.141	2982
902.26	2971
902.379	3097
902.498	3043
902.617	3055
902.735	3192
902.854	3237
902.973	3161
903.091	3066
903.21	3070
903.328	3138
903.446	3123
903.565	3100
903.683	3207
903.801	3119
903.919	3195
904.038	3233
904.156	3195
904.274	3287
904.392	3241
904.51	3291
904.627	3336
904.745	3439
904.863	3473
904.981	3272
905.098	3199
905.216	3264
905.334	3268
905.451	3340
905.569	3351
905.686	3443
905.803	3409
905.921	3256
906.038	3435
906.155	3363
906.272	3287
906.389	3313
906.506	3195
906.623	3230
906.74	3279
906.857	3169
906.974	3241
907.091	3485
907.208	3591
907.324	3466
907.441	3401
907.557	3237
907.674	3211
907.79	3161
907.907	3313
908.023	3355
908.139	3363
908.256	3332
908.372	3355
908.488	3359
908.604	3291
908.72	3230
908.836	3241
908.952	3283
909.068	3313
909.184	3439
909.3	3412
909.415	3538
909.531	3439
909.647	3264
909.762	3332
909.878	3233
909.993	3397
910.108	3310
910.224	3313
910.339	3409
910.454	3351
910.57	3294
910.685	3291
910.8	3572
910.915	3538
911.03	3382
911.145	3283
911.259	3325
911.374	3283
911.489	3237
911.604	3214
911.718	3138
911.833	3176
911.947	3009
912.062	3024
912.176	3161
912.291	3184
912.405	3230
912.519	3435
912.633	3416
912.748	3310
912.862	3272
912.976	3165
913.09	3077
913.204	3146
913.318	3218
913.431	3268
913.545	3329
913.659	3397
913.772	3367
913.886	3218
914	3180
914.113	3359
914.226	3439
914.34	3367
914.453	3214
914.566	3416
914.68	3287
914.793	3294
914.906	3131
915.019	3089
915.132	3058
915.245	3169
915.358	3203
915.47	3264
915.583	3245
915.696	3321
915.809	3393
915.921	3386
916.034	3283
916.146	3226
916.259	3195
916.371	3367
916.483	3351
916.595	3253
916.708	3374
916.82	3279
916.932	3344
917.044	3359
917.156	3317
917.268	3275
917.38	3321
917.491	3256
917.603	3363
917.715	3439
917.826	3447
917.938	3393
918.049	3268
918.161	3420
918.272	3564
918.384	3553
918.495	3492
918.606	3378
918.717	3283
918.828	3382
918.939	3397
919.05	3317
919.161	3374
919.272	3173
919.383	3256
919.494	3511
919.604	3709
919.715	3447
919.826	3382
919.936	3458
920.047	3564
920.157	3568
920.267	3743
920.378	3606
920.488	3580
920.598	3747
920.708	3975
920.818	3808
920.928	3842
921.038	4025
921.148	4025
921.258	3690
921.368	3637
921.477	3580
921.587	3553
921.697	3454
921.806	3614
921.916	3511
922.025	3332
922.134	3405
922.244	3317
922.353	3466
922.462	3256
922.571	3218
922.68	3089
922.789	3039
922.898	3127
923.007	3112
923.116	3211
923.224	3146
923.333	3195
923.442	3104
923.55	3116
923.659	3138
923.767	3218
923.876	3100
923.984	3287
924.092	3127
924.201	3188
924.309	3237
924.417	3249
924.525	3188
924.633	3268
924.741	4177
924.849	3043
924.956	3272
925.064	3104
925.172	3017
925.279	3074
925.387	3157
925.494	3199
925.602	3332
925.709	3310
925.816	3184
925.924	3256
926.031	3378
926.138	3325
926.245	3367
926.352	3253
926.459	3420
926.566	3481
926.673	3294
926.779	3283
926.886	3253
926.993	3157
927.099	3123
927.206	3077
927.312	3150
927.419	3211
927.525	3211
927.631	3275
927.737	3100
927.843	3104
927.95	3017
928.056	3116
928.162	3173
928.267	3272
928.373	3846
928.479	3317
928.585	3062
928.69	3233
928.796	3272
928.901	3203
929.007	3009
929.112	3230
929.218	3214
929.323	3100
929.428	3112
929.533	3351
929.638	3146
929.743	3180
929.848	3268
929.953	3230
930.058	3135
930.163	2990
930.267	3039
930.372	3184
930.477	3055
930.581	3279
930.685	3169
930.79	3070
930.894	3119
930.998	3081
931.103	3245
931.207	2922
931.311	2963
931.415	2861
931.519	2754
931.623	2804
