Data from test_V78500241_708.txt Node
Date: Fri Mar 25 16:20:06 CST 2022
User: usil
Spectrometer: V785-0024
Trigger mode: 0
Integration Time (sec): 4.000000E-1
Scans to average: 1
Nonlinearity correction enabled: false
Boxcar width: 0
Storing dark spectrum: false
XAxis mode: Wavelengths
Number of Pixels in Spectrum: 1024
>>>>>Begin Spectral Data<<<<<
801.071	2914
801.214	2906
801.356	2929
801.499	2887
801.641	2922
801.783	2963
801.926	3100
802.068	2967
802.211	2994
802.353	3020
802.496	2933
802.638	3020
802.78	3043
802.923	3070
803.065	3047
803.208	2891
803.35	2899
803.492	2963
803.635	2937
803.777	2777
803.919	2880
804.061	3226
804.204	2967
804.346	2876
804.488	2815
804.63	3024
804.773	2880
804.915	2906
805.057	3146
805.199	2956
805.341	2963
805.483	3081
805.626	3005
805.768	2979
805.91	3093
806.052	3112
806.194	3032
806.336	3230
806.478	3013
806.62	2990
806.762	3009
806.904	3070
807.046	3192
807.188	3020
807.33	2883
807.472	3009
807.614	2910
807.756	3009
807.898	2922
808.04	2914
808.182	2967
808.324	2929
808.465	2922
808.607	2902
808.749	2834
808.891	2830
809.033	2960
809.174	2986
809.316	2887
809.458	2899
809.6	2781
809.741	2815
809.883	2785
810.025	2868
810.166	2880
810.308	2895
810.45	2876
810.591	2804
810.733	2777
810.875	2838
811.016	2788
811.158	2758
811.299	2845
811.441	2948
811.582	2883
811.724	2834
811.865	2811
812.007	2883
812.148	2876
812.29	2880
812.431	2883
812.573	2929
812.714	2979
812.855	3089
812.997	3047
813.138	3127
813.279	2998
813.421	2994
813.562	2982
813.703	2876
813.845	2861
813.986	2815
814.127	2743
814.268	2838
814.41	2830
814.551	2826
814.692	2880
814.833	2819
814.974	2941
815.115	2960
815.256	2838
815.397	2823
815.539	2891
815.68	2777
815.821	2796
815.962	2925
816.103	2922
816.244	2883
816.385	2845
816.526	3001
816.666	2929
816.807	2750
816.948	2887
817.089	2918
817.23	2868
817.371	2800
817.512	2819
817.653	2895
817.793	2830
817.934	2929
818.075	2948
818.216	3009
818.356	3024
818.497	2918
818.638	2815
818.778	2819
818.919	2773
819.06	2788
819.2	2883
819.341	2842
819.481	2804
819.622	2887
819.762	3081
819.903	3051
820.043	2960
820.184	2883
820.324	2902
820.465	2990
820.605	3009
820.746	3036
820.886	2941
821.026	3112
821.167	3199
821.307	3237
821.447	3294
821.588	3249
821.728	3192
821.868	3188
822.008	3055
822.149	3218
822.289	3233
822.429	3116
822.569	3085
822.709	3214
822.849	3028
822.99	3108
823.13	3127
823.27	3199
823.41	3135
823.55	3154
823.69	3157
823.83	3211
823.97	3089
824.11	2998
824.25	2994
824.389	3074
824.529	3119
824.669	3020
824.809	3188
824.949	3275
825.089	3203
825.228	3150
825.368	3005
825.508	2971
825.648	2990
825.787	2994
825.927	3024
826.067	2963
826.206	2960
826.346	3058
826.485	3066
826.625	3108
826.765	3294
826.904	3199
827.044	2971
827.183	2941
827.323	2891
827.462	3043
827.601	2922
827.741	2933
827.88	2967
828.02	2861
828.159	2975
828.298	3024
828.437	3119
828.577	3062
828.716	3245
828.855	3036
828.994	2902
829.134	2853
829.273	2891
829.412	2910
829.551	2887
829.69	2891
829.829	2975
829.968	3131
830.107	3009
830.246	3017
830.385	2895
830.524	2883
830.663	2830
830.802	2701
830.941	2629
831.08	2644
831.219	2766
831.357	2731
831.496	2941
831.635	2727
831.774	2636
831.913	2667
832.051	2537
832.19	2564
832.329	2678
832.467	2541
832.606	2507
832.744	2598
832.883	2625
833.022	2610
833.16	2674
833.299	2689
833.437	2674
833.576	2670
833.714	2739
833.852	2743
833.991	2746
834.129	2830
834.267	2804
834.406	2762
834.544	2872
834.682	2876
834.821	2887
834.959	3036
835.097	2948
835.235	3097
835.373	3005
835.511	3020
835.65	2948
835.788	2963
835.926	2830
836.064	2788
836.202	2842
836.34	3131
836.478	3195
836.615	3024
836.753	3135
836.891	3218
837.029	3135
837.167	3097
837.305	3070
837.443	3074
837.58	2956
837.718	3112
837.856	3093
837.993	3047
838.131	3112
838.269	3146
838.406	3070
838.544	3055
838.681	2922
838.819	2971
838.956	2842
839.094	2838
839.231	2948
839.369	3020
839.506	3370
839.643	3237
839.781	2979
839.918	2982
840.055	3024
840.193	3047
840.33	3039
840.467	3116
840.604	3123
840.742	3401
840.879	3024
841.016	3062
841.153	3127
841.29	3321
841.427	3287
841.564	3264
841.701	3313
841.838	3211
841.975	3146
842.112	3237
842.249	3055
842.385	3055
842.522	3275
842.659	3093
842.796	3070
842.933	3112
843.069	3055
843.206	3020
843.343	3176
843.479	3089
843.616	3123
843.752	2853
843.889	2876
844.025	3093
844.162	2891
844.298	3100
844.435	2990
844.571	2929
844.708	3074
844.844	3211
844.98	3241
845.117	3173
845.253	3055
845.389	3013
845.525	3138
845.661	3112
845.798	2994
845.934	3116
846.07	3081
846.206	3195
846.342	3294
846.478	3203
846.614	3093
846.75	3074
846.886	3005
847.022	3294
847.158	3138
847.294	3222
847.429	3260
847.565	3195
847.701	3458
847.837	3017
847.972	2982
848.108	3150
848.244	3150
848.379	2990
848.515	2918
848.65	2933
848.786	2937
848.921	2994
849.057	3089
849.192	3138
849.328	3043
849.463	3097
849.598	3047
849.734	3039
849.869	2998
850.004	2910
850.14	2975
850.275	2914
850.41	2804
850.545	2891
850.68	2922
850.815	2941
850.95	2982
851.085	3218
851.22	3066
851.355	3051
851.49	2990
851.625	2990
851.76	2952
851.895	2960
852.03	2914
852.165	3032
852.299	3097
852.434	3150
852.569	3116
852.703	3165
852.838	3268
852.973	3275
853.107	3294
853.242	3150
853.376	3058
853.511	2971
853.645	3047
853.78	3207
853.914	3112
854.048	3089
854.183	3077
854.317	3157
854.451	3279
854.585	3127
854.72	3081
854.854	3173
854.988	3032
855.122	3100
855.256	2967
855.39	3108
855.524	3226
855.658	3195
855.792	3116
855.926	3195
856.06	3214
856.194	3203
856.327	3135
856.461	3062
856.595	3081
856.729	3058
856.862	3199
856.996	3119
857.13	3199
857.263	3214
857.397	3287
857.53	3077
857.664	3184
857.797	3264
857.931	3253
858.064	3161
858.197	3203
858.331	3138
858.464	3081
858.597	3005
858.731	3123
858.864	3116
858.997	3051
859.13	3135
859.263	3150
859.396	3195
859.529	3108
859.662	3066
859.795	3051
859.928	3112
860.061	3249
860.194	3268
860.327	3123
860.46	3074
860.592	3233
860.725	3222
860.858	3245
860.99	3097
861.123	3062
861.256	3051
861.388	3135
861.521	3926
861.653	3009
861.786	3001
861.918	3013
862.05	3047
862.183	3066
862.315	3142
862.447	3176
862.58	3112
862.712	2937
862.844	2887
862.976	3013
863.108	3005
863.24	3424
863.372	2845
863.504	2914
863.636	2982
863.768	3036
863.9	2975
864.032	2910
864.164	2944
864.296	3001
864.428	3066
864.559	3104
864.691	3077
864.823	3055
864.954	3032
865.086	3005
865.217	2963
865.349	2944
865.48	2998
865.612	3020
865.743	3169
865.875	2994
866.006	2910
866.137	2975
866.269	2956
866.4	2948
866.531	2925
866.662	2906
866.793	2902
866.924	2906
867.055	2998
867.186	2967
867.317	2872
867.448	2834
867.579	2804
867.71	2861
867.841	2826
867.972	2895
868.103	2914
868.233	2872
868.364	2872
868.495	2876
868.625	3077
868.756	3176
868.886	2941
869.017	3024
869.147	3169
869.278	3146
869.408	3028
869.539	3051
869.669	3093
869.799	3051
869.929	3108
870.06	3100
870.19	3325
870.32	3275
870.45	3306
870.58	3401
870.71	3424
870.84	3458
870.97	3283
871.1	3245
871.23	3454
871.36	3450
871.489	3340
871.619	3393
871.749	3367
871.879	3420
872.008	3473
872.138	3359
872.267	3275
872.397	3119
872.526	3081
872.656	3020
872.785	3081
872.915	3233
873.044	3310
873.173	3253
873.303	3230
873.432	3218
873.561	3260
873.69	3138
873.819	3138
873.948	3173
874.077	3104
874.206	3081
874.335	3062
874.464	3203
874.593	3294
874.722	3264
874.851	3359
874.979	3298
875.108	3325
875.237	3161
875.365	3138
875.494	3184
875.623	3260
875.751	3074
875.88	3097
876.008	3192
876.136	3222
876.265	3355
876.393	3473
876.521	3393
876.65	3363
876.778	3332
876.906	3268
877.034	3256
877.162	3245
877.29	3180
877.418	3218
877.546	3199
877.674	3272
877.802	3214
877.93	3188
878.058	3207
878.185	3070
878.313	3192
878.441	3222
878.568	3066
878.696	3116
878.824	3222
878.951	3351
879.079	3428
879.206	3625
879.333	3420
879.461	3325
879.588	3336
879.715	3439
879.842	3610
879.97	3401
880.097	3207
880.224	3138
880.351	3199
880.478	3222
880.605	3207
880.732	3184
880.859	3519
880.986	3279
881.112	3306
881.239	3207
881.366	3097
881.493	3062
881.619	3005
881.746	3081
881.872	3104
881.999	3085
882.125	3150
882.252	3226
882.378	3272
882.505	3428
882.631	3291
882.757	3108
882.883	3211
883.01	3218
883.136	3154
883.262	3077
883.388	3108
883.514	3325
883.64	3332
883.766	3325
883.892	3165
884.018	3253
884.143	3412
884.269	3519
884.395	3226
884.52	3169
884.646	3154
884.772	3146
884.897	3085
885.023	3203
885.148	3329
885.274	3424
885.399	3367
885.524	3275
885.65	3279
885.775	3294
885.9	3272
886.025	3389
886.15	3344
886.275	3291
886.4	3207
886.525	3325
886.65	3283
886.775	3272
886.9	3496
887.025	3633
887.149	3409
887.274	3233
887.399	3195
887.523	3218
887.648	3188
887.773	3165
887.897	3332
888.021	3359
888.146	3317
888.27	3439
888.395	3576
888.519	3405
888.643	3450
888.767	3454
888.891	3302
889.015	3203
889.139	3245
889.263	3233
889.387	3359
889.511	3507
889.635	3462
889.759	3298
889.883	3291
890.006	3370
890.13	3500
890.254	3275
890.377	3348
890.501	3184
890.624	3176
890.748	3291
890.871	3161
890.995	3104
891.118	3043
891.241	3176
891.364	3195
891.488	3329
891.611	3173
891.734	3188
891.857	3226
891.98	3256
892.103	3317
892.226	3256
892.349	3203
892.471	3119
892.594	3230
892.717	3279
892.839	3233
892.962	3272
893.085	3367
893.207	3291
893.33	3154
893.452	3211
893.575	3344
893.697	3249
893.819	3462
893.941	3538
894.064	3458
894.186	3283
894.308	3287
894.43	3416
894.552	3526
894.674	3462
894.796	3253
894.918	3332
895.04	3279
895.161	3386
895.283	3359
895.405	3313
895.526	3344
895.648	3420
895.769	3401
895.891	3454
896.012	3488
896.134	3416
896.255	3401
896.376	3405
896.498	3389
896.619	3469
896.74	3393
896.861	3416
896.982	3675
897.103	3880
897.224	3561
897.345	3469
897.466	3424
897.587	3496
897.708	3641
897.828	3564
897.949	3420
898.07	3329
898.19	3382
898.311	3618
898.431	3424
898.552	3485
898.672	3591
898.792	3576
898.913	3526
899.033	3397
899.153	3287
899.273	3214
899.393	3264
899.513	3313
899.633	3340
899.753	3332
899.873	3302
899.993	3363
900.113	3321
900.232	3435
900.352	3355
900.472	3264
900.591	3180
900.711	3256
900.83	3249
900.95	3439
901.069	3492
901.189	3302
901.308	3135
901.427	3180
901.546	3211
901.665	3264
901.784	3310
901.904	3180
902.023	3150
902.141	3009
902.26	3013
902.379	3081
902.498	3062
902.617	3055
902.735	3222
902.854	3241
902.973	3176
903.091	3077
903.21	3020
903.328	3123
903.446	3108
903.565	3108
903.683	3214
903.801	3085
903.919	3268
904.038	3291
904.156	3180
904.274	3302
904.392	3245
904.51	3272
904.627	3351
904.745	3439
904.863	3488
904.981	3264
905.098	3169
905.216	3253
905.334	3279
905.451	3306
905.569	3264
905.686	3447
905.803	3409
905.921	3256
906.038	3401
906.155	3317
906.272	3272
906.389	3306
906.506	3233
906.623	3249
906.74	3291
906.857	3188
906.974	3253
907.091	3447
907.208	3545
907.324	3473
907.441	3378
907.557	3211
907.674	3188
907.79	3226
907.907	3283
908.023	3325
908.139	3386
908.256	3340
908.372	3420
908.488	3351
908.604	3279
908.72	3237
908.836	3279
908.952	3298
909.068	3317
909.184	3462
909.3	3405
909.415	3481
909.531	3488
909.647	3241
909.762	3279
909.878	3260
909.993	3382
910.108	3306
910.224	3317
910.339	3374
910.454	3306
910.57	3298
910.685	3222
910.8	3572
910.915	3576
911.03	3462
911.145	3230
911.259	3279
911.374	3279
911.489	3230
911.604	3245
911.718	3104
911.833	3154
911.947	3013
912.062	3017
912.176	3180
912.291	3195
912.405	3214
912.519	3416
912.633	3416
912.748	3279
912.862	3245
912.976	3119
913.09	3077
913.204	3100
913.318	3188
913.431	3370
913.545	3340
913.659	3401
913.772	3321
913.886	3260
914	3192
914.113	3386
914.226	3386
914.34	3370
914.453	3222
914.566	3397
914.68	3279
914.793	3340
914.906	3131
915.019	3135
915.132	3066
915.245	3188
915.358	3222
915.47	3214
915.583	3245
915.696	3279
915.809	3332
915.921	3409
916.034	3256
916.146	3275
916.259	3237
916.371	3367
916.483	3359
916.595	3272
916.708	3291
916.82	3317
916.932	3340
917.044	3344
917.156	3363
917.268	3222
917.38	3298
917.491	3321
917.603	3351
917.715	3458
917.826	3450
917.938	3378
918.049	3268
918.161	3435
918.272	3587
918.384	3599
918.495	3454
918.606	3310
918.717	3275
918.828	3367
918.939	3401
919.05	3310
919.161	3336
919.272	3150
919.383	3294
919.494	3462
919.604	3709
919.715	3477
919.826	3359
919.936	3439
920.047	3595
920.157	3545
920.267	3751
920.378	3610
920.488	3545
920.598	3759
920.708	3945
920.818	3842
920.928	3842
921.038	4032
921.148	3960
921.258	3720
921.368	3587
921.477	3622
921.587	3530
921.697	3477
921.806	3587
921.916	3538
922.025	3336
922.134	3359
922.244	3302
922.353	3450
922.462	3272
922.571	3233
922.68	3108
922.789	3131
922.898	3154
923.007	3062
923.116	3207
923.224	3199
923.333	3157
923.442	3097
923.55	3077
923.659	3154
923.767	3184
923.876	3123
923.984	3214
924.092	3100
924.201	3169
924.309	3226
924.417	3291
924.525	3154
924.633	3192
924.741	4158
924.849	3085
924.956	3230
925.064	3081
925.172	3036
925.279	3081
925.387	3195
925.494	3199
925.602	3393
925.709	3325
925.816	3165
925.924	3272
926.031	3374
926.138	3310
926.245	3344
926.352	3214
926.459	3389
926.566	3477
926.673	3291
926.779	3233
926.886	3256
926.993	3142
927.099	3135
927.206	3127
927.312	3112
927.419	3218
927.525	3199
927.631	3249
927.737	3150
927.843	3104
927.95	3032
928.056	3161
928.162	3180
928.267	3272
928.373	3884
928.479	3287
928.585	3074
928.69	3195
928.796	3245
928.901	3142
929.007	3055
929.112	3176
929.218	3180
929.323	3161
929.428	3150
929.533	3294
929.638	3108
929.743	3135
929.848	3275
929.953	3195
930.058	3119
930.163	2956
930.267	3043
930.372	3199
930.477	3070
930.581	3283
930.685	3203
930.79	3047
930.894	3138
930.998	3070
931.103	3275
931.207	2963
931.311	2963
931.415	2914
931.519	2800
931.623	2838
