Data from test_V78500241_1994.txt Node
Date: Fri Mar 25 16:29:01 CST 2022
User: usil
Spectrometer: V785-0024
Trigger mode: 0
Integration Time (sec): 4.000000E-1
Scans to average: 1
Nonlinearity correction enabled: false
Boxcar width: 0
Storing dark spectrum: false
XAxis mode: Wavelengths
Number of Pixels in Spectrum: 1024
>>>>>Begin Spectral Data<<<<<
801.071	2944
801.214	2975
801.356	2880
801.499	2944
801.641	2910
801.783	2944
801.926	3039
802.068	3017
802.211	3005
802.353	3013
802.496	2979
802.638	3024
802.78	3070
802.923	3055
803.065	3009
803.208	2933
803.35	2922
803.492	2944
803.635	2963
803.777	2785
803.919	2861
804.061	3249
804.204	2994
804.346	2956
804.488	2849
804.63	3005
804.773	2899
804.915	2941
805.057	3085
805.199	2975
805.341	2986
805.483	3043
805.626	3005
805.768	2986
805.91	3100
806.052	3077
806.194	3028
806.336	3245
806.478	3005
806.62	2948
806.762	3005
806.904	3093
807.046	3176
807.188	3001
807.33	2925
807.472	3024
807.614	2918
807.756	3005
807.898	2956
808.04	2906
808.182	2956
808.324	2963
808.465	2880
808.607	2842
808.749	2811
808.891	2864
809.033	2960
809.174	3017
809.316	2861
809.458	2914
809.6	2792
809.741	2785
809.883	2815
810.025	2861
810.166	2880
810.308	2861
810.45	2853
810.591	2777
810.733	2796
810.875	2864
811.016	2807
811.158	2800
811.299	2834
811.441	2963
811.582	2891
811.724	2830
811.865	2849
812.007	2933
812.148	2876
812.29	2880
812.431	2922
812.573	2925
812.714	2994
812.855	3001
812.997	3077
813.138	3112
813.279	3043
813.421	2994
813.562	2952
813.703	2834
813.845	2891
813.986	2769
814.127	2727
814.268	2838
814.41	2849
814.551	2800
814.692	2880
814.833	2834
814.974	2941
815.115	2960
815.256	2819
815.397	2819
815.539	2872
815.68	2792
815.821	2815
815.962	2994
816.103	2910
816.244	2891
816.385	2876
816.526	3001
816.666	2914
816.807	2758
816.948	2914
817.089	2918
817.23	2876
817.371	2804
817.512	2815
817.653	2857
817.793	2800
817.934	2895
818.075	2975
818.216	2982
818.356	3043
818.497	2883
818.638	2807
818.778	2796
818.919	2792
819.06	2773
819.2	2872
819.341	2796
819.481	2800
819.622	2937
819.762	3081
819.903	3028
820.043	2944
820.184	2922
820.324	2902
820.465	3001
820.605	3043
820.746	3039
820.886	2960
821.026	3097
821.167	3184
821.307	3275
821.447	3279
821.588	3245
821.728	3230
821.868	3218
822.008	3085
822.149	3226
822.289	3211
822.429	3123
822.569	3093
822.709	3237
822.849	3024
822.99	3097
823.13	3176
823.27	3184
823.41	3112
823.55	3154
823.69	3161
823.83	3218
823.97	3142
824.11	2982
824.25	3013
824.389	3085
824.529	3142
824.669	3070
824.809	3226
824.949	3279
825.089	3241
825.228	3180
825.368	3001
825.508	2990
825.648	2986
825.787	3009
825.927	2998
826.067	2967
826.206	2971
826.346	3017
826.485	3093
826.625	3108
826.765	3313
826.904	3203
827.044	3020
827.183	2960
827.323	2838
827.462	3005
827.601	2910
827.741	2914
827.88	2960
828.02	2861
828.159	2960
828.298	3085
828.437	3112
828.577	3024
828.716	3218
828.855	3070
828.994	2922
829.134	2910
829.273	2910
829.412	2857
829.551	2876
829.69	2910
829.829	2975
829.968	3104
830.107	3032
830.246	3020
830.385	2933
830.524	2876
830.663	2823
830.802	2731
830.941	2663
831.08	2667
831.219	2750
831.357	2762
831.496	2967
831.635	2716
831.774	2651
831.913	2659
832.051	2571
832.19	2579
832.329	2705
832.467	2522
832.606	2476
832.744	2606
832.883	2583
833.022	2587
833.16	2648
833.299	2697
833.437	2724
833.576	2731
833.714	2731
833.852	2697
833.991	2731
834.129	2830
834.267	2842
834.406	2819
834.544	2883
834.682	2872
834.821	2891
834.959	3047
835.097	2880
835.235	3039
835.373	2982
835.511	3047
835.65	2967
835.788	2963
835.926	2838
836.064	2853
836.202	2838
836.34	3077
836.478	3146
836.615	3066
836.753	3150
836.891	3218
837.029	3199
837.167	3074
837.305	3089
837.443	3039
837.58	2967
837.718	3085
837.856	3100
837.993	3005
838.131	3112
838.269	3104
838.406	3089
838.544	3123
838.681	2979
838.819	2960
838.956	2804
839.094	2792
839.231	2902
839.369	3024
839.506	3378
839.643	3203
839.781	3020
839.918	2975
840.055	3051
840.193	3055
840.33	3062
840.467	3116
840.604	3135
840.742	3431
840.879	3009
841.016	3039
841.153	3119
841.29	3325
841.427	3294
841.564	3275
841.701	3310
841.838	3222
841.975	3173
842.112	3245
842.249	3066
842.385	3104
842.522	3283
842.659	3093
842.796	3036
842.933	3116
843.069	3066
843.206	3028
843.343	3192
843.479	3112
843.616	3165
843.752	2941
843.889	2899
844.025	3127
844.162	2857
844.298	3108
844.435	2963
844.571	2910
844.708	3085
844.844	3176
844.98	3256
845.117	3188
845.253	3028
845.389	3001
845.525	3112
845.661	3070
845.798	3017
845.934	3119
846.07	3051
846.206	3218
846.342	3325
846.478	3237
846.614	3112
846.75	3043
846.886	3036
847.022	3237
847.158	3104
847.294	3180
847.429	3245
847.565	3192
847.701	3477
847.837	3055
847.972	3005
848.108	3123
848.244	3150
848.379	2975
848.515	2971
848.65	2899
848.786	2975
848.921	3024
849.057	3104
849.192	3131
849.328	3051
849.463	3119
849.598	3043
849.734	3039
849.869	2975
850.004	2941
850.14	2971
850.275	2929
850.41	2861
850.545	2842
850.68	2914
850.815	2952
850.95	2948
851.085	3203
851.22	3112
851.355	3051
851.49	3013
851.625	2998
851.76	2994
851.895	2937
852.03	2910
852.165	3036
852.299	3085
852.434	3226
852.569	3127
852.703	3157
852.838	3268
852.973	3359
853.107	3302
853.242	3169
853.376	3089
853.511	2994
853.645	3062
853.78	3245
853.914	3127
854.048	3116
854.183	3089
854.317	3161
854.451	3283
854.585	3123
854.72	3081
854.854	3230
854.988	3028
855.122	3077
855.256	2998
855.39	3108
855.524	3260
855.658	3173
855.792	3157
855.926	3214
856.06	3195
856.194	3264
856.327	3165
856.461	3077
856.595	3085
856.729	3081
856.862	3233
856.996	3173
857.13	3192
857.263	3275
857.397	3313
857.53	3123
857.664	3207
857.797	3222
857.931	3260
858.064	3203
858.197	3203
858.331	3119
858.464	3093
858.597	3005
858.731	3127
858.864	3150
858.997	3051
859.13	3142
859.263	3180
859.396	3214
859.529	3074
859.662	3032
859.795	3070
859.928	3081
860.061	3275
860.194	3256
860.327	3161
860.46	3089
860.592	3192
860.725	3233
860.858	3253
860.99	3097
861.123	3032
861.256	3051
861.388	3154
861.521	3892
861.653	2998
861.786	2982
861.918	3009
862.05	3070
862.183	3089
862.315	3142
862.447	3180
862.58	3104
862.712	2933
862.844	2853
862.976	3009
863.108	3024
863.24	3409
863.372	2883
863.504	2979
863.636	2918
863.768	3009
863.9	2994
864.032	2929
864.164	2975
864.296	3043
864.428	3077
864.559	3085
864.691	3070
864.823	3047
864.954	3005
865.086	3039
865.217	2971
865.349	2948
865.48	2979
865.612	3005
865.743	3138
865.875	3005
866.006	2922
866.137	3005
866.269	2944
866.4	2952
866.531	2887
866.662	2906
866.793	2891
866.924	2895
867.055	3020
867.186	2941
867.317	2876
867.448	2834
867.579	2849
867.71	2868
867.841	2804
867.972	2918
868.103	2906
868.233	2914
868.364	2880
868.495	2902
868.625	3039
868.756	3203
868.886	2948
869.017	3024
869.147	3150
869.278	3169
869.408	3047
869.539	3024
869.669	3097
869.799	3085
869.929	3127
870.06	3123
870.19	3302
870.32	3275
870.45	3249
870.58	3344
870.71	3431
870.84	3409
870.97	3264
871.1	3203
871.23	3481
871.36	3469
871.489	3329
871.619	3393
871.749	3428
871.879	3462
872.008	3477
872.138	3386
872.267	3241
872.397	3116
872.526	3131
872.656	2994
872.785	3093
872.915	3253
873.044	3302
873.173	3233
873.303	3245
873.432	3245
873.561	3241
873.69	3150
873.819	3146
873.948	3226
874.077	3100
874.206	3066
874.335	3051
874.464	3188
874.593	3355
874.722	3237
874.851	3405
874.979	3313
875.108	3329
875.237	3165
875.365	3146
875.494	3169
875.623	3230
875.751	3108
875.88	3169
876.008	3165
876.136	3211
876.265	3367
876.393	3473
876.521	3374
876.65	3401
876.778	3291
876.906	3291
877.034	3184
877.162	3230
877.29	3154
877.418	3233
877.546	3222
877.674	3233
877.802	3253
877.93	3211
878.058	3165
878.185	3138
878.313	3192
878.441	3195
878.568	3070
878.696	3135
878.824	3195
878.951	3336
879.079	3458
879.206	3572
879.333	3412
879.461	3291
879.588	3344
879.715	3469
879.842	3549
879.97	3336
880.097	3161
880.224	3093
880.351	3218
880.478	3188
880.605	3176
880.732	3116
880.859	3515
880.986	3298
881.112	3325
881.239	3157
881.366	3093
881.493	3036
881.619	2998
881.746	3085
881.872	3077
881.999	3081
882.125	3165
882.252	3218
882.378	3313
882.505	3439
882.631	3268
882.757	3131
882.883	3218
883.01	3218
883.136	3150
883.262	3085
883.388	3108
883.514	3355
883.64	3389
883.766	3321
883.892	3203
884.018	3207
884.143	3386
884.269	3519
884.395	3173
884.52	3157
884.646	3195
884.772	3131
884.897	3097
885.023	3203
885.148	3336
885.274	3374
885.399	3329
885.524	3226
885.65	3245
885.775	3325
885.9	3253
886.025	3412
886.15	3359
886.275	3249
886.4	3226
886.525	3283
886.65	3272
886.775	3260
886.9	3462
887.025	3603
887.149	3397
887.274	3253
887.399	3150
887.523	3222
887.648	3207
887.773	3184
887.897	3409
888.021	3389
888.146	3298
888.27	3405
888.395	3511
888.519	3416
888.643	3481
888.767	3435
888.891	3283
889.015	3256
889.139	3306
889.263	3249
889.387	3386
889.511	3492
889.635	3469
889.759	3313
889.883	3306
890.006	3367
890.13	3466
890.254	3287
890.377	3321
890.501	3226
890.624	3195
890.748	3313
890.871	3192
890.995	3116
891.118	3047
891.241	3222
891.364	3226
891.488	3325
891.611	3112
891.734	3279
891.857	3245
891.98	3237
892.103	3325
892.226	3268
892.349	3222
892.471	3165
892.594	3199
892.717	3245
892.839	3264
892.962	3287
893.085	3363
893.207	3336
893.33	3100
893.452	3199
893.575	3325
893.697	3237
893.819	3454
893.941	3492
894.064	3428
894.186	3272
894.308	3245
894.43	3462
894.552	3500
894.674	3473
894.796	3291
894.918	3317
895.04	3256
895.161	3409
895.283	3355
895.405	3317
895.526	3363
895.648	3443
895.769	3405
895.891	3454
896.012	3431
896.134	3450
896.255	3420
896.376	3374
896.498	3321
896.619	3401
896.74	3363
896.861	3389
896.982	3682
897.103	3876
897.224	3542
897.345	3500
897.466	3412
897.587	3500
897.708	3622
897.828	3545
897.949	3389
898.07	3317
898.19	3428
898.311	3603
898.431	3412
898.552	3523
898.672	3591
898.792	3576
898.913	3534
899.033	3389
899.153	3283
899.273	3256
899.393	3245
899.513	3298
899.633	3302
899.753	3313
899.873	3302
899.993	3367
900.113	3355
900.232	3386
900.352	3359
900.472	3249
900.591	3165
900.711	3294
900.83	3245
900.95	3420
901.069	3492
901.189	3332
901.308	3199
901.427	3104
901.546	3180
901.665	3283
901.784	3363
901.904	3211
902.023	3138
902.141	3005
902.26	2982
902.379	3097
902.498	3066
902.617	3058
902.735	3203
902.854	3245
902.973	3184
903.091	3017
903.21	3051
903.328	3108
903.446	3119
903.565	3093
903.683	3203
903.801	3089
903.919	3230
904.038	3256
904.156	3169
904.274	3287
904.392	3256
904.51	3313
904.627	3332
904.745	3443
904.863	3485
904.981	3237
905.098	3146
905.216	3207
905.334	3287
905.451	3310
905.569	3355
905.686	3405
905.803	3458
905.921	3294
906.038	3424
906.155	3363
906.272	3249
906.389	3317
906.506	3207
906.623	3291
906.74	3272
906.857	3195
906.974	3260
907.091	3458
907.208	3542
907.324	3466
907.441	3389
907.557	3222
907.674	3264
907.79	3214
907.907	3256
908.023	3336
908.139	3363
908.256	3332
908.372	3340
908.488	3374
908.604	3275
908.72	3214
908.836	3279
908.952	3332
909.068	3317
909.184	3492
909.3	3386
909.415	3450
909.531	3447
909.647	3279
909.762	3294
909.878	3268
909.993	3359
910.108	3329
910.224	3310
910.339	3393
910.454	3378
910.57	3268
910.685	3253
910.8	3614
910.915	3511
911.03	3435
911.145	3226
911.259	3272
911.374	3298
911.489	3253
911.604	3237
911.718	3093
911.833	3173
911.947	3055
912.062	2994
912.176	3176
912.291	3173
912.405	3150
912.519	3454
912.633	3504
912.748	3336
912.862	3279
912.976	3173
913.09	3070
913.204	3104
913.318	3272
913.431	3332
913.545	3321
913.659	3435
913.772	3317
913.886	3230
914	3192
914.113	3370
914.226	3401
914.34	3386
914.453	3230
914.566	3405
914.68	3302
914.793	3264
914.906	3150
915.019	3131
915.132	3066
915.245	3169
915.358	3218
915.47	3241
915.583	3245
915.696	3298
915.809	3435
915.921	3420
916.034	3291
916.146	3241
916.259	3245
916.371	3359
916.483	3409
916.595	3272
916.708	3332
916.82	3294
916.932	3363
917.044	3344
917.156	3344
917.268	3260
917.38	3313
917.491	3291
917.603	3374
917.715	3481
917.826	3450
917.938	3405
918.049	3279
918.161	3424
918.272	3542
918.384	3564
918.495	3454
918.606	3340
918.717	3253
918.828	3389
918.939	3397
919.05	3302
919.161	3325
919.272	3131
919.383	3268
919.494	3469
919.604	3671
919.715	3504
919.826	3439
919.936	3488
920.047	3553
920.157	3549
920.267	3755
920.378	3622
920.488	3564
920.598	3762
920.708	3987
920.818	3857
920.928	3838
921.038	4044
921.148	4044
921.258	3660
921.368	3606
921.477	3542
921.587	3534
921.697	3428
921.806	3618
921.916	3519
922.025	3389
922.134	3363
922.244	3313
922.353	3378
922.462	3249
922.571	3222
922.68	3112
922.789	3058
922.898	3157
923.007	3093
923.116	3199
923.224	3135
923.333	3214
923.442	3127
923.55	3066
923.659	3131
923.767	3241
923.876	3123
923.984	3237
924.092	3077
924.201	3211
924.309	3249
924.417	3260
924.525	3192
924.633	3207
924.741	4177
924.849	3039
924.956	3287
925.064	3123
925.172	3032
925.279	3112
925.387	3192
925.494	3176
925.602	3340
925.709	3321
925.816	3192
925.924	3294
926.031	3389
926.138	3329
926.245	3359
926.352	3207
926.459	3416
926.566	3469
926.673	3325
926.779	3222
926.886	3245
926.993	3161
927.099	3161
927.206	3116
927.312	3089
927.419	3230
927.525	3211
927.631	3237
927.737	3150
927.843	3119
927.95	3028
928.056	3123
928.162	3176
928.267	3241
928.373	3880
928.479	3310
928.585	3066
928.69	3176
928.796	3256
928.901	3157
929.007	3043
929.112	3222
929.218	3169
929.323	3131
929.428	3157
929.533	3329
929.638	3116
929.743	3176
929.848	3260
929.953	3195
930.058	3108
930.163	2975
930.267	3047
930.372	3199
930.477	3058
930.581	3302
930.685	3154
930.79	3024
930.894	3119
930.998	3138
931.103	3272
931.207	2979
931.311	2914
931.415	2906
931.519	2750
931.623	2781
