Data from test_V78500241_1953.txt Node
Date: Fri Mar 25 16:28:43 CST 2022
User: usil
Spectrometer: V785-0024
Trigger mode: 0
Integration Time (sec): 4.000000E-1
Scans to average: 1
Nonlinearity correction enabled: false
Boxcar width: 0
Storing dark spectrum: false
XAxis mode: Wavelengths
Number of Pixels in Spectrum: 1024
>>>>>Begin Spectral Data<<<<<
801.071	2929
801.214	2956
801.356	2876
801.499	2925
801.641	2842
801.783	2891
801.926	3032
802.068	2971
802.211	2975
802.353	3043
802.496	2922
802.638	2986
802.78	3001
802.923	3058
803.065	3001
803.208	2899
803.35	2929
803.492	2933
803.635	2963
803.777	2739
803.919	2868
804.061	3195
804.204	2899
804.346	2883
804.488	2834
804.63	2979
804.773	2880
804.915	2872
805.057	3013
805.199	2960
805.341	2979
805.483	3036
805.626	3001
805.768	2929
805.91	3081
806.052	3104
806.194	2994
806.336	3218
806.478	3017
806.62	2910
806.762	2982
806.904	3024
807.046	3165
807.188	2963
807.33	2933
807.472	2982
807.614	2933
807.756	2971
807.898	2914
808.04	2929
808.182	2994
808.324	2971
808.465	2891
808.607	2872
808.749	2785
808.891	2834
809.033	2971
809.174	2979
809.316	2887
809.458	2880
809.6	2735
809.741	2746
809.883	2785
810.025	2883
810.166	2834
810.308	2842
810.45	2857
810.591	2750
810.733	2773
810.875	2861
811.016	2750
811.158	2720
811.299	2838
811.441	2918
811.582	2895
811.724	2849
811.865	2826
812.007	2918
812.148	2868
812.29	2838
812.431	2876
812.573	2918
812.714	2990
812.855	3043
812.997	3032
813.138	3138
813.279	2994
813.421	2944
813.562	2990
813.703	2819
813.845	2864
813.986	2750
814.127	2724
814.268	2826
814.41	2876
814.551	2815
814.692	2849
814.833	2815
814.974	2918
815.115	2956
815.256	2830
815.397	2800
815.539	2834
815.68	2758
815.821	2785
815.962	2925
816.103	2952
816.244	2880
816.385	2830
816.526	2967
816.666	2944
816.807	2750
816.948	2887
817.089	2891
817.23	2804
817.371	2750
817.512	2792
817.653	2815
817.793	2838
817.934	2895
818.075	2967
818.216	3001
818.356	3001
818.497	2868
818.638	2796
818.778	2819
818.919	2788
819.06	2758
819.2	2891
819.341	2823
819.481	2815
819.622	2941
819.762	3081
819.903	3070
820.043	2922
820.184	2910
820.324	2899
820.465	3017
820.605	2990
820.746	3043
820.886	2933
821.026	3081
821.167	3138
821.307	3264
821.447	3275
821.588	3222
821.728	3207
821.868	3195
822.008	3116
822.149	3176
822.289	3211
822.429	3100
822.569	3081
822.709	3176
822.849	3058
822.99	3081
823.13	3157
823.27	3165
823.41	3070
823.55	3127
823.69	3131
823.83	3176
823.97	3100
824.11	2937
824.25	2986
824.389	3058
824.529	3093
824.669	3051
824.809	3192
824.949	3245
825.089	3199
825.228	3138
825.368	2990
825.508	2937
825.648	2956
825.787	3017
825.927	2975
826.067	2956
826.206	2941
826.346	3017
826.485	3074
826.625	3116
826.765	3233
826.904	3180
827.044	3005
827.183	2956
827.323	2853
827.462	2971
827.601	2902
827.741	2895
827.88	2922
828.02	2845
828.159	2941
828.298	3055
828.437	3108
828.577	3081
828.716	3207
828.855	3070
828.994	2937
829.134	2838
829.273	2899
829.412	2887
829.551	2826
829.69	2880
829.829	2994
829.968	3089
830.107	3039
830.246	3024
830.385	2914
830.524	2895
830.663	2842
830.802	2708
830.941	2655
831.08	2640
831.219	2754
831.357	2735
831.496	2941
831.635	2682
831.774	2629
831.913	2640
832.051	2549
832.19	2575
832.329	2648
832.467	2549
832.606	2457
832.744	2564
832.883	2575
833.022	2571
833.16	2625
833.299	2689
833.437	2686
833.576	2648
833.714	2716
833.852	2697
833.991	2750
834.129	2842
834.267	2842
834.406	2758
834.544	2887
834.682	2845
834.821	2830
834.959	3070
835.097	2864
835.235	3020
835.373	2982
835.511	3001
835.65	2952
835.788	2971
835.926	2819
836.064	2796
836.202	2830
836.34	3055
836.478	3108
836.615	3070
836.753	3123
836.891	3176
837.029	3157
837.167	3074
837.305	3032
837.443	3043
837.58	2967
837.718	3097
837.856	3043
837.993	3005
838.131	3127
838.269	3112
838.406	3058
838.544	3070
838.681	2918
838.819	2918
838.956	2792
839.094	2792
839.231	2906
839.369	2990
839.506	3340
839.643	3207
839.781	3013
839.918	2982
840.055	3020
840.193	3020
840.33	3043
840.467	3036
840.604	3127
840.742	3401
840.879	3043
841.016	3005
841.153	3100
841.29	3355
841.427	3241
841.564	3222
841.701	3294
841.838	3218
841.975	3127
842.112	3207
842.249	3058
842.385	2998
842.522	3237
842.659	3062
842.796	3051
842.933	3135
843.069	3039
843.206	3028
843.343	3195
843.479	3116
843.616	3112
843.752	2883
843.889	2872
844.025	3108
844.162	2895
844.298	3077
844.435	2979
844.571	2922
844.708	3081
844.844	3195
844.98	3245
845.117	3173
845.253	3058
845.389	3013
845.525	3112
845.661	3047
845.798	3009
845.934	3112
846.07	3024
846.206	3203
846.342	3298
846.478	3233
846.614	3062
846.75	3047
846.886	3013
847.022	3195
847.158	3119
847.294	3195
847.429	3192
847.565	3226
847.701	3466
847.837	3032
847.972	2941
848.108	3089
848.244	3108
848.379	3032
848.515	2925
848.65	2883
848.786	2941
848.921	2990
849.057	3093
849.192	3112
849.328	3024
849.463	3089
849.598	3058
849.734	2998
849.869	2948
850.004	2895
850.14	2967
850.275	2883
850.41	2815
850.545	2895
850.68	2910
850.815	2941
850.95	2982
851.085	3184
851.22	3051
851.355	3062
851.49	2986
851.625	2956
851.76	3009
851.895	2914
852.03	2876
852.165	3036
852.299	3081
852.434	3157
852.569	3108
852.703	3165
852.838	3214
852.973	3329
853.107	3313
853.242	3135
853.376	3070
853.511	2971
853.645	3036
853.78	3226
853.914	3108
854.048	3100
854.183	3074
854.317	3116
854.451	3291
854.585	3089
854.72	3081
854.854	3184
854.988	3024
855.122	3081
855.256	2971
855.39	3127
855.524	3195
855.658	3195
855.792	3165
855.926	3173
856.06	3230
856.194	3272
856.327	3127
856.461	3055
856.595	3100
856.729	3062
856.862	3199
856.996	3138
857.13	3176
857.263	3279
857.397	3241
857.53	3135
857.664	3184
857.797	3214
857.931	3249
858.064	3169
858.197	3184
858.331	3135
858.464	3093
858.597	2994
858.731	3150
858.864	3093
858.997	3058
859.13	3135
859.263	3180
859.396	3230
859.529	3055
859.662	3066
859.795	3028
859.928	3165
860.061	3253
860.194	3279
860.327	3093
860.46	3085
860.592	3245
860.725	3184
860.858	3237
860.99	3081
861.123	3047
861.256	3062
861.388	3119
861.521	3838
861.653	3009
861.786	2963
861.918	3013
862.05	3055
862.183	3142
862.315	3142
862.447	3157
862.58	3093
862.712	2918
862.844	2853
862.976	2971
863.108	2990
863.24	3302
863.372	2864
863.504	2937
863.636	2963
863.768	3055
863.9	2971
864.032	2902
864.164	2933
864.296	3009
864.428	3062
864.559	3070
864.691	3062
864.823	3039
864.954	3028
865.086	3024
865.217	2986
865.349	2922
865.48	2952
865.612	3001
865.743	3150
865.875	2960
866.006	2956
866.137	2982
866.269	2925
866.4	2914
866.531	2925
866.662	2902
866.793	2902
866.924	2925
867.055	2956
867.186	2937
867.317	2804
867.448	2845
867.579	2842
867.71	2845
867.841	2777
867.972	2887
868.103	2899
868.233	2868
868.364	2849
868.495	2887
868.625	3047
868.756	3116
868.886	2967
869.017	3005
869.147	3161
869.278	3131
869.408	3032
869.539	2990
869.669	3081
869.799	3005
869.929	3100
870.06	3085
870.19	3329
870.32	3268
870.45	3283
870.58	3359
870.71	3428
870.84	3416
870.97	3283
871.1	3249
871.23	3481
871.36	3443
871.489	3359
871.619	3359
871.749	3428
871.879	3443
872.008	3450
872.138	3306
872.267	3329
872.397	3180
872.526	3112
872.656	2998
872.785	3077
872.915	3214
873.044	3298
873.173	3214
873.303	3272
873.432	3260
873.561	3230
873.69	3180
873.819	3150
873.948	3230
874.077	3085
874.206	3077
874.335	3104
874.464	3184
874.593	3382
874.722	3256
874.851	3409
874.979	3359
875.108	3310
875.237	3222
875.365	3188
875.494	3180
875.623	3237
875.751	3093
875.88	3127
876.008	3230
876.136	3211
876.265	3416
876.393	3526
876.521	3416
876.65	3416
876.778	3336
876.906	3279
877.034	3230
877.162	3264
877.29	3188
877.418	3260
877.546	3260
877.674	3310
877.802	3245
877.93	3237
878.058	3203
878.185	3154
878.313	3237
878.441	3218
878.568	3108
878.696	3195
878.824	3283
878.951	3359
879.079	3496
879.206	3641
879.333	3443
879.461	3393
879.588	3363
879.715	3519
879.842	3614
879.97	3428
880.097	3192
880.224	3173
880.351	3233
880.478	3241
880.605	3237
880.732	3211
880.859	3545
880.986	3340
881.112	3332
881.239	3256
881.366	3123
881.493	3047
881.619	3058
881.746	3058
881.872	3127
881.999	3131
882.125	3192
882.252	3260
882.378	3287
882.505	3488
882.631	3340
882.757	3203
882.883	3253
883.01	3287
883.136	3169
883.262	3142
883.388	3161
883.514	3344
883.64	3378
883.766	3329
883.892	3256
884.018	3272
884.143	3443
884.269	3557
884.395	3256
884.52	3226
884.646	3180
884.772	3138
884.897	3150
885.023	3245
885.148	3351
885.274	3447
885.399	3420
885.524	3264
885.65	3283
885.775	3317
885.9	3287
886.025	3473
886.15	3378
886.275	3321
886.4	3249
886.525	3340
886.65	3260
886.775	3317
886.9	3538
887.025	3622
887.149	3428
887.274	3275
887.399	3169
887.523	3195
887.648	3222
887.773	3237
887.897	3450
888.021	3443
888.146	3317
888.27	3428
888.395	3530
888.519	3469
888.643	3485
888.767	3504
888.891	3321
889.015	3287
889.139	3329
889.263	3283
889.387	3435
889.511	3504
889.635	3473
889.759	3317
889.883	3382
890.006	3431
890.13	3564
890.254	3287
890.377	3416
890.501	3203
890.624	3233
890.748	3355
890.871	3207
890.995	3142
891.118	3070
891.241	3230
891.364	3268
891.488	3336
891.611	3184
891.734	3268
891.857	3298
891.98	3272
892.103	3431
892.226	3287
892.349	3249
892.471	3150
892.594	3260
892.717	3310
892.839	3287
892.962	3321
893.085	3412
893.207	3313
893.33	3161
893.452	3245
893.575	3370
893.697	3291
893.819	3477
893.941	3538
894.064	3458
894.186	3294
894.308	3313
894.43	3492
894.552	3572
894.674	3492
894.796	3291
894.918	3355
895.04	3275
895.161	3447
895.283	3401
895.405	3348
895.526	3416
895.648	3462
895.769	3458
895.891	3492
896.012	3549
896.134	3511
896.255	3443
896.376	3416
896.498	3367
896.619	3477
896.74	3401
896.861	3439
896.982	3709
897.103	3854
897.224	3652
897.345	3523
897.466	3473
897.587	3511
897.708	3625
897.828	3553
897.949	3428
898.07	3378
898.19	3477
898.311	3614
898.431	3492
898.552	3515
898.672	3610
898.792	3641
898.913	3580
899.033	3435
899.153	3332
899.273	3237
899.393	3321
899.513	3367
899.633	3351
899.753	3382
899.873	3332
899.993	3416
900.113	3378
900.232	3439
900.352	3397
900.472	3325
900.591	3230
900.711	3321
900.83	3264
900.95	3458
901.069	3523
901.189	3351
901.308	3203
901.427	3173
901.546	3226
901.665	3313
901.784	3382
901.904	3184
902.023	3157
902.141	3024
902.26	3020
902.379	3184
902.498	3058
902.617	3100
902.735	3237
902.854	3268
902.973	3249
903.091	3085
903.21	3119
903.328	3180
903.446	3138
903.565	3112
903.683	3214
903.801	3157
903.919	3256
904.038	3344
904.156	3207
904.274	3325
904.392	3264
904.51	3310
904.627	3370
904.745	3424
904.863	3568
904.981	3260
905.098	3154
905.216	3211
905.334	3351
905.451	3329
905.569	3355
905.686	3469
905.803	3481
905.921	3298
906.038	3473
906.155	3355
906.272	3306
906.389	3382
906.506	3211
906.623	3275
906.74	3298
906.857	3222
906.974	3302
907.091	3462
907.208	3591
907.324	3500
907.441	3439
907.557	3256
907.674	3283
907.79	3214
907.907	3283
908.023	3397
908.139	3370
908.256	3332
908.372	3386
908.488	3348
908.604	3283
908.72	3237
908.836	3325
908.952	3283
909.068	3298
909.184	3488
909.3	3389
909.415	3523
909.531	3492
909.647	3272
909.762	3298
909.878	3275
909.993	3367
910.108	3351
910.224	3351
910.339	3389
910.454	3363
910.57	3256
910.685	3260
910.8	3595
910.915	3545
911.03	3443
911.145	3313
911.259	3294
911.374	3325
911.489	3256
911.604	3253
911.718	3116
911.833	3195
911.947	3089
912.062	3028
912.176	3150
912.291	3192
912.405	3222
912.519	3439
912.633	3504
912.748	3370
912.862	3291
912.976	3226
913.09	3066
913.204	3176
913.318	3260
913.431	3344
913.545	3321
913.659	3450
913.772	3351
913.886	3226
914	3211
914.113	3401
914.226	3401
914.34	3370
914.453	3211
914.566	3439
914.68	3294
914.793	3310
914.906	3169
915.019	3100
915.132	3119
915.245	3195
915.358	3233
915.47	3226
915.583	3264
915.696	3291
915.809	3435
915.921	3443
916.034	3233
916.146	3294
916.259	3256
916.371	3428
916.483	3382
916.595	3294
916.708	3378
916.82	3340
916.932	3344
917.044	3416
917.156	3405
917.268	3249
917.38	3367
917.491	3329
917.603	3397
917.715	3458
917.826	3428
917.938	3382
918.049	3275
918.161	3412
918.272	3587
918.384	3595
918.495	3492
918.606	3378
918.717	3298
918.828	3397
918.939	3443
919.05	3363
919.161	3363
919.272	3203
919.383	3268
919.494	3488
919.604	3667
919.715	3496
919.826	3435
919.936	3492
920.047	3591
920.157	3572
920.267	3755
920.378	3648
920.488	3584
920.598	3778
920.708	4002
920.818	3876
920.928	3850
921.038	4044
921.148	4010
921.258	3743
921.368	3641
921.477	3580
921.587	3542
921.697	3511
921.806	3603
921.916	3526
922.025	3393
922.134	3367
922.244	3344
922.353	3469
922.462	3298
922.571	3253
922.68	3138
922.789	3108
922.898	3154
923.007	3081
923.116	3233
923.224	3173
923.333	3214
923.442	3093
923.55	3119
923.659	3157
923.767	3241
923.876	3165
923.984	3230
924.092	3142
924.201	3188
924.309	3245
924.417	3272
924.525	3180
924.633	3275
924.741	4173
924.849	3039
924.956	3264
925.064	3108
925.172	3051
925.279	3123
925.387	3226
925.494	3199
925.602	3363
925.709	3321
925.816	3188
925.924	3351
926.031	3401
926.138	3367
926.245	3374
926.352	3256
926.459	3412
926.566	3534
926.673	3325
926.779	3283
926.886	3283
926.993	3146
927.099	3146
927.206	3127
927.312	3161
927.419	3245
927.525	3195
927.631	3291
927.737	3161
927.843	3146
927.95	3047
928.056	3154
928.162	3195
928.267	3275
928.373	3846
928.479	3298
928.585	3081
928.69	3249
928.796	3306
928.901	3199
929.007	3085
929.112	3230
929.218	3207
929.323	3154
929.428	3165
929.533	3325
929.638	3131
929.743	3184
929.848	3260
929.953	3222
930.058	3161
930.163	3058
930.267	3043
930.372	3211
930.477	3058
930.581	3344
930.685	3184
930.79	3074
930.894	3123
930.998	3104
931.103	3279
931.207	2963
931.311	2948
931.415	2914
931.519	2773
931.623	2804
