Data from test_V78500241_1446.txt Node
Date: Fri Mar 25 16:25:13 CST 2022
User: usil
Spectrometer: V785-0024
Trigger mode: 0
Integration Time (sec): 4.000000E-1
Scans to average: 1
Nonlinearity correction enabled: false
Boxcar width: 0
Storing dark spectrum: false
XAxis mode: Wavelengths
Number of Pixels in Spectrum: 1024
>>>>>Begin Spectral Data<<<<<
801.071	2899
801.214	2895
801.356	2864
801.499	2861
801.641	2902
801.783	2918
801.926	2986
802.068	2956
802.211	2952
802.353	3001
802.496	2944
802.638	3001
802.78	3077
802.923	3020
803.065	3020
803.208	2883
803.35	2914
803.492	2906
803.635	2948
803.777	2754
803.919	2849
804.061	3169
804.204	2941
804.346	2872
804.488	2811
804.63	2960
804.773	2838
804.915	2899
805.057	3070
805.199	2918
805.341	2998
805.483	3028
805.626	2971
805.768	2925
805.91	3055
806.052	3093
806.194	3009
806.336	3218
806.478	3009
806.62	2933
806.762	2994
806.904	3051
807.046	3169
807.188	2990
807.33	2880
807.472	2979
807.614	2910
807.756	2967
807.898	2906
808.04	2872
808.182	2979
808.324	2929
808.465	2883
808.607	2891
808.749	2796
808.891	2834
809.033	2979
809.174	2975
809.316	2857
809.458	2910
809.6	2743
809.741	2792
809.883	2762
810.025	2849
810.166	2849
810.308	2857
810.45	2857
810.591	2769
810.733	2754
810.875	2796
811.016	2773
811.158	2769
811.299	2773
811.441	2922
811.582	2937
811.724	2800
811.865	2830
812.007	2925
812.148	2830
812.29	2857
812.431	2899
812.573	2933
812.714	2971
812.855	3043
812.997	3051
813.138	3119
813.279	3028
813.421	2967
813.562	2960
813.703	2891
813.845	2899
813.986	2777
814.127	2746
814.268	2807
814.41	2823
814.551	2823
814.692	2868
814.833	2796
814.974	2880
815.115	2979
815.256	2830
815.397	2834
815.539	2853
815.68	2735
815.821	2804
815.962	2941
816.103	2937
816.244	2845
816.385	2857
816.526	2960
816.666	2880
816.807	2724
816.948	2853
817.089	2895
817.23	2834
817.371	2788
817.512	2796
817.653	2823
817.793	2811
817.934	2861
818.075	2971
818.216	2967
818.356	3024
818.497	2910
818.638	2807
818.778	2826
818.919	2792
819.06	2777
819.2	2899
819.341	2792
819.481	2781
819.622	2914
819.762	3097
819.903	3028
820.043	2910
820.184	2887
820.324	2880
820.465	2998
820.605	3017
820.746	3005
820.886	2891
821.026	3119
821.167	3154
821.307	3230
821.447	3272
821.588	3203
821.728	3237
821.868	3154
822.008	3085
822.149	3180
822.289	3222
822.429	3104
822.569	3093
822.709	3192
822.849	3039
822.99	3055
823.13	3142
823.27	3233
823.41	3112
823.55	3161
823.69	3154
823.83	3169
823.97	3081
824.11	3009
824.25	2971
824.389	3043
824.529	3062
824.669	3047
824.809	3214
824.949	3241
825.089	3199
825.228	3165
825.368	3009
825.508	2941
825.648	2971
825.787	2994
825.927	2990
826.067	2979
826.206	2956
826.346	2994
826.485	3055
826.625	3146
826.765	3253
826.904	3218
827.044	3036
827.183	2941
827.323	2826
827.462	2982
827.601	2960
827.741	2933
827.88	2956
828.02	2811
828.159	2948
828.298	3024
828.437	3100
828.577	3077
828.716	3256
828.855	3085
828.994	2929
829.134	2906
829.273	2922
829.412	2872
829.551	2902
829.69	2906
829.829	2994
829.968	3138
830.107	2998
830.246	3043
830.385	2933
830.524	2899
830.663	2845
830.802	2750
830.941	2689
831.08	2689
831.219	2796
831.357	2731
831.496	2963
831.635	2743
831.774	2663
831.913	2693
832.051	2571
832.19	2610
832.329	2716
832.467	2545
832.606	2533
832.744	2613
832.883	2575
833.022	2632
833.16	2697
833.299	2720
833.437	2720
833.576	2724
833.714	2735
833.852	2746
833.991	2785
834.129	2868
834.267	2902
834.406	2788
834.544	2918
834.682	2887
834.821	2883
834.959	3077
835.097	2956
835.235	3108
835.373	3032
835.511	3077
835.65	2971
835.788	3001
835.926	2857
836.064	2807
836.202	2887
836.34	3131
836.478	3249
836.615	3081
836.753	3195
836.891	3214
837.029	3230
837.167	3146
837.305	3112
837.443	3093
837.58	2990
837.718	3169
837.856	3123
837.993	3070
838.131	3135
838.269	3108
838.406	3119
838.544	3138
838.681	3020
838.819	2960
838.956	2868
839.094	2864
839.231	2990
839.369	3058
839.506	3405
839.643	3256
839.781	3028
839.918	3013
840.055	3062
840.193	3123
840.33	3119
840.467	3112
840.604	3192
840.742	3443
840.879	3093
841.016	3058
841.153	3154
841.29	3367
841.427	3272
841.564	3306
841.701	3317
841.838	3253
841.975	3207
842.112	3245
842.249	3085
842.385	3051
842.522	3283
842.659	3116
842.796	3077
842.933	3138
843.069	3074
843.206	3089
843.343	3199
843.479	3138
843.616	3169
843.752	2933
843.889	2887
844.025	3097
844.162	2944
844.298	3089
844.435	2971
844.571	2948
844.708	3138
844.844	3165
844.98	3245
845.117	3256
845.253	3116
845.389	3043
845.525	3135
845.661	3112
845.798	3039
845.934	3165
846.07	3074
846.206	3233
846.342	3363
846.478	3233
846.614	3142
846.75	3116
846.886	3077
847.022	3256
847.158	3142
847.294	3226
847.429	3306
847.565	3233
847.701	3526
847.837	3051
847.972	3024
848.108	3195
848.244	3157
848.379	3009
848.515	2967
848.65	2975
848.786	2948
848.921	3051
849.057	3108
849.192	3165
849.328	3131
849.463	3119
849.598	3074
849.734	3074
849.869	3009
850.004	2925
850.14	2986
850.275	2929
850.41	2868
850.545	2880
850.68	2937
850.815	3005
850.95	3009
851.085	3241
851.22	3135
851.355	3062
851.49	3028
851.625	3032
851.76	3051
851.895	2990
852.03	2929
852.165	3062
852.299	3180
852.434	3214
852.569	3123
852.703	3199
852.838	3264
852.973	3348
853.107	3321
853.242	3176
853.376	3116
853.511	3013
853.645	3055
853.78	3256
853.914	3142
854.048	3131
854.183	3116
854.317	3138
854.451	3325
854.585	3157
854.72	3127
854.854	3253
854.988	3051
855.122	3077
855.256	2986
855.39	3150
855.524	3264
855.658	3241
855.792	3192
855.926	3188
856.06	3256
856.194	3287
856.327	3214
856.461	3093
856.595	3108
856.729	3100
856.862	3237
856.996	3207
857.13	3260
857.263	3226
857.397	3310
857.53	3176
857.664	3211
857.797	3260
857.931	3264
858.064	3218
858.197	3260
858.331	3150
858.464	3119
858.597	3032
858.731	3131
858.864	3161
858.997	3097
859.13	3150
859.263	3199
859.396	3237
859.529	3119
859.662	3127
859.795	3077
859.928	3154
860.061	3272
860.194	3313
860.327	3142
860.46	3161
860.592	3222
860.725	3260
860.858	3291
860.99	3146
861.123	3089
861.256	3100
861.388	3161
861.521	3915
861.653	3055
861.786	3039
861.918	3017
862.05	3081
862.183	3150
862.315	3157
862.447	3203
862.58	3119
862.712	2948
862.844	2906
862.976	3024
863.108	3013
863.24	3344
863.372	2895
863.504	2994
863.636	2982
863.768	3062
863.9	2998
864.032	2914
864.164	2990
864.296	3020
864.428	3062
864.559	3138
864.691	3097
864.823	3074
864.954	3062
865.086	3070
865.217	3039
865.349	2941
865.48	3005
865.612	3017
865.743	3192
865.875	3001
866.006	2979
866.137	3020
866.269	2971
866.4	2960
866.531	2929
866.662	2918
866.793	2891
866.924	2914
867.055	3017
867.186	2933
867.317	2929
867.448	2876
867.579	2872
867.71	2864
867.841	2804
867.972	2960
868.103	2967
868.233	2918
868.364	2899
868.495	2933
868.625	3119
868.756	3207
868.886	2963
869.017	3039
869.147	3161
869.278	3222
869.408	3074
869.539	3028
869.669	3150
869.799	3062
869.929	3138
870.06	3116
870.19	3313
870.32	3294
870.45	3313
870.58	3386
870.71	3485
870.84	3496
870.97	3310
871.1	3268
871.23	3507
871.36	3469
871.489	3378
871.619	3424
871.749	3409
871.879	3473
872.008	3477
872.138	3367
872.267	3321
872.397	3146
872.526	3108
872.656	3055
872.785	3081
872.915	3275
873.044	3294
873.173	3260
873.303	3230
873.432	3249
873.561	3287
873.69	3211
873.819	3131
873.948	3222
874.077	3131
874.206	3104
874.335	3097
874.464	3207
874.593	3367
874.722	3226
874.851	3363
874.979	3367
875.108	3344
875.237	3245
875.365	3176
875.494	3199
875.623	3260
875.751	3123
875.88	3161
876.008	3195
876.136	3260
876.265	3393
876.393	3519
876.521	3431
876.65	3424
876.778	3374
876.906	3222
877.034	3275
877.162	3268
877.29	3245
877.418	3298
877.546	3272
877.674	3260
877.802	3237
877.93	3241
878.058	3154
878.185	3093
878.313	3211
878.441	3222
878.568	3089
878.696	3131
878.824	3268
878.951	3340
879.079	3466
879.206	3641
879.333	3450
879.461	3351
879.588	3374
879.715	3469
879.842	3561
879.97	3386
880.097	3214
880.224	3142
880.351	3199
880.478	3249
880.605	3260
880.732	3184
880.859	3519
880.986	3302
881.112	3332
881.239	3241
881.366	3116
881.493	3058
881.619	3017
881.746	3089
881.872	3116
881.999	3142
882.125	3116
882.252	3253
882.378	3294
882.505	3409
882.631	3279
882.757	3180
882.883	3199
883.01	3226
883.136	3161
883.262	3112
883.388	3119
883.514	3332
883.64	3363
883.766	3355
883.892	3203
884.018	3226
884.143	3420
884.269	3584
884.395	3218
884.52	3173
884.646	3199
884.772	3123
884.897	3150
885.023	3195
885.148	3367
885.274	3428
885.399	3374
885.524	3298
885.65	3287
885.775	3340
885.9	3294
886.025	3477
886.15	3428
886.275	3332
886.4	3291
886.525	3321
886.65	3256
886.775	3283
886.9	3511
887.025	3663
887.149	3405
887.274	3279
887.399	3180
887.523	3222
887.648	3180
887.773	3211
887.897	3393
888.021	3382
888.146	3287
888.27	3431
888.395	3549
888.519	3458
888.643	3492
888.767	3473
888.891	3321
889.015	3256
889.139	3272
889.263	3279
889.387	3416
889.511	3530
889.635	3485
889.759	3291
889.883	3340
890.006	3416
890.13	3538
890.254	3275
890.377	3355
890.501	3233
890.624	3203
890.748	3321
890.871	3188
890.995	3138
891.118	3131
891.241	3192
891.364	3214
891.488	3344
891.611	3207
891.734	3241
891.857	3260
891.98	3245
892.103	3367
892.226	3264
892.349	3211
892.471	3131
892.594	3241
892.717	3310
892.839	3260
892.962	3310
893.085	3344
893.207	3313
893.33	3173
893.452	3214
893.575	3363
893.697	3256
893.819	3530
893.941	3519
894.064	3435
894.186	3287
894.308	3287
894.43	3469
894.552	3568
894.674	3500
894.796	3268
894.918	3340
895.04	3275
895.161	3424
895.283	3405
895.405	3298
895.526	3367
895.648	3431
895.769	3435
895.891	3454
896.012	3454
896.134	3473
896.255	3447
896.376	3363
896.498	3332
896.619	3435
896.74	3355
896.861	3409
896.982	3679
897.103	3857
897.224	3614
897.345	3534
897.466	3462
897.587	3515
897.708	3595
897.828	3584
897.949	3439
898.07	3336
898.19	3363
898.311	3595
898.431	3466
898.552	3515
898.672	3618
898.792	3564
898.913	3526
899.033	3397
899.153	3332
899.273	3207
899.393	3268
899.513	3351
899.633	3340
899.753	3363
899.873	3329
899.993	3374
900.113	3336
900.232	3424
900.352	3336
900.472	3298
900.591	3203
900.711	3317
900.83	3218
900.95	3412
901.069	3492
901.189	3367
901.308	3184
901.427	3123
901.546	3230
901.665	3298
901.784	3313
901.904	3272
902.023	3150
902.141	3043
902.26	2990
902.379	3131
902.498	3077
902.617	3036
902.735	3241
902.854	3233
902.973	3184
903.091	3058
903.21	3104
903.328	3157
903.446	3097
903.565	3112
903.683	3218
903.801	3127
903.919	3199
904.038	3283
904.156	3192
904.274	3279
904.392	3253
904.51	3325
904.627	3386
904.745	3466
904.863	3523
904.981	3260
905.098	3180
905.216	3241
905.334	3302
905.451	3310
905.569	3298
905.686	3412
905.803	3420
905.921	3313
906.038	3439
906.155	3336
906.272	3260
906.389	3336
906.506	3253
906.623	3256
906.74	3264
906.857	3211
906.974	3245
907.091	3412
907.208	3557
907.324	3492
907.441	3359
907.557	3218
907.674	3211
907.79	3218
907.907	3260
908.023	3355
908.139	3382
908.256	3340
908.372	3397
908.488	3313
908.604	3298
908.72	3249
908.836	3275
908.952	3279
909.068	3374
909.184	3519
909.3	3378
909.415	3485
909.531	3492
909.647	3294
909.762	3298
909.878	3256
909.993	3355
910.108	3359
910.224	3325
910.339	3435
910.454	3351
910.57	3283
910.685	3279
910.8	3606
910.915	3557
911.03	3416
911.145	3291
911.259	3306
911.374	3332
911.489	3233
911.604	3199
911.718	3154
911.833	3142
911.947	3047
912.062	2986
912.176	3116
912.291	3184
912.405	3199
912.519	3458
912.633	3488
912.748	3287
912.862	3302
912.976	3161
913.09	3070
913.204	3142
913.318	3249
913.431	3351
913.545	3351
913.659	3378
913.772	3329
913.886	3188
914	3233
914.113	3363
914.226	3420
914.34	3424
914.453	3253
914.566	3424
914.68	3332
914.793	3313
914.906	3119
915.019	3104
915.132	3062
915.245	3154
915.358	3249
915.47	3245
915.583	3287
915.696	3325
915.809	3397
915.921	3412
916.034	3256
916.146	3249
916.259	3207
916.371	3363
916.483	3313
916.595	3283
916.708	3310
916.82	3329
916.932	3389
917.044	3363
917.156	3363
917.268	3272
917.38	3272
917.491	3340
917.603	3412
917.715	3443
917.826	3454
917.938	3401
918.049	3287
918.161	3439
918.272	3603
918.384	3603
918.495	3492
918.606	3298
918.717	3294
918.828	3412
918.939	3409
919.05	3348
919.161	3359
919.272	3218
919.383	3298
919.494	3477
919.604	3698
919.715	3507
919.826	3397
919.936	3428
920.047	3614
920.157	3568
920.267	3800
920.378	3637
920.488	3568
920.598	3793
920.708	3953
920.818	3854
920.928	3835
921.038	3994
921.148	3991
921.258	3686
921.368	3629
921.477	3614
921.587	3572
921.697	3504
921.806	3633
921.916	3523
922.025	3370
922.134	3355
922.244	3332
922.353	3424
922.462	3260
922.571	3233
922.68	3112
922.789	3077
922.898	3161
923.007	3097
923.116	3245
923.224	3188
923.333	3199
923.442	3104
923.55	3077
923.659	3142
923.767	3195
923.876	3138
923.984	3260
924.092	3119
924.201	3226
924.309	3203
924.417	3256
924.525	3207
924.633	3211
924.741	4173
924.849	3070
924.956	3241
925.064	3085
925.172	3013
925.279	3093
925.387	3188
925.494	3207
925.602	3374
925.709	3310
925.816	3192
925.924	3260
926.031	3355
926.138	3359
926.245	3367
926.352	3237
926.459	3412
926.566	3488
926.673	3306
926.779	3222
926.886	3272
926.993	3150
927.099	3180
927.206	3112
927.312	3104
927.419	3226
927.525	3218
927.631	3253
927.737	3146
927.843	3127
927.95	3005
928.056	3146
928.162	3199
928.267	3272
928.373	3869
928.479	3294
928.585	3070
928.69	3226
928.796	3268
928.901	3154
929.007	3047
929.112	3184
929.218	3188
929.323	3157
929.428	3157
929.533	3344
929.638	3131
929.743	3203
929.848	3302
929.953	3237
930.058	3138
930.163	2986
930.267	3017
930.372	3211
930.477	3047
930.581	3351
930.685	3165
930.79	3058
930.894	3138
930.998	3104
931.103	3291
931.207	2986
931.311	2952
931.415	2956
931.519	2796
931.623	2811
