Data from test_V78500241_1264.txt Node
Date: Fri Mar 25 16:23:57 CST 2022
User: usil
Spectrometer: V785-0024
Trigger mode: 0
Integration Time (sec): 4.000000E-1
Scans to average: 1
Nonlinearity correction enabled: false
Boxcar width: 0
Storing dark spectrum: false
XAxis mode: Wavelengths
Number of Pixels in Spectrum: 1024
>>>>>Begin Spectral Data<<<<<
801.071	2895
801.214	2902
801.356	2853
801.499	2876
801.641	2861
801.783	2922
801.926	3043
802.068	2963
802.211	3028
802.353	3055
802.496	2971
802.638	2994
802.78	3009
802.923	3077
803.065	3024
803.208	2880
803.35	2933
803.492	2906
803.635	2941
803.777	2750
803.919	2845
804.061	3207
804.204	2963
804.346	2937
804.488	2845
804.63	2975
804.773	2857
804.915	2872
805.057	3039
805.199	2937
805.341	2941
805.483	3028
805.626	2963
805.768	2948
805.91	3066
806.052	3032
806.194	3089
806.336	3211
806.478	3024
806.62	2960
806.762	2937
806.904	3032
807.046	3127
807.188	2967
807.33	2899
807.472	3013
807.614	2872
807.756	2948
807.898	2941
808.04	2899
808.182	2967
808.324	2929
808.465	2899
808.607	2864
808.749	2762
808.891	2819
809.033	2956
809.174	2933
809.316	2857
809.458	2883
809.6	2743
809.741	2769
809.883	2758
810.025	2823
810.166	2845
810.308	2861
810.45	2849
810.591	2720
810.733	2769
810.875	2819
811.016	2773
811.158	2727
811.299	2769
811.441	2910
811.582	2883
811.724	2800
811.865	2815
812.007	2914
812.148	2899
812.29	2845
812.431	2880
812.573	2925
812.714	2960
812.855	3032
812.997	3020
813.138	3112
813.279	3013
813.421	2975
813.562	2941
813.703	2857
813.845	2899
813.986	2777
814.127	2773
814.268	2815
814.41	2804
814.551	2800
814.692	2849
814.833	2807
814.974	2872
815.115	2918
815.256	2811
815.397	2819
815.539	2864
815.68	2766
815.821	2785
815.962	2922
816.103	2963
816.244	2868
816.385	2853
816.526	2975
816.666	2868
816.807	2735
816.948	2853
817.089	2925
817.23	2845
817.371	2769
817.512	2788
817.653	2857
817.793	2819
817.934	2853
818.075	2933
818.216	2971
818.356	3017
818.497	2861
818.638	2819
818.778	2842
818.919	2800
819.06	2750
819.2	2895
819.341	2815
819.481	2800
819.622	2891
819.762	3093
819.903	3028
820.043	2876
820.184	2883
820.324	2857
820.465	2990
820.605	3013
820.746	3043
820.886	2937
821.026	3074
821.167	3154
821.307	3203
821.447	3249
821.588	3226
821.728	3188
821.868	3180
822.008	3047
822.149	3180
822.289	3203
822.429	3074
822.569	3058
822.709	3169
822.849	3020
822.99	3051
823.13	3154
823.27	3211
823.41	3100
823.55	3119
823.69	3165
823.83	3176
823.97	3085
824.11	2986
824.25	2975
824.389	3055
824.529	3085
824.669	3039
824.809	3226
824.949	3226
825.089	3222
825.228	3146
825.368	2982
825.508	2956
825.648	2963
825.787	2998
825.927	2998
826.067	2975
826.206	2918
826.346	3028
826.485	3093
826.625	3093
826.765	3226
826.904	3211
827.044	2963
827.183	2922
827.323	2826
827.462	2960
827.601	2883
827.741	2922
827.88	2960
828.02	2815
828.159	2979
828.298	3024
828.437	3081
828.577	3043
828.716	3260
828.855	3089
828.994	2925
829.134	2880
829.273	2922
829.412	2826
829.551	2861
829.69	2868
829.829	2971
829.968	3123
830.107	3039
830.246	3009
830.385	2895
830.524	2861
830.663	2796
830.802	2739
830.941	2632
831.08	2640
831.219	2697
831.357	2750
831.496	2929
831.635	2705
831.774	2613
831.913	2644
832.051	2560
832.19	2579
832.329	2678
832.467	2537
832.606	2450
832.744	2552
832.883	2583
833.022	2568
833.16	2632
833.299	2670
833.437	2701
833.576	2686
833.714	2689
833.852	2743
833.991	2754
834.129	2819
834.267	2796
834.406	2762
834.544	2876
834.682	2895
834.821	2834
834.959	3081
835.097	2883
835.235	3070
835.373	3005
835.511	2982
835.65	2963
835.788	2933
835.926	2807
836.064	2785
836.202	2811
836.34	3058
836.478	3131
836.615	3017
836.753	3104
836.891	3192
837.029	3150
837.167	3112
837.305	3028
837.443	3055
837.58	2910
837.718	3123
837.856	3058
837.993	2998
838.131	3123
838.269	3119
838.406	3055
838.544	3066
838.681	2933
838.819	2902
838.956	2842
839.094	2811
839.231	2899
839.369	3009
839.506	3348
839.643	3222
839.781	3001
839.918	2952
840.055	3020
840.193	3028
840.33	2979
840.467	3081
840.604	3138
840.742	3386
840.879	3051
841.016	3055
841.153	3108
841.29	3310
841.427	3306
841.564	3237
841.701	3279
841.838	3188
841.975	3161
842.112	3184
842.249	3058
842.385	3024
842.522	3214
842.659	3089
842.796	3036
842.933	3100
843.069	3005
843.206	3005
843.343	3131
843.479	3154
843.616	3081
843.752	2887
843.889	2880
844.025	3039
844.162	2861
844.298	3066
844.435	2906
844.571	2857
844.708	3070
844.844	3142
844.98	3218
845.117	3180
845.253	3032
845.389	3005
845.525	3062
845.661	3097
845.798	2918
845.934	3116
846.07	3036
846.206	3184
846.342	3298
846.478	3211
846.614	3055
846.75	3032
846.886	3028
847.022	3207
847.158	3142
847.294	3203
847.429	3195
847.565	3146
847.701	3435
847.837	3001
847.972	2994
848.108	3165
848.244	3123
848.379	2963
848.515	2922
848.65	2914
848.786	2948
848.921	2986
849.057	3077
849.192	3119
849.328	3051
849.463	3081
849.598	3074
849.734	3024
849.869	2925
850.004	2929
850.14	2956
850.275	2899
850.41	2891
850.545	2880
850.68	2929
850.815	2963
850.95	2979
851.085	3241
851.22	3123
851.355	3020
851.49	2979
851.625	3009
851.76	3032
851.895	2925
852.03	2922
852.165	3085
852.299	3104
852.434	3173
852.569	3176
852.703	3207
852.838	3260
852.973	3378
853.107	3355
853.242	3169
853.376	3097
853.511	3028
853.645	3017
853.78	3253
853.914	3180
854.048	3116
854.183	3123
854.317	3195
854.451	3283
854.585	3184
854.72	3169
854.854	3260
854.988	3074
855.122	3142
855.256	3005
855.39	3097
855.524	3260
855.658	3260
855.792	3211
855.926	3253
856.06	3253
856.194	3294
856.327	3161
856.461	3112
856.595	3150
856.729	3089
856.862	3237
856.996	3184
857.13	3211
857.263	3317
857.397	3287
857.53	3157
857.664	3241
857.797	3272
857.931	3291
858.064	3161
858.197	3199
858.331	3157
858.464	3154
858.597	3055
858.731	3157
858.864	3150
858.997	3142
859.13	3192
859.263	3188
859.396	3245
859.529	3112
859.662	3077
859.795	3055
859.928	3184
860.061	3332
860.194	3325
860.327	3165
860.46	3108
860.592	3245
860.725	3294
860.858	3256
860.99	3157
861.123	3066
861.256	3116
861.388	3203
861.521	3770
861.653	3062
861.786	3032
861.918	3009
862.05	3066
862.183	3116
862.315	3173
862.447	3237
862.58	3127
862.712	2963
862.844	2906
862.976	3036
863.108	3013
863.24	3321
863.372	2887
863.504	3005
863.636	2960
863.768	3058
863.9	2998
864.032	2914
864.164	2963
864.296	3047
864.428	3077
864.559	3138
864.691	3108
864.823	3131
864.954	3062
865.086	3081
865.217	3039
865.349	2986
865.48	3032
865.612	3047
865.743	3203
865.875	3009
866.006	2979
866.137	3001
866.269	2975
866.4	2960
866.531	2971
866.662	2918
866.793	2899
866.924	2922
867.055	3005
867.186	2971
867.317	2918
867.448	2864
867.579	2876
867.71	2857
867.841	2838
867.972	2925
868.103	2899
868.233	2895
868.364	2910
868.495	2918
868.625	3077
868.756	3165
868.886	3013
869.017	3047
869.147	3180
869.278	3157
869.408	3100
869.539	3051
869.669	3112
869.799	3032
869.929	3184
870.06	3146
870.19	3382
870.32	3329
870.45	3329
870.58	3393
870.71	3443
870.84	3481
870.97	3291
871.1	3283
871.23	3530
871.36	3473
871.489	3348
871.619	3431
871.749	3435
871.879	3450
872.008	3515
872.138	3439
872.267	3313
872.397	3169
872.526	3116
872.656	3043
872.785	3138
872.915	3268
873.044	3336
873.173	3256
873.303	3264
873.432	3272
873.561	3226
873.69	3173
873.819	3161
873.948	3218
874.077	3119
874.206	3097
874.335	3123
874.464	3264
874.593	3382
874.722	3287
874.851	3416
874.979	3405
875.108	3374
875.237	3176
875.365	3188
875.494	3188
875.623	3249
875.751	3074
875.88	3135
876.008	3226
876.136	3230
876.265	3367
876.393	3530
876.521	3435
876.65	3386
876.778	3351
876.906	3287
877.034	3233
877.162	3275
877.29	3230
877.418	3298
877.546	3237
877.674	3256
877.802	3264
877.93	3241
878.058	3176
878.185	3154
878.313	3218
878.441	3230
878.568	3112
878.696	3188
878.824	3287
878.951	3325
879.079	3477
879.206	3625
879.333	3443
879.461	3340
879.588	3370
879.715	3458
879.842	3606
879.97	3420
880.097	3176
880.224	3146
880.351	3226
880.478	3233
880.605	3226
880.732	3218
880.859	3511
880.986	3310
881.112	3359
881.239	3211
881.366	3108
881.493	3032
881.619	3039
881.746	3058
881.872	3112
881.999	3173
882.125	3165
882.252	3264
882.378	3317
882.505	3431
882.631	3310
882.757	3180
882.883	3260
883.01	3226
883.136	3184
883.262	3135
883.388	3157
883.514	3370
883.64	3412
883.766	3329
883.892	3165
884.018	3256
884.143	3435
884.269	3564
884.395	3245
884.52	3192
884.646	3188
884.772	3112
884.897	3093
885.023	3222
885.148	3332
885.274	3409
885.399	3378
885.524	3306
885.65	3260
885.775	3355
885.9	3291
886.025	3469
886.15	3378
886.275	3336
886.4	3241
886.525	3321
886.65	3321
886.775	3287
886.9	3534
887.025	3682
887.149	3401
887.274	3294
887.399	3211
887.523	3218
887.648	3207
887.773	3218
887.897	3382
888.021	3450
888.146	3291
888.27	3519
888.395	3523
888.519	3458
888.643	3485
888.767	3496
888.891	3336
889.015	3192
889.139	3302
889.263	3230
889.387	3454
889.511	3511
889.635	3500
889.759	3302
889.883	3302
890.006	3431
890.13	3485
890.254	3279
890.377	3363
890.501	3237
890.624	3230
890.748	3329
890.871	3188
890.995	3089
891.118	3146
891.241	3218
891.364	3260
891.488	3344
891.611	3214
891.734	3241
891.857	3298
891.98	3249
892.103	3374
892.226	3298
892.349	3241
892.471	3093
892.594	3256
892.717	3313
892.839	3256
892.962	3272
893.085	3344
893.207	3298
893.33	3157
893.452	3207
893.575	3351
893.697	3214
893.819	3504
893.941	3511
894.064	3511
894.186	3264
894.308	3344
894.43	3469
894.552	3549
894.674	3435
894.796	3298
894.918	3344
895.04	3355
895.161	3454
895.283	3367
895.405	3317
895.526	3386
895.648	3401
895.769	3435
895.891	3447
896.012	3488
896.134	3481
896.255	3424
896.376	3431
896.498	3393
896.619	3469
896.74	3378
896.861	3424
896.982	3709
897.103	3854
897.224	3599
897.345	3477
897.466	3454
897.587	3504
897.708	3625
897.828	3572
897.949	3466
898.07	3340
898.19	3443
898.311	3614
898.431	3454
898.552	3500
898.672	3599
898.792	3625
898.913	3545
899.033	3439
899.153	3302
899.273	3264
899.393	3310
899.513	3340
899.633	3363
899.753	3401
899.873	3321
899.993	3389
900.113	3340
900.232	3386
900.352	3367
900.472	3306
900.591	3222
900.711	3310
900.83	3199
900.95	3431
901.069	3530
901.189	3382
901.308	3214
901.427	3135
901.546	3180
901.665	3348
901.784	3351
901.904	3226
902.023	3138
902.141	3013
902.26	2986
902.379	3104
902.498	3062
902.617	3066
902.735	3218
902.854	3230
902.973	3184
903.091	3055
903.21	3127
903.328	3165
903.446	3138
903.565	3100
903.683	3207
903.801	3116
903.919	3287
904.038	3272
904.156	3165
904.274	3230
904.392	3310
904.51	3302
904.627	3313
904.745	3416
904.863	3511
904.981	3294
905.098	3203
905.216	3218
905.334	3294
905.451	3294
905.569	3310
905.686	3424
905.803	3454
905.921	3306
906.038	3454
906.155	3412
906.272	3241
906.389	3325
906.506	3230
906.623	3272
906.74	3260
906.857	3233
906.974	3256
907.091	3462
907.208	3599
907.324	3473
907.441	3401
907.557	3207
907.674	3218
907.79	3184
907.907	3325
908.023	3412
908.139	3439
908.256	3313
908.372	3416
908.488	3370
908.604	3245
908.72	3287
908.836	3298
908.952	3253
909.068	3340
909.184	3507
909.3	3412
909.415	3511
909.531	3496
909.647	3260
909.762	3287
909.878	3245
909.993	3374
910.108	3344
910.224	3348
910.339	3431
910.454	3325
910.57	3336
910.685	3256
910.8	3633
910.915	3553
911.03	3435
911.145	3256
911.259	3310
911.374	3317
911.489	3275
911.604	3241
911.718	3093
911.833	3154
911.947	3028
912.062	2990
912.176	3169
912.291	3218
912.405	3230
912.519	3458
912.633	3473
912.748	3298
912.862	3264
912.976	3222
913.09	3074
913.204	3131
913.318	3192
913.431	3355
913.545	3332
913.659	3439
913.772	3363
913.886	3203
914	3211
914.113	3336
914.226	3443
914.34	3363
914.453	3230
914.566	3401
914.68	3249
914.793	3313
914.906	3135
915.019	3154
915.132	3070
915.245	3169
915.358	3207
915.47	3245
915.583	3275
915.696	3336
915.809	3386
915.921	3393
916.034	3287
916.146	3245
916.259	3279
916.371	3344
916.483	3351
916.595	3279
916.708	3363
916.82	3302
916.932	3332
917.044	3336
917.156	3332
917.268	3256
917.38	3298
917.491	3306
917.603	3374
917.715	3447
917.826	3473
917.938	3397
918.049	3302
918.161	3428
918.272	3614
918.384	3633
918.495	3538
918.606	3367
918.717	3279
918.828	3382
918.939	3447
919.05	3359
919.161	3389
919.272	3169
919.383	3336
919.494	3542
919.604	3717
919.715	3485
919.826	3485
919.936	3500
920.047	3652
920.157	3557
920.267	3808
920.378	3637
920.488	3629
920.598	3823
920.708	3983
920.818	3869
920.928	3896
921.038	4055
921.148	4021
921.258	3759
921.368	3656
921.477	3572
921.587	3633
921.697	3485
921.806	3656
921.916	3519
922.025	3397
922.134	3412
922.244	3370
922.353	3496
922.462	3317
922.571	3306
922.68	3192
922.789	3100
922.898	3169
923.007	3150
923.116	3260
923.224	3226
923.333	3218
923.442	3157
923.55	3119
923.659	3207
923.767	3245
923.876	3169
923.984	3256
924.092	3142
924.201	3268
924.309	3241
924.417	3294
924.525	3245
924.633	3275
924.741	4055
924.849	3100
924.956	3336
925.064	3131
925.172	3135
925.279	3138
925.387	3260
925.494	3241
925.602	3439
925.709	3370
925.816	3233
925.924	3336
926.031	3420
926.138	3344
926.245	3420
926.352	3294
926.459	3431
926.566	3507
926.673	3378
926.779	3253
926.886	3264
926.993	3199
927.099	3184
927.206	3211
927.312	3188
927.419	3291
927.525	3268
927.631	3306
927.737	3195
927.843	3207
927.95	3085
928.056	3192
928.162	3199
928.267	3302
928.373	3922
928.479	3351
928.585	3093
928.69	3241
928.796	3298
928.901	3226
929.007	3047
929.112	3264
929.218	3214
929.323	3226
929.428	3199
929.533	3329
929.638	3104
929.743	3211
929.848	3253
929.953	3249
930.058	3203
930.163	3062
930.267	3077
930.372	3203
930.477	3097
930.581	3317
930.685	3195
930.79	3081
930.894	3173
930.998	3142
931.103	3317
931.207	2990
931.311	2990
931.415	2960
931.519	2823
931.623	2853
