Data from test_V78500241_196.txt Node
Date: Fri Mar 25 16:16:33 CST 2022
User: usil
Spectrometer: V785-0024
Trigger mode: 0
Integration Time (sec): 4.000000E-1
Scans to average: 1
Nonlinearity correction enabled: false
Boxcar width: 0
Storing dark spectrum: false
XAxis mode: Wavelengths
Number of Pixels in Spectrum: 1024
>>>>>Begin Spectral Data<<<<<
801.071	2918
801.214	2952
801.356	2872
801.499	2933
801.641	2864
801.783	2918
801.926	3017
802.068	2990
802.211	3032
802.353	3005
802.496	2998
802.638	3032
802.78	3028
802.923	3055
803.065	3039
803.208	2906
803.35	2922
803.492	2956
803.635	2971
803.777	2766
803.919	2914
804.061	3237
804.204	2967
804.346	2944
804.488	2883
804.63	2998
804.773	2861
804.915	2914
805.057	3089
805.199	2941
805.341	2960
805.483	3070
805.626	3001
805.768	3001
805.91	3074
806.052	3097
806.194	3070
806.336	3245
806.478	3051
806.62	2948
806.762	3013
806.904	3116
807.046	3165
807.188	3024
807.33	2910
807.472	3009
807.614	2922
807.756	2971
807.898	2941
808.04	2914
808.182	2986
808.324	2963
808.465	2910
808.607	2895
808.749	2769
808.891	2823
809.033	2986
809.174	2982
809.316	2891
809.458	2941
809.6	2773
809.741	2766
809.883	2766
810.025	2887
810.166	2872
810.308	2830
810.45	2899
810.591	2785
810.733	2830
810.875	2842
811.016	2739
811.158	2769
811.299	2849
811.441	2956
811.582	2899
811.724	2842
811.865	2845
812.007	2918
812.148	2895
812.29	2868
812.431	2910
812.573	2956
812.714	2979
812.855	3062
812.997	3055
813.138	3119
813.279	3009
813.421	2982
813.562	2941
813.703	2880
813.845	2906
813.986	2792
814.127	2724
814.268	2857
814.41	2845
814.551	2857
814.692	2868
814.833	2857
814.974	2899
815.115	2925
815.256	2880
815.397	2815
815.539	2876
815.68	2785
815.821	2807
815.962	2952
816.103	2937
816.244	2849
816.385	2883
816.526	3005
816.666	2914
816.807	2739
816.948	2857
817.089	2902
817.23	2880
817.371	2773
817.512	2819
817.653	2819
817.793	2845
817.934	2910
818.075	2952
818.216	3005
818.356	3005
818.497	2891
818.638	2807
818.778	2819
818.919	2815
819.06	2754
819.2	2906
819.341	2830
819.481	2796
819.622	2948
819.762	3100
819.903	3081
820.043	2929
820.184	2941
820.324	2883
820.465	3032
820.605	3028
820.746	3055
820.886	2937
821.026	3100
821.167	3169
821.307	3237
821.447	3302
821.588	3230
821.728	3241
821.868	3226
822.008	3039
822.149	3207
822.289	3256
822.429	3055
822.569	3097
822.709	3203
822.849	3051
822.99	3097
823.13	3157
823.27	3180
823.41	3138
823.55	3180
823.69	3150
823.83	3214
823.97	3089
824.11	3051
824.25	3005
824.389	3081
824.529	3123
824.669	3085
824.809	3195
824.949	3260
825.089	3233
825.228	3195
825.368	3005
825.508	2986
825.648	2971
825.787	3005
825.927	3036
826.067	2979
826.206	2963
826.346	2994
826.485	3093
826.625	3150
826.765	3302
826.904	3199
827.044	3005
827.183	2963
827.323	2819
827.462	2975
827.601	2933
827.741	2956
827.88	2937
828.02	2899
828.159	2963
828.298	3055
828.437	3097
828.577	3074
828.716	3310
828.855	3097
828.994	2960
829.134	2876
829.273	2986
829.412	2914
829.551	2861
829.69	2872
829.829	3017
829.968	3116
830.107	3032
830.246	3062
830.385	2895
830.524	2868
830.663	2811
830.802	2750
830.941	2674
831.08	2682
831.219	2762
831.357	2777
831.496	2948
831.635	2758
831.774	2667
831.913	2659
832.051	2564
832.19	2568
832.329	2648
832.467	2541
832.606	2511
832.744	2590
832.883	2575
833.022	2560
833.16	2682
833.299	2697
833.437	2720
833.576	2712
833.714	2758
833.852	2735
833.991	2754
834.129	2838
834.267	2807
834.406	2807
834.544	2880
834.682	2872
834.821	2906
834.959	3093
835.097	2925
835.235	3077
835.373	2990
835.511	3039
835.65	2967
835.788	2960
835.926	2834
836.064	2777
836.202	2861
836.34	3100
836.478	3169
836.615	3009
836.753	3142
836.891	3222
837.029	3138
837.167	3123
837.305	3058
837.443	3039
837.58	2948
837.718	3135
837.856	3097
837.993	3055
838.131	3112
838.269	3108
838.406	3127
838.544	3097
838.681	2925
838.819	2918
838.956	2815
839.094	2826
839.231	2922
839.369	3009
839.506	3332
839.643	3237
839.781	2979
839.918	2967
840.055	3081
840.193	3013
840.33	3055
840.467	3127
840.604	3173
840.742	3439
840.879	3028
841.016	3074
841.153	3100
841.29	3325
841.427	3317
841.564	3279
841.701	3317
841.838	3188
841.975	3165
842.112	3199
842.249	3093
842.385	3032
842.522	3298
842.659	3093
842.796	3089
842.933	3100
843.069	3055
843.206	3024
843.343	3237
843.479	3104
843.616	3161
843.752	2918
843.889	2891
844.025	3074
844.162	2891
844.298	3077
844.435	2944
844.571	2929
844.708	3070
844.844	3176
844.98	3222
845.117	3207
845.253	3066
845.389	3039
845.525	3085
845.661	3142
845.798	3047
845.934	3146
846.07	3051
846.206	3233
846.342	3313
846.478	3214
846.614	3108
846.75	3081
846.886	3024
847.022	3253
847.158	3195
847.294	3207
847.429	3237
847.565	3207
847.701	3496
847.837	3051
847.972	3009
848.108	3161
848.244	3157
848.379	2963
848.515	2971
848.65	2944
848.786	2960
848.921	3001
849.057	3108
849.192	3127
849.328	3081
849.463	3123
849.598	3051
849.734	3039
849.869	2971
850.004	2937
850.14	2963
850.275	2899
850.41	2849
850.545	2895
850.68	2963
850.815	2971
850.95	2952
851.085	3195
851.22	3131
851.355	3032
851.49	3039
851.625	2998
851.76	3024
851.895	2944
852.03	2910
852.165	3039
852.299	3135
852.434	3165
852.569	3169
852.703	3188
852.838	3256
852.973	3332
853.107	3370
853.242	3161
853.376	3089
853.511	2967
853.645	3043
853.78	3256
853.914	3097
854.048	3127
854.183	3123
854.317	3165
854.451	3313
854.585	3161
854.72	3100
854.854	3207
854.988	3089
855.122	3074
855.256	2979
855.39	3157
855.524	3233
855.658	3157
855.792	3180
855.926	3195
856.06	3253
856.194	3245
856.327	3146
856.461	3070
856.595	3138
856.729	3123
856.862	3226
856.996	3150
857.13	3222
857.263	3241
857.397	3283
857.53	3154
857.664	3211
857.797	3245
857.931	3264
858.064	3142
858.197	3226
858.331	3161
858.464	3100
858.597	3055
858.731	3100
858.864	3154
858.997	3108
859.13	3199
859.263	3161
859.396	3161
859.529	3116
859.662	3085
859.795	3043
859.928	3150
860.061	3294
860.194	3291
860.327	3154
860.46	3116
860.592	3214
860.725	3275
860.858	3287
860.99	3104
861.123	3070
861.256	3062
861.388	3138
861.521	3911
861.653	2994
861.786	2994
861.918	3005
862.05	3089
862.183	3097
862.315	3203
862.447	3180
862.58	3119
862.712	2952
862.844	2895
862.976	3028
863.108	3013
863.24	3329
863.372	2895
863.504	3005
863.636	2941
863.768	3055
863.9	3009
864.032	2883
864.164	2925
864.296	3058
864.428	3104
864.559	3131
864.691	3062
864.823	3074
864.954	3051
865.086	3062
865.217	3001
865.349	2944
865.48	2982
865.612	3009
865.743	3173
865.875	3017
866.006	2975
866.137	2971
866.269	2975
866.4	2925
866.531	2944
866.662	2876
866.793	2891
866.924	2902
867.055	2990
867.186	2944
867.317	2914
867.448	2845
867.579	2853
867.71	2838
867.841	2849
867.972	2914
868.103	2876
868.233	2868
868.364	2922
868.495	2899
868.625	3100
868.756	3188
868.886	3024
869.017	3017
869.147	3165
869.278	3173
869.408	3081
869.539	3013
869.669	3123
869.799	3085
869.929	3192
870.06	3131
870.19	3351
870.32	3283
870.45	3313
870.58	3351
870.71	3469
870.84	3462
870.97	3294
871.1	3287
871.23	3492
871.36	3431
871.489	3374
871.619	3424
871.749	3462
871.879	3412
872.008	3473
872.138	3393
872.267	3264
872.397	3146
872.526	3116
872.656	3009
872.785	3074
872.915	3222
873.044	3378
873.173	3233
873.303	3279
873.432	3272
873.561	3237
873.69	3195
873.819	3154
873.948	3180
874.077	3116
874.206	3043
874.335	3100
874.464	3230
874.593	3306
874.722	3207
874.851	3389
874.979	3374
875.108	3310
875.237	3218
875.365	3173
875.494	3161
875.623	3275
875.751	3077
875.88	3146
876.008	3214
876.136	3233
876.265	3378
876.393	3534
876.521	3466
876.65	3405
876.778	3351
876.906	3279
877.034	3203
877.162	3207
877.29	3169
877.418	3275
877.546	3241
877.674	3253
877.802	3245
877.93	3226
878.058	3165
878.185	3081
878.313	3192
878.441	3245
878.568	3104
878.696	3176
878.824	3245
878.951	3294
879.079	3466
879.206	3648
879.333	3420
879.461	3359
879.588	3363
879.715	3504
879.842	3625
879.97	3401
880.097	3192
880.224	3150
880.351	3188
880.478	3218
880.605	3184
880.732	3173
880.859	3485
880.986	3294
881.112	3332
881.239	3249
881.366	3116
881.493	3047
881.619	3039
881.746	3051
881.872	3104
881.999	3062
882.125	3127
882.252	3226
882.378	3359
882.505	3428
882.631	3264
882.757	3127
882.883	3253
883.01	3268
883.136	3173
883.262	3131
883.388	3119
883.514	3310
883.64	3389
883.766	3275
883.892	3226
884.018	3256
884.143	3405
884.269	3511
884.395	3188
884.52	3161
884.646	3218
884.772	3131
884.897	3097
885.023	3222
885.148	3317
885.274	3409
885.399	3378
885.524	3256
885.65	3268
885.775	3340
885.9	3306
886.025	3439
886.15	3378
886.275	3321
886.4	3226
886.525	3355
886.65	3264
886.775	3317
886.9	3504
887.025	3648
887.149	3412
887.274	3264
887.399	3214
887.523	3211
887.648	3230
887.773	3188
887.897	3405
888.021	3428
888.146	3287
888.27	3447
888.395	3572
888.519	3443
888.643	3454
888.767	3447
888.891	3344
889.015	3264
889.139	3283
889.263	3230
889.387	3450
889.511	3507
889.635	3458
889.759	3306
889.883	3317
890.006	3389
890.13	3458
890.254	3275
890.377	3359
890.501	3218
890.624	3199
890.748	3340
890.871	3188
890.995	3150
891.118	3074
891.241	3195
891.364	3211
891.488	3359
891.611	3207
891.734	3241
891.857	3298
891.98	3253
892.103	3321
892.226	3279
892.349	3226
892.471	3169
892.594	3233
892.717	3310
892.839	3294
892.962	3313
893.085	3405
893.207	3294
893.33	3150
893.452	3211
893.575	3367
893.697	3291
893.819	3538
893.941	3504
894.064	3443
894.186	3287
894.308	3275
894.43	3454
894.552	3576
894.674	3443
894.796	3279
894.918	3294
895.04	3287
895.161	3393
895.283	3386
895.405	3325
895.526	3401
895.648	3469
895.769	3431
895.891	3485
896.012	3481
896.134	3496
896.255	3374
896.376	3382
896.498	3363
896.619	3488
896.74	3405
896.861	3393
896.982	3705
897.103	3884
897.224	3618
897.345	3549
897.466	3450
897.587	3500
897.708	3641
897.828	3557
897.949	3412
898.07	3336
898.19	3409
898.311	3610
898.431	3481
898.552	3538
898.672	3618
898.792	3564
898.913	3580
899.033	3416
899.153	3275
899.273	3233
899.393	3241
899.513	3321
899.633	3298
899.753	3302
899.873	3325
899.993	3412
900.113	3336
900.232	3416
900.352	3367
900.472	3298
900.591	3253
900.711	3310
900.83	3264
900.95	3393
901.069	3477
901.189	3386
901.308	3214
901.427	3146
901.546	3230
901.665	3313
901.784	3344
901.904	3195
902.023	3176
902.141	3062
902.26	2982
902.379	3157
902.498	3097
902.617	3070
902.735	3241
902.854	3264
902.973	3211
903.091	3077
903.21	3066
903.328	3131
903.446	3150
903.565	3089
903.683	3195
903.801	3138
903.919	3264
904.038	3279
904.156	3188
904.274	3313
904.392	3268
904.51	3283
904.627	3336
904.745	3466
904.863	3496
904.981	3298
905.098	3173
905.216	3253
905.334	3302
905.451	3332
905.569	3306
905.686	3454
905.803	3473
905.921	3283
906.038	3454
906.155	3363
906.272	3298
906.389	3336
906.506	3260
906.623	3275
906.74	3260
906.857	3176
906.974	3268
907.091	3435
907.208	3584
907.324	3492
907.441	3374
907.557	3253
907.674	3272
907.79	3192
907.907	3256
908.023	3416
908.139	3401
908.256	3351
908.372	3389
908.488	3344
908.604	3275
908.72	3218
908.836	3283
908.952	3317
909.068	3351
909.184	3500
909.3	3405
909.415	3496
909.531	3477
909.647	3313
909.762	3351
909.878	3253
909.993	3386
910.108	3393
910.224	3325
910.339	3382
910.454	3374
910.57	3332
910.685	3260
910.8	3603
910.915	3530
911.03	3454
911.145	3310
911.259	3302
911.374	3332
911.489	3245
911.604	3233
911.718	3138
911.833	3169
911.947	3043
912.062	3017
912.176	3214
912.291	3173
912.405	3230
912.519	3466
912.633	3462
912.748	3332
912.862	3230
912.976	3169
913.09	3070
913.204	3112
913.318	3230
913.431	3317
913.545	3359
913.659	3431
913.772	3340
913.886	3241
914	3222
914.113	3386
914.226	3439
914.34	3382
914.453	3226
914.566	3454
914.68	3310
914.793	3313
914.906	3146
915.019	3100
915.132	3051
915.245	3161
915.358	3230
915.47	3218
915.583	3294
915.696	3321
915.809	3420
915.921	3431
916.034	3275
916.146	3298
916.259	3211
916.371	3348
916.483	3344
916.595	3279
916.708	3370
916.82	3355
916.932	3340
917.044	3389
917.156	3378
917.268	3249
917.38	3329
917.491	3298
917.603	3374
917.715	3447
917.826	3492
917.938	3401
918.049	3291
918.161	3454
918.272	3591
918.384	3584
918.495	3473
918.606	3325
918.717	3302
918.828	3412
918.939	3439
919.05	3302
919.161	3351
919.272	3161
919.383	3253
919.494	3500
919.604	3698
919.715	3488
919.826	3450
919.936	3507
920.047	3584
920.157	3564
920.267	3793
920.378	3641
920.488	3648
920.598	3766
920.708	3945
920.818	3831
920.928	3861
921.038	4032
921.148	4021
921.258	3732
921.368	3610
921.477	3530
921.587	3564
921.697	3485
921.806	3629
921.916	3530
922.025	3397
922.134	3389
922.244	3344
922.353	3439
922.462	3279
922.571	3237
922.68	3142
922.789	3108
922.898	3150
923.007	3093
923.116	3199
923.224	3176
923.333	3161
923.442	3112
923.55	3081
923.659	3180
923.767	3218
923.876	3169
923.984	3272
924.092	3123
924.201	3192
924.309	3230
924.417	3260
924.525	3218
924.633	3241
924.741	4215
924.849	3062
924.956	3268
925.064	3127
925.172	3036
925.279	3112
925.387	3237
925.494	3207
925.602	3409
925.709	3336
925.816	3211
925.924	3321
926.031	3374
926.138	3329
926.245	3389
926.352	3260
926.459	3409
926.566	3485
926.673	3310
926.779	3249
926.886	3237
926.993	3154
927.099	3180
927.206	3108
927.312	3123
927.419	3237
927.525	3199
927.631	3321
927.737	3138
927.843	3108
927.95	3047
928.056	3150
928.162	3207
928.267	3283
928.373	3876
928.479	3329
928.585	3058
928.69	3253
928.796	3298
928.901	3180
929.007	3036
929.112	3211
929.218	3203
929.323	3146
929.428	3192
929.533	3329
929.638	3157
929.743	3211
929.848	3279
929.953	3237
930.058	3135
930.163	3009
930.267	3070
930.372	3203
930.477	3066
930.581	3329
930.685	3188
930.79	3058
930.894	3169
930.998	3104
931.103	3298
931.207	2979
931.311	2948
931.415	2933
931.519	2785
931.623	2777
