Data from test_V78500241_1756.txt Node
Date: Fri Mar 25 16:27:22 CST 2022
User: usil
Spectrometer: V785-0024
Trigger mode: 0
Integration Time (sec): 4.000000E-1
Scans to average: 1
Nonlinearity correction enabled: false
Boxcar width: 0
Storing dark spectrum: false
XAxis mode: Wavelengths
Number of Pixels in Spectrum: 1024
>>>>>Begin Spectral Data<<<<<
801.071	2868
801.214	2941
801.356	2868
801.499	2895
801.641	2845
801.783	2906
801.926	3043
802.068	2952
802.211	2975
802.353	3062
802.496	2986
802.638	3032
802.78	3047
802.923	3081
803.065	2960
803.208	2872
803.35	2910
803.492	2944
803.635	2918
803.777	2743
803.919	2845
804.061	3195
804.204	2933
804.346	2895
804.488	2834
804.63	2971
804.773	2880
804.915	2891
805.057	3058
805.199	2914
805.341	2971
805.483	3001
805.626	2956
805.768	2944
805.91	3058
806.052	3116
806.194	2998
806.336	3192
806.478	3013
806.62	2937
806.762	2963
806.904	3058
807.046	3169
807.188	2971
807.33	2891
807.472	3017
807.614	2899
807.756	2952
807.898	2910
808.04	2834
808.182	2922
808.324	2960
808.465	2876
808.607	2872
808.749	2785
808.891	2826
809.033	2982
809.174	2906
809.316	2872
809.458	2872
809.6	2739
809.741	2746
809.883	2758
810.025	2876
810.166	2811
810.308	2857
810.45	2872
810.591	2758
810.733	2762
810.875	2807
811.016	2785
811.158	2739
811.299	2815
811.441	2922
811.582	2891
811.724	2823
811.865	2842
812.007	2910
812.148	2876
812.29	2853
812.431	2914
812.573	2929
812.714	2975
812.855	3036
812.997	3051
813.138	3085
813.279	2990
813.421	2925
813.562	2956
813.703	2838
813.845	2887
813.986	2804
814.127	2712
814.268	2804
814.41	2800
814.551	2785
814.692	2845
814.833	2785
814.974	2883
815.115	2963
815.256	2849
815.397	2823
815.539	2853
815.68	2758
815.821	2766
815.962	2929
816.103	2906
816.244	2857
816.385	2872
816.526	2952
816.666	2944
816.807	2773
816.948	2891
817.089	2918
817.23	2826
817.371	2743
817.512	2804
817.653	2826
817.793	2845
817.934	2887
818.075	2952
818.216	3001
818.356	2994
818.497	2864
818.638	2777
818.778	2830
818.919	2792
819.06	2739
819.2	2887
819.341	2811
819.481	2785
819.622	2910
819.762	3089
819.903	3020
820.043	2929
820.184	2925
820.324	2899
820.465	2990
820.605	2986
820.746	2979
820.886	2918
821.026	3058
821.167	3176
821.307	3214
821.447	3253
821.588	3211
821.728	3169
821.868	3207
822.008	3047
822.149	3161
822.289	3180
822.429	3085
822.569	3070
822.709	3150
822.849	3028
822.99	3104
823.13	3146
823.27	3150
823.41	3097
823.55	3112
823.69	3127
823.83	3165
823.97	3089
824.11	2975
824.25	2956
824.389	3062
824.529	3135
824.669	3028
824.809	3123
824.949	3256
825.089	3192
825.228	3169
825.368	3001
825.508	2944
825.648	2960
825.787	2990
825.927	2967
826.067	2933
826.206	2922
826.346	3032
826.485	3039
826.625	3116
826.765	3298
826.904	3188
827.044	2998
827.183	2944
827.323	2845
827.462	2998
827.601	2906
827.741	2937
827.88	2918
828.02	2910
828.159	2998
828.298	3077
828.437	3104
828.577	3058
828.716	3241
828.855	3077
828.994	2906
829.134	2910
829.273	2906
829.412	2864
829.551	2853
829.69	2895
829.829	3036
829.968	3135
830.107	3020
830.246	3047
830.385	2918
830.524	2918
830.663	2834
830.802	2731
830.941	2663
831.08	2655
831.219	2773
831.357	2781
831.496	2975
831.635	2769
831.774	2663
831.913	2712
832.051	2545
832.19	2613
832.329	2724
832.467	2579
832.606	2530
832.744	2613
832.883	2617
833.022	2640
833.16	2663
833.299	2739
833.437	2762
833.576	2739
833.714	2769
833.852	2766
833.991	2804
834.129	2868
834.267	2883
834.406	2857
834.544	2941
834.682	2922
834.821	2910
834.959	3089
835.097	2925
835.235	3081
835.373	3047
835.511	3013
835.65	2986
835.788	2986
835.926	2861
836.064	2807
836.202	2906
836.34	3127
836.478	3188
836.615	3089
836.753	3184
836.891	3256
837.029	3230
837.167	3123
837.305	3097
837.443	3116
837.58	3013
837.718	3161
837.856	3135
837.993	3070
838.131	3157
838.269	3142
838.406	3108
838.544	3119
838.681	2948
838.819	2979
838.956	2853
839.094	2880
839.231	2979
839.369	3062
839.506	3367
839.643	3249
839.781	3032
839.918	2990
840.055	3093
840.193	3081
840.33	3081
840.467	3108
840.604	3184
840.742	3466
840.879	3116
841.016	3089
841.153	3112
841.29	3348
841.427	3348
841.564	3287
841.701	3363
841.838	3268
841.975	3188
842.112	3226
842.249	3112
842.385	3077
842.522	3287
842.659	3123
842.796	3097
842.933	3131
843.069	3058
843.206	3032
843.343	3245
843.479	3150
843.616	3165
843.752	2933
843.889	2925
844.025	3104
844.162	2895
844.298	3089
844.435	2994
844.571	2960
844.708	3108
844.844	3226
844.98	3260
845.117	3214
845.253	3104
845.389	3074
845.525	3169
845.661	3146
845.798	2998
845.934	3135
846.07	3093
846.206	3245
846.342	3374
846.478	3218
846.614	3081
846.75	3051
846.886	3043
847.022	3287
847.158	3173
847.294	3207
847.429	3264
847.565	3237
847.701	3511
847.837	3047
847.972	3028
848.108	3169
848.244	3192
848.379	3024
848.515	2971
848.65	2937
848.786	2994
848.921	3017
849.057	3108
849.192	3165
849.328	3093
849.463	3150
849.598	3070
849.734	3009
849.869	3001
850.004	2937
850.14	3017
850.275	2941
850.41	2880
850.545	2872
850.68	2929
850.815	2975
850.95	3005
851.085	3199
851.22	3123
851.355	3104
851.49	3017
851.625	3047
851.76	3039
851.895	2944
852.03	2956
852.165	3081
852.299	3154
852.434	3237
852.569	3131
852.703	3180
852.838	3283
852.973	3367
853.107	3367
853.242	3150
853.376	3131
853.511	2998
853.645	3085
853.78	3245
853.914	3142
854.048	3146
854.183	3077
854.317	3154
854.451	3336
854.585	3104
854.72	3100
854.854	3237
854.988	3093
855.122	3097
855.256	2998
855.39	3131
855.524	3249
855.658	3211
855.792	3203
855.926	3222
856.06	3241
856.194	3294
856.327	3226
856.461	3123
856.595	3112
856.729	3154
856.862	3272
856.996	3173
857.13	3230
857.263	3233
857.397	3298
857.53	3157
857.664	3268
857.797	3241
857.931	3279
858.064	3176
858.197	3241
858.331	3146
858.464	3112
858.597	3028
858.731	3138
858.864	3161
858.997	3097
859.13	3222
859.263	3245
859.396	3249
859.529	3104
859.662	3108
859.795	3043
859.928	3157
860.061	3291
860.194	3332
860.327	3135
860.46	3100
860.592	3264
860.725	3256
860.858	3321
860.99	3119
861.123	3055
861.256	3043
861.388	3154
861.521	3880
861.653	3032
861.786	3032
861.918	3009
862.05	3077
862.183	3074
862.315	3161
862.447	3211
862.58	3157
862.712	2979
862.844	2880
862.976	3066
863.108	3020
863.24	3336
863.372	2895
863.504	3036
863.636	2960
863.768	3028
863.9	2990
864.032	2944
864.164	2982
864.296	3058
864.428	3123
864.559	3131
864.691	3119
864.823	3032
864.954	3051
865.086	3058
865.217	2998
865.349	2975
865.48	2986
865.612	3013
865.743	3123
865.875	2986
866.006	2979
866.137	3009
866.269	2982
866.4	2914
866.531	2918
866.662	2910
866.793	2906
866.924	2929
867.055	2982
867.186	2982
867.317	2887
867.448	2876
867.579	2842
867.71	2868
867.841	2826
867.972	2922
868.103	2941
868.233	2891
868.364	2910
868.495	2922
868.625	3081
868.756	3192
868.886	3001
869.017	3047
869.147	3195
869.278	3180
869.408	3093
869.539	3013
869.669	3131
869.799	3051
869.929	3176
870.06	3142
870.19	3355
870.32	3291
870.45	3355
870.58	3382
870.71	3507
870.84	3473
870.97	3291
871.1	3256
871.23	3488
871.36	3481
871.489	3355
871.619	3401
871.749	3393
871.879	3469
872.008	3488
872.138	3370
872.267	3306
872.397	3180
872.526	3135
872.656	3001
872.785	3108
872.915	3245
873.044	3325
873.173	3214
873.303	3226
873.432	3226
873.561	3294
873.69	3180
873.819	3123
873.948	3230
874.077	3119
874.206	3077
874.335	3097
874.464	3237
874.593	3344
874.722	3226
874.851	3424
874.979	3367
875.108	3351
875.237	3233
875.365	3237
875.494	3150
875.623	3241
875.751	3119
875.88	3146
876.008	3188
876.136	3207
876.265	3393
876.393	3534
876.521	3424
876.65	3424
876.778	3340
876.906	3264
877.034	3211
877.162	3237
877.29	3214
877.418	3272
877.546	3264
877.674	3302
877.802	3226
877.93	3249
878.058	3161
878.185	3085
878.313	3222
878.441	3199
878.568	3081
878.696	3169
878.824	3233
878.951	3313
879.079	3450
879.206	3618
879.333	3450
879.461	3329
879.588	3409
879.715	3469
879.842	3633
879.97	3374
880.097	3184
880.224	3127
880.351	3211
880.478	3256
880.605	3218
880.732	3180
880.859	3496
880.986	3294
881.112	3344
881.239	3203
881.366	3138
881.493	3051
881.619	3047
881.746	3100
881.872	3097
881.999	3108
882.125	3169
882.252	3237
882.378	3287
882.505	3424
882.631	3291
882.757	3127
882.883	3245
883.01	3249
883.136	3176
883.262	3108
883.388	3176
883.514	3340
883.64	3397
883.766	3336
883.892	3241
884.018	3233
884.143	3424
884.269	3553
884.395	3184
884.52	3176
884.646	3184
884.772	3127
884.897	3154
885.023	3199
885.148	3344
885.274	3443
885.399	3389
885.524	3291
885.65	3226
885.775	3329
885.9	3294
886.025	3447
886.15	3348
886.275	3332
886.4	3279
886.525	3321
886.65	3294
886.775	3272
886.9	3496
887.025	3682
887.149	3412
887.274	3298
887.399	3169
887.523	3233
887.648	3199
887.773	3188
887.897	3389
888.021	3428
888.146	3313
888.27	3450
888.395	3568
888.519	3443
888.643	3424
888.767	3466
888.891	3279
889.015	3264
889.139	3302
889.263	3256
889.387	3412
889.511	3511
889.635	3469
889.759	3302
889.883	3249
890.006	3435
890.13	3485
890.254	3256
890.377	3367
890.501	3195
890.624	3211
890.748	3336
890.871	3169
890.995	3146
891.118	3043
891.241	3192
891.364	3241
891.488	3332
891.611	3188
891.734	3249
891.857	3329
891.98	3264
892.103	3348
892.226	3272
892.349	3211
892.471	3112
892.594	3245
892.717	3279
892.839	3279
892.962	3313
893.085	3348
893.207	3321
893.33	3169
893.452	3211
893.575	3378
893.697	3253
893.819	3481
893.941	3496
894.064	3466
894.186	3283
894.308	3275
894.43	3443
894.552	3523
894.674	3477
894.796	3264
894.918	3310
895.04	3340
895.161	3439
895.283	3409
895.405	3340
895.526	3367
895.648	3447
895.769	3462
895.891	3466
896.012	3462
896.134	3496
896.255	3397
896.376	3405
896.498	3370
896.619	3447
896.74	3386
896.861	3405
896.982	3705
897.103	3861
897.224	3637
897.345	3481
897.466	3458
897.587	3462
897.708	3629
897.828	3561
897.949	3473
898.07	3294
898.19	3401
898.311	3576
898.431	3466
898.552	3488
898.672	3606
898.792	3576
898.913	3534
899.033	3409
899.153	3329
899.273	3233
899.393	3325
899.513	3329
899.633	3302
899.753	3367
899.873	3298
899.993	3393
900.113	3355
900.232	3420
900.352	3298
900.472	3298
900.591	3203
900.711	3279
900.83	3279
900.95	3409
901.069	3500
901.189	3351
901.308	3207
901.427	3154
901.546	3233
901.665	3332
901.784	3348
901.904	3226
902.023	3100
902.141	3051
902.26	2967
902.379	3157
902.498	3097
902.617	3070
902.735	3241
902.854	3237
902.973	3207
903.091	3051
903.21	3070
903.328	3127
903.446	3119
903.565	3097
903.683	3222
903.801	3184
903.919	3245
904.038	3298
904.156	3218
904.274	3310
904.392	3287
904.51	3310
904.627	3359
904.745	3481
904.863	3519
904.981	3294
905.098	3192
905.216	3260
905.334	3348
905.451	3340
905.569	3386
905.686	3428
905.803	3477
905.921	3332
906.038	3469
906.155	3363
906.272	3310
906.389	3412
906.506	3329
906.623	3275
906.74	3325
906.857	3260
906.974	3283
907.091	3488
907.208	3606
907.324	3515
907.441	3420
907.557	3253
907.674	3272
907.79	3268
907.907	3317
908.023	3389
908.139	3397
908.256	3409
908.372	3409
908.488	3412
908.604	3306
908.72	3260
908.836	3374
908.952	3332
909.068	3420
909.184	3545
909.3	3447
909.415	3561
909.531	3534
909.647	3329
909.762	3313
909.878	3317
909.993	3412
910.108	3420
910.224	3401
910.339	3409
910.454	3401
910.57	3325
910.685	3302
910.8	3637
910.915	3534
911.03	3439
911.145	3348
911.259	3298
911.374	3351
911.489	3245
911.604	3294
911.718	3192
911.833	3211
911.947	3081
912.062	2971
912.176	3233
912.291	3218
912.405	3249
912.519	3443
912.633	3515
912.748	3359
912.862	3313
912.976	3226
913.09	3108
913.204	3176
913.318	3241
913.431	3401
913.545	3374
913.659	3473
913.772	3397
913.886	3272
914	3253
914.113	3405
914.226	3462
914.34	3405
914.453	3253
914.566	3435
914.68	3348
914.793	3370
914.906	3157
915.019	3142
915.132	3100
915.245	3211
915.358	3272
915.47	3253
915.583	3298
915.696	3378
915.809	3435
915.921	3492
916.034	3291
916.146	3313
916.259	3249
916.371	3424
916.483	3431
916.595	3321
916.708	3355
916.82	3374
916.932	3363
917.044	3378
917.156	3370
917.268	3329
917.38	3332
917.491	3325
917.603	3420
917.715	3496
917.826	3496
917.938	3397
918.049	3291
918.161	3462
918.272	3622
918.384	3629
918.495	3500
918.606	3397
918.717	3321
918.828	3431
918.939	3428
919.05	3355
919.161	3409
919.272	3188
919.383	3302
919.494	3561
919.604	3724
919.715	3523
919.826	3439
919.936	3515
920.047	3610
920.157	3587
920.267	3808
920.378	3667
920.488	3595
920.598	3808
920.708	3998
920.818	3800
920.928	3873
921.038	4036
921.148	4006
921.258	3728
921.368	3720
921.477	3618
921.587	3572
921.697	3485
921.806	3671
921.916	3545
922.025	3397
922.134	3405
922.244	3340
922.353	3488
922.462	3306
922.571	3279
922.68	3138
922.789	3108
922.898	3192
923.007	3104
923.116	3237
923.224	3188
923.333	3237
923.442	3104
923.55	3100
923.659	3176
923.767	3256
923.876	3180
923.984	3268
924.092	3135
924.201	3237
924.309	3291
924.417	3287
924.525	3207
924.633	3306
924.741	4017
924.849	3066
924.956	3268
925.064	3104
925.172	3077
925.279	3135
925.387	3222
925.494	3192
925.602	3401
925.709	3378
925.816	3184
925.924	3351
926.031	3405
926.138	3355
926.245	3378
926.352	3344
926.459	3454
926.566	3473
926.673	3363
926.779	3268
926.886	3306
926.993	3157
927.099	3161
927.206	3131
927.312	3161
927.419	3245
927.525	3272
927.631	3306
927.737	3203
927.843	3176
927.95	3039
928.056	3173
928.162	3230
928.267	3275
928.373	3918
928.479	3325
928.585	3085
928.69	3256
928.796	3268
928.901	3211
929.007	3074
929.112	3241
929.218	3256
929.323	3169
929.428	3173
929.533	3344
929.638	3180
929.743	3195
929.848	3306
929.953	3260
930.058	3188
930.163	3055
930.267	3074
930.372	3253
930.477	3093
930.581	3389
930.685	3230
930.79	3108
930.894	3150
930.998	3138
931.103	3302
931.207	3005
931.311	2986
931.415	2960
931.519	2804
931.623	2842
