Data from test_V78500241_174.txt Node
Date: Fri Mar 25 16:16:24 CST 2022
User: usil
Spectrometer: V785-0024
Trigger mode: 0
Integration Time (sec): 4.000000E-1
Scans to average: 1
Nonlinearity correction enabled: false
Boxcar width: 0
Storing dark spectrum: false
XAxis mode: Wavelengths
Number of Pixels in Spectrum: 1024
>>>>>Begin Spectral Data<<<<<
801.071	2986
801.214	3009
801.356	2902
801.499	2952
801.641	2971
801.783	2952
801.926	3097
802.068	3032
802.211	3047
802.353	3112
802.496	3047
802.638	3066
802.78	3077
802.923	3112
803.065	3032
803.208	2929
803.35	2956
803.492	3005
803.635	2941
803.777	2788
803.919	2861
804.061	3237
804.204	2975
804.346	2944
804.488	2902
804.63	3028
804.773	2918
804.915	2948
805.057	3127
805.199	2960
805.341	3001
805.483	3047
805.626	3047
805.768	2971
805.91	3135
806.052	3154
806.194	3089
806.336	3245
806.478	3085
806.62	3013
806.762	3005
806.904	3058
807.046	3188
807.188	3013
807.33	2979
807.472	3051
807.614	2960
807.756	3001
807.898	2960
808.04	2929
808.182	3039
808.324	2967
808.465	2948
808.607	2960
808.749	2823
808.891	2872
809.033	3013
809.174	3005
809.316	2906
809.458	2910
809.6	2830
809.741	2796
809.883	2807
810.025	2868
810.166	2891
810.308	2864
810.45	2883
810.591	2788
810.733	2792
810.875	2887
811.016	2830
811.158	2777
811.299	2845
811.441	2952
811.582	2918
811.724	2861
811.865	2853
812.007	2925
812.148	2918
812.29	2891
812.431	2956
812.573	2979
812.714	2998
812.855	3089
812.997	3081
813.138	3150
813.279	3066
813.421	3024
813.562	2979
813.703	2887
813.845	2910
813.986	2811
814.127	2750
814.268	2864
814.41	2861
814.551	2842
814.692	2922
814.833	2853
814.974	2922
815.115	2990
815.256	2849
815.397	2887
815.539	2895
815.68	2864
815.821	2830
815.962	2998
816.103	3032
816.244	2944
816.385	2906
816.526	2990
816.666	2929
816.807	2788
816.948	2941
817.089	3001
817.23	2891
817.371	2815
817.512	2838
817.653	2857
817.793	2887
817.934	2922
818.075	3024
818.216	3032
818.356	3024
818.497	2914
818.638	2823
818.778	2868
818.919	2800
819.06	2807
819.2	2929
819.341	2864
819.481	2872
819.622	2944
819.762	3176
819.903	3085
820.043	2963
820.184	2910
820.324	2941
820.465	3070
820.605	3036
820.746	3085
820.886	2910
821.026	3104
821.167	3226
821.307	3291
821.447	3317
821.588	3283
821.728	3287
821.868	3264
822.008	3100
822.149	3241
822.289	3283
822.429	3138
822.569	3131
822.709	3233
822.849	3051
822.99	3119
823.13	3180
823.27	3237
823.41	3157
823.55	3169
823.69	3192
823.83	3222
823.97	3116
824.11	3062
824.25	3024
824.389	3066
824.529	3142
824.669	3085
824.809	3218
824.949	3260
825.089	3279
825.228	3199
825.368	3017
825.508	2990
825.648	3001
825.787	3020
825.927	3039
826.067	3020
826.206	3005
826.346	3074
826.485	3070
826.625	3119
826.765	3306
826.904	3256
827.044	3024
827.183	2986
827.323	2937
827.462	3032
827.601	2956
827.741	2982
827.88	2998
828.02	2872
828.159	3020
828.298	3058
828.437	3161
828.577	3058
828.716	3272
828.855	3089
828.994	2971
829.134	2922
829.273	2948
829.412	2929
829.551	2887
829.69	2918
829.829	3017
829.968	3150
830.107	3009
830.246	3058
830.385	2929
830.524	2902
830.663	2834
830.802	2746
830.941	2674
831.08	2689
831.219	2785
831.357	2762
831.496	2941
831.635	2743
831.774	2686
831.913	2659
832.051	2606
832.19	2613
832.329	2701
832.467	2556
832.606	2457
832.744	2644
832.883	2640
833.022	2617
833.16	2724
833.299	2720
833.437	2708
833.576	2735
833.714	2750
833.852	2762
833.991	2785
834.129	2880
834.267	2845
834.406	2834
834.544	2918
834.682	2929
834.821	2914
834.959	3100
835.097	2914
835.235	3062
835.373	3017
835.511	3066
835.65	3017
835.788	3020
835.926	2876
836.064	2804
836.202	2845
836.34	3093
836.478	3218
836.615	3108
836.753	3169
836.891	3203
837.029	3195
837.167	3127
837.305	3123
837.443	3070
837.58	2990
837.718	3150
837.856	3081
837.993	3051
838.131	3173
838.269	3093
838.406	3131
838.544	3074
838.681	2975
838.819	2925
838.956	2838
839.094	2868
839.231	2941
839.369	3066
839.506	3409
839.643	3192
839.781	3074
839.918	2990
840.055	3058
840.193	3074
840.33	3131
840.467	3127
840.604	3142
840.742	3428
840.879	3085
841.016	3066
841.153	3138
841.29	3348
841.427	3321
841.564	3287
841.701	3321
841.838	3222
841.975	3199
842.112	3287
842.249	3093
842.385	3047
842.522	3302
842.659	3119
842.796	3051
842.933	3108
843.069	3051
843.206	3051
843.343	3195
843.479	3123
843.616	3161
843.752	2937
843.889	2891
844.025	3131
844.162	2922
844.298	3127
844.435	2975
844.571	2922
844.708	3119
844.844	3230
844.98	3245
845.117	3226
845.253	3077
845.389	3032
845.525	3127
845.661	3108
845.798	3081
845.934	3127
846.07	3077
846.206	3249
846.342	3355
846.478	3241
846.614	3127
846.75	3100
846.886	3051
847.022	3275
847.158	3192
847.294	3192
847.429	3317
847.565	3233
847.701	3534
847.837	3089
847.972	3028
848.108	3161
848.244	3154
848.379	3009
848.515	2963
848.65	2944
848.786	2986
848.921	3036
849.057	3150
849.192	3161
849.328	3077
849.463	3131
849.598	3070
849.734	3058
849.869	2994
850.004	2929
850.14	2975
850.275	2891
850.41	2872
850.545	2891
850.68	2979
850.815	2998
850.95	3013
851.085	3230
851.22	3104
851.355	3077
851.49	3020
851.625	3032
851.76	3047
851.895	2975
852.03	2956
852.165	3070
852.299	3161
852.434	3211
852.569	3169
852.703	3180
852.838	3272
852.973	3359
853.107	3351
853.242	3146
853.376	3135
853.511	2994
853.645	3108
853.78	3233
853.914	3161
854.048	3150
854.183	3116
854.317	3195
854.451	3332
854.585	3138
854.72	3085
854.854	3214
854.988	3112
855.122	3100
855.256	2994
855.39	3135
855.524	3256
855.658	3192
855.792	3195
855.926	3256
856.06	3264
856.194	3287
856.327	3207
856.461	3100
856.595	3100
856.729	3097
856.862	3272
856.996	3184
857.13	3192
857.263	3226
857.397	3287
857.53	3085
857.664	3207
857.797	3279
857.931	3313
858.064	3192
858.197	3211
858.331	3154
858.464	3100
858.597	2998
858.731	3119
858.864	3138
858.997	3089
859.13	3192
859.263	3146
859.396	3222
859.529	3093
859.662	3070
859.795	3077
859.928	3146
860.061	3279
860.194	3329
860.327	3157
860.46	3135
860.592	3249
860.725	3283
860.858	3249
860.99	3135
861.123	3100
861.256	3070
861.388	3154
861.521	3804
861.653	3013
861.786	3005
861.918	3062
862.05	3032
862.183	3104
862.315	3138
862.447	3207
862.58	3119
862.712	2986
862.844	2918
862.976	3066
863.108	3058
863.24	3325
863.372	2861
863.504	2998
863.636	2956
863.768	3051
863.9	2986
864.032	2906
864.164	2971
864.296	3077
864.428	3070
864.559	3104
864.691	3093
864.823	3058
864.954	3100
865.086	3039
865.217	2986
865.349	2956
865.48	2971
865.612	3039
865.743	3253
865.875	3005
866.006	2971
866.137	3001
866.269	2944
866.4	2982
866.531	2963
866.662	2899
866.793	2906
866.924	2925
867.055	2967
867.186	2906
867.317	2922
867.448	2857
867.579	2895
867.71	2834
867.841	2838
867.972	2914
868.103	2902
868.233	2922
868.364	2906
868.495	2925
868.625	3081
868.756	3203
868.886	2975
869.017	3047
869.147	3195
869.278	3154
869.408	3104
869.539	3013
869.669	3131
869.799	3051
869.929	3165
870.06	3089
870.19	3348
870.32	3294
870.45	3329
870.58	3405
870.71	3473
870.84	3447
870.97	3367
871.1	3294
871.23	3523
871.36	3519
871.489	3336
871.619	3409
871.749	3443
871.879	3488
872.008	3454
872.138	3355
872.267	3249
872.397	3192
872.526	3097
872.656	3043
872.785	3165
872.915	3275
873.044	3310
873.173	3256
873.303	3256
873.432	3222
873.561	3237
873.69	3161
873.819	3142
873.948	3161
874.077	3131
874.206	3055
874.335	3108
874.464	3241
874.593	3355
874.722	3279
874.851	3401
874.979	3325
875.108	3325
875.237	3230
875.365	3184
875.494	3131
875.623	3264
875.751	3119
875.88	3127
876.008	3203
876.136	3207
876.265	3378
876.393	3545
876.521	3458
876.65	3420
876.778	3321
876.906	3294
877.034	3218
877.162	3218
877.29	3214
877.418	3283
877.546	3283
877.674	3298
877.802	3222
877.93	3233
878.058	3146
878.185	3074
878.313	3245
878.441	3214
878.568	3039
878.696	3154
878.824	3256
878.951	3336
879.079	3466
879.206	3610
879.333	3431
879.461	3401
879.588	3367
879.715	3488
879.842	3633
879.97	3416
880.097	3203
880.224	3157
880.351	3237
880.478	3211
880.605	3199
880.732	3230
880.859	3496
880.986	3313
881.112	3344
881.239	3180
881.366	3119
881.493	3020
881.619	3039
881.746	3104
881.872	3116
881.999	3100
882.125	3157
882.252	3268
882.378	3291
882.505	3431
882.631	3313
882.757	3127
882.883	3253
883.01	3237
883.136	3176
883.262	3100
883.388	3154
883.514	3348
883.64	3401
883.766	3310
883.892	3211
884.018	3233
884.143	3416
884.269	3564
884.395	3199
884.52	3176
884.646	3237
884.772	3138
884.897	3089
885.023	3233
885.148	3370
885.274	3424
885.399	3363
885.524	3317
885.65	3249
885.775	3291
885.9	3351
886.025	3477
886.15	3363
886.275	3298
886.4	3253
886.525	3317
886.65	3272
886.775	3283
886.9	3523
887.025	3660
887.149	3439
887.274	3291
887.399	3214
887.523	3199
887.648	3180
887.773	3207
887.897	3382
888.021	3412
888.146	3317
888.27	3473
888.395	3576
888.519	3435
888.643	3485
888.767	3473
888.891	3329
889.015	3264
889.139	3329
889.263	3218
889.387	3412
889.511	3507
889.635	3435
889.759	3272
889.883	3313
890.006	3409
890.13	3481
890.254	3264
890.377	3317
890.501	3222
890.624	3184
890.748	3287
890.871	3211
890.995	3127
891.118	3097
891.241	3211
891.364	3222
891.488	3298
891.611	3173
891.734	3218
891.857	3317
891.98	3233
892.103	3332
892.226	3298
892.349	3245
892.471	3127
892.594	3253
892.717	3279
892.839	3298
892.962	3310
893.085	3367
893.207	3344
893.33	3180
893.452	3245
893.575	3386
893.697	3264
893.819	3469
893.941	3504
894.064	3466
894.186	3306
894.308	3287
894.43	3458
894.552	3561
894.674	3492
894.796	3287
894.918	3294
895.04	3306
895.161	3431
895.283	3416
895.405	3298
895.526	3348
895.648	3473
895.769	3409
895.891	3424
896.012	3466
896.134	3469
896.255	3447
896.376	3416
896.498	3401
896.619	3447
896.74	3363
896.861	3420
896.982	3671
897.103	3884
897.224	3599
897.345	3477
897.466	3462
897.587	3538
897.708	3606
897.828	3591
897.949	3450
898.07	3325
898.19	3416
898.311	3576
898.431	3462
898.552	3500
898.672	3618
898.792	3572
898.913	3553
899.033	3397
899.153	3317
899.273	3218
899.393	3260
899.513	3329
899.633	3355
899.753	3329
899.873	3302
899.993	3409
900.113	3351
900.232	3458
900.352	3378
900.472	3291
900.591	3203
900.711	3332
900.83	3283
900.95	3405
901.069	3500
901.189	3355
901.308	3188
901.427	3173
901.546	3214
901.665	3279
901.784	3378
901.904	3195
902.023	3161
902.141	3047
902.26	3043
902.379	3131
902.498	3116
902.617	3039
902.735	3218
902.854	3306
902.973	3199
903.091	3074
903.21	3089
903.328	3157
903.446	3097
903.565	3104
903.683	3207
903.801	3165
903.919	3249
904.038	3302
904.156	3173
904.274	3310
904.392	3249
904.51	3287
904.627	3351
904.745	3466
904.863	3488
904.981	3298
905.098	3207
905.216	3241
905.334	3287
905.451	3287
905.569	3317
905.686	3450
905.803	3439
905.921	3291
906.038	3454
906.155	3351
906.272	3268
906.389	3336
906.506	3237
906.623	3283
906.74	3294
906.857	3203
906.974	3279
907.091	3458
907.208	3591
907.324	3462
907.441	3386
907.557	3241
907.674	3230
907.79	3233
907.907	3291
908.023	3424
908.139	3405
908.256	3367
908.372	3348
908.488	3351
908.604	3272
908.72	3241
908.836	3340
908.952	3291
909.068	3378
909.184	3511
909.3	3424
909.415	3553
909.531	3492
909.647	3317
909.762	3291
909.878	3260
909.993	3374
910.108	3336
910.224	3363
910.339	3416
910.454	3378
910.57	3344
910.685	3272
910.8	3591
910.915	3561
911.03	3443
911.145	3294
911.259	3317
911.374	3351
911.489	3275
911.604	3233
911.718	3123
911.833	3157
911.947	3051
912.062	2975
912.176	3173
912.291	3222
912.405	3241
912.519	3492
912.633	3481
912.748	3336
912.862	3294
912.976	3176
913.09	3089
913.204	3169
913.318	3233
913.431	3332
913.545	3363
913.659	3416
913.772	3348
913.886	3233
914	3241
914.113	3409
914.226	3420
914.34	3382
914.453	3237
914.566	3431
914.68	3306
914.793	3340
914.906	3169
915.019	3135
915.132	3074
915.245	3188
915.358	3222
915.47	3264
915.583	3302
915.696	3321
915.809	3454
915.921	3431
916.034	3302
916.146	3264
916.259	3275
916.371	3389
916.483	3382
916.595	3260
916.708	3374
916.82	3310
916.932	3336
917.044	3355
917.156	3351
917.268	3275
917.38	3302
917.491	3306
917.603	3363
917.715	3447
917.826	3477
917.938	3428
918.049	3275
918.161	3454
918.272	3610
918.384	3545
918.495	3492
918.606	3332
918.717	3275
918.828	3378
918.939	3431
919.05	3321
919.161	3374
919.272	3230
919.383	3260
919.494	3485
919.604	3705
919.715	3534
919.826	3439
919.936	3496
920.047	3595
920.157	3561
920.267	3789
920.378	3625
920.488	3591
920.598	3785
920.708	3922
920.818	3816
920.928	3812
921.038	4040
921.148	4032
921.258	3736
921.368	3641
921.477	3618
921.587	3561
921.697	3488
921.806	3660
921.916	3568
922.025	3359
922.134	3405
922.244	3279
922.353	3496
922.462	3279
922.571	3207
922.68	3093
922.789	3066
922.898	3116
923.007	3112
923.116	3222
923.224	3199
923.333	3211
923.442	3112
923.55	3119
923.659	3123
923.767	3253
923.876	3142
923.984	3256
924.092	3104
924.201	3211
924.309	3211
924.417	3253
924.525	3165
924.633	3264
924.741	4211
924.849	3058
924.956	3294
925.064	3142
925.172	3066
925.279	3085
925.387	3230
925.494	3226
925.602	3370
925.709	3367
925.816	3150
925.924	3291
926.031	3412
926.138	3370
926.245	3359
926.352	3325
926.459	3420
926.566	3485
926.673	3310
926.779	3302
926.886	3275
926.993	3169
927.099	3146
927.206	3100
927.312	3100
927.419	3245
927.525	3249
927.631	3272
927.737	3165
927.843	3116
927.95	3020
928.056	3176
928.162	3214
928.267	3256
928.373	3892
928.479	3325
928.585	3066
928.69	3222
928.796	3249
928.901	3161
929.007	3055
929.112	3195
929.218	3173
929.323	3188
929.428	3195
929.533	3329
929.638	3123
929.743	3176
929.848	3256
929.953	3226
930.058	3173
930.163	3028
930.267	3085
930.372	3226
930.477	3066
930.581	3325
930.685	3161
930.79	3036
930.894	3123
930.998	3089
931.103	3287
931.207	2960
931.311	2967
931.415	2910
931.519	2800
931.623	2819
