Data from test_V78500241_1348.txt Node
Date: Fri Mar 25 16:24:32 CST 2022
User: usil
Spectrometer: V785-0024
Trigger mode: 0
Integration Time (sec): 4.000000E-1
Scans to average: 1
Nonlinearity correction enabled: false
Boxcar width: 0
Storing dark spectrum: false
XAxis mode: Wavelengths
Number of Pixels in Spectrum: 1024
>>>>>Begin Spectral Data<<<<<
801.071	2887
801.214	2941
801.356	2895
801.499	2952
801.641	2895
801.783	2937
801.926	3055
802.068	2944
802.211	2986
802.353	3005
802.496	2941
802.638	2975
802.78	3024
802.923	3119
803.065	3020
803.208	2861
803.35	2933
803.492	2895
803.635	2941
803.777	2773
803.919	2849
804.061	3195
804.204	2933
804.346	2914
804.488	2838
804.63	2986
804.773	2838
804.915	2902
805.057	3070
805.199	2891
805.341	2975
805.483	3020
805.626	3017
805.768	2948
805.91	3062
806.052	3119
806.194	2990
806.336	3230
806.478	3001
806.62	2922
806.762	2952
806.904	3058
807.046	3169
807.188	2971
807.33	2876
807.472	2960
807.614	2887
807.756	2986
807.898	2925
808.04	2891
808.182	2933
808.324	2933
808.465	2857
808.607	2883
808.749	2743
808.891	2842
809.033	2956
809.174	2971
809.316	2861
809.458	2899
809.6	2762
809.741	2750
809.883	2766
810.025	2807
810.166	2838
810.308	2834
810.45	2830
810.591	2750
810.733	2769
810.875	2792
811.016	2750
811.158	2735
811.299	2781
811.441	2910
811.582	2891
811.724	2773
811.865	2811
812.007	2914
812.148	2842
812.29	2861
812.431	2872
812.573	2944
812.714	2963
812.855	3058
812.997	3009
813.138	3100
813.279	2982
813.421	2944
813.562	2971
813.703	2864
813.845	2914
813.986	2800
814.127	2735
814.268	2815
814.41	2792
814.551	2769
814.692	2891
814.833	2815
814.974	2861
815.115	2918
815.256	2830
815.397	2785
815.539	2876
815.68	2769
815.821	2796
815.962	2929
816.103	2895
816.244	2887
816.385	2830
816.526	2910
816.666	2925
816.807	2724
816.948	2883
817.089	2929
817.23	2868
817.371	2773
817.512	2758
817.653	2830
817.793	2788
817.934	2906
818.075	2982
818.216	2979
818.356	3005
818.497	2872
818.638	2792
818.778	2834
818.919	2746
819.06	2758
819.2	2842
819.341	2819
819.481	2804
819.622	2937
819.762	3062
819.903	3036
820.043	2925
820.184	2864
820.324	2868
820.465	3001
820.605	2963
820.746	3039
820.886	2929
821.026	3104
821.167	3142
821.307	3237
821.447	3294
821.588	3245
821.728	3218
821.868	3214
822.008	3104
822.149	3157
822.289	3241
822.429	3074
822.569	3070
822.709	3154
822.849	2990
822.99	3043
823.13	3135
823.27	3169
823.41	3097
823.55	3192
823.69	3146
823.83	3188
823.97	3093
824.11	3001
824.25	2960
824.389	3039
824.529	3108
824.669	3043
824.809	3203
824.949	3222
825.089	3253
825.228	3161
825.368	3036
825.508	2948
825.648	2956
825.787	2998
825.927	2990
826.067	2952
826.206	2986
826.346	2994
826.485	3085
826.625	3104
826.765	3260
826.904	3218
827.044	2986
827.183	2937
827.323	2842
827.462	2982
827.601	2891
827.741	2914
827.88	2933
828.02	2891
828.159	2952
828.298	3009
828.437	3104
828.577	3032
828.716	3264
828.855	3066
828.994	2899
829.134	2872
829.273	2872
829.412	2861
829.551	2845
829.69	2872
829.829	2956
829.968	3127
830.107	2979
830.246	3039
830.385	2933
830.524	2887
830.663	2830
830.802	2739
830.941	2621
831.08	2632
831.219	2743
831.357	2727
831.496	2975
831.635	2724
831.774	2625
831.913	2648
832.051	2526
832.19	2556
832.329	2724
832.467	2484
832.606	2476
832.744	2587
832.883	2575
833.022	2598
833.16	2648
833.299	2655
833.437	2693
833.576	2701
833.714	2735
833.852	2735
833.991	2743
834.129	2819
834.267	2815
834.406	2777
834.544	2823
834.682	2838
834.821	2868
834.959	3043
835.097	2895
835.235	3039
835.373	2937
835.511	3005
835.65	2982
835.788	2918
835.926	2826
836.064	2788
836.202	2857
836.34	3032
836.478	3142
836.615	3028
836.753	3135
836.891	3180
837.029	3173
837.167	3089
837.305	3066
837.443	3081
837.58	2941
837.718	3127
837.856	3032
837.993	3058
838.131	3127
838.269	3104
838.406	3116
838.544	3085
838.681	2918
838.819	2872
838.956	2823
839.094	2807
839.231	2929
839.369	3013
839.506	3409
839.643	3233
839.781	2979
839.918	2979
840.055	3043
840.193	3001
840.33	3081
840.467	3097
840.604	3157
840.742	3393
840.879	3051
841.016	3039
841.153	3112
841.29	3317
841.427	3275
841.564	3249
841.701	3306
841.838	3268
841.975	3165
842.112	3207
842.249	3047
842.385	3051
842.522	3245
842.659	3108
842.796	3051
842.933	3058
843.069	2998
843.206	3070
843.343	3154
843.479	3058
843.616	3108
843.752	2883
843.889	2849
844.025	3066
844.162	2857
844.298	3077
844.435	2933
844.571	2906
844.708	3100
844.844	3138
844.98	3199
845.117	3165
845.253	3047
845.389	2990
845.525	3100
845.661	3097
845.798	2982
845.934	3085
846.07	3047
846.206	3226
846.342	3302
846.478	3249
846.614	3070
846.75	3013
846.886	3001
847.022	3275
847.158	3077
847.294	3173
847.429	3233
847.565	3188
847.701	3435
847.837	3055
847.972	2986
848.108	3135
848.244	3104
848.379	2963
848.515	2937
848.65	2941
848.786	2944
848.921	3024
849.057	3085
849.192	3100
849.328	3093
849.463	3089
849.598	3051
849.734	3013
849.869	2963
850.004	2899
850.14	2929
850.275	2891
850.41	2811
850.545	2891
850.68	2902
850.815	2910
850.95	2944
851.085	3176
851.22	3055
851.355	3001
851.49	2990
851.625	2967
851.76	2994
851.895	2914
852.03	2880
852.165	3013
852.299	3085
852.434	3180
852.569	3104
852.703	3180
852.838	3241
852.973	3306
853.107	3310
853.242	3142
853.376	3047
853.511	2937
853.645	3032
853.78	3218
853.914	3116
854.048	3089
854.183	3116
854.317	3142
854.451	3260
854.585	3112
854.72	3062
854.854	3211
854.988	3036
855.122	3062
855.256	2960
855.39	3085
855.524	3207
855.658	3150
855.792	3097
855.926	3211
856.06	3199
856.194	3302
856.327	3100
856.461	3036
856.595	3081
856.729	3081
856.862	3192
856.996	3138
857.13	3173
857.263	3180
857.397	3275
857.53	3089
857.664	3138
857.797	3230
857.931	3233
858.064	3161
858.197	3214
858.331	3119
858.464	3066
858.597	2982
858.731	3116
858.864	3085
858.997	3070
859.13	3138
859.263	3154
859.396	3176
859.529	3123
859.662	3085
859.795	3036
859.928	3123
860.061	3287
860.194	3245
860.327	3165
860.46	3100
860.592	3249
860.725	3237
860.858	3249
860.99	3104
861.123	3093
861.256	3055
861.388	3180
861.521	3751
861.653	3024
861.786	3009
861.918	3043
862.05	3077
862.183	3085
862.315	3169
862.447	3226
862.58	3074
862.712	3005
862.844	2872
862.976	3036
863.108	3028
863.24	3310
863.372	2899
863.504	2986
863.636	3001
863.768	3024
863.9	3051
864.032	2910
864.164	3036
864.296	3051
864.428	3150
864.559	3150
864.691	3097
864.823	3112
864.954	3058
865.086	3077
865.217	3043
865.349	2975
865.48	3028
865.612	3074
865.743	3154
865.875	3047
866.006	3009
866.137	3043
866.269	3017
866.4	2982
866.531	2975
866.662	2922
866.793	2956
866.924	2914
867.055	3017
867.186	2960
867.317	2922
867.448	2868
867.579	2853
867.71	2925
867.841	2842
867.972	2952
868.103	2941
868.233	2941
868.364	2933
868.495	2944
868.625	3081
868.756	3211
868.886	3009
869.017	3028
869.147	3180
869.278	3237
869.408	3119
869.539	3070
869.669	3131
869.799	3062
869.929	3150
870.06	3138
870.19	3355
870.32	3268
870.45	3325
870.58	3378
870.71	3504
870.84	3481
870.97	3336
871.1	3272
871.23	3538
871.36	3473
871.489	3351
871.619	3401
871.749	3450
871.879	3485
872.008	3542
872.138	3401
872.267	3329
872.397	3203
872.526	3146
872.656	3036
872.785	3150
872.915	3275
873.044	3313
873.173	3226
873.303	3287
873.432	3256
873.561	3283
873.69	3165
873.819	3154
873.948	3226
874.077	3112
874.206	3066
874.335	3093
874.464	3249
874.593	3367
874.722	3237
874.851	3401
874.979	3374
875.108	3329
875.237	3211
875.365	3180
875.494	3180
875.623	3313
875.751	3116
875.88	3142
876.008	3237
876.136	3272
876.265	3351
876.393	3515
876.521	3435
876.65	3424
876.778	3351
876.906	3287
877.034	3230
877.162	3268
877.29	3169
877.418	3260
877.546	3268
877.674	3268
877.802	3260
877.93	3260
878.058	3180
878.185	3123
878.313	3241
878.441	3279
878.568	3100
878.696	3142
878.824	3268
878.951	3329
879.079	3481
879.206	3648
879.333	3466
879.461	3363
879.588	3393
879.715	3492
879.842	3580
879.97	3389
880.097	3226
880.224	3127
880.351	3184
880.478	3253
880.605	3207
880.732	3256
880.859	3500
880.986	3294
881.112	3332
881.239	3226
881.366	3116
881.493	3058
881.619	3077
881.746	3116
881.872	3127
881.999	3131
882.125	3142
882.252	3291
882.378	3275
882.505	3469
882.631	3317
882.757	3176
882.883	3245
883.01	3260
883.136	3165
883.262	3123
883.388	3157
883.514	3370
883.64	3420
883.766	3336
883.892	3218
884.018	3272
884.143	3458
884.269	3526
884.395	3260
884.52	3176
884.646	3214
884.772	3119
884.897	3112
885.023	3199
885.148	3340
885.274	3431
885.399	3412
885.524	3275
885.65	3241
885.775	3336
885.9	3279
886.025	3450
886.15	3374
886.275	3329
886.4	3272
886.525	3332
886.65	3332
886.775	3306
886.9	3542
887.025	3656
887.149	3420
887.274	3302
887.399	3211
887.523	3237
887.648	3203
887.773	3218
887.897	3397
888.021	3420
888.146	3344
888.27	3435
888.395	3542
888.519	3477
888.643	3488
888.767	3492
888.891	3340
889.015	3287
889.139	3340
889.263	3283
889.387	3431
889.511	3530
889.635	3435
889.759	3344
889.883	3351
890.006	3409
890.13	3515
890.254	3272
890.377	3348
890.501	3195
890.624	3211
890.748	3351
890.871	3184
890.995	3138
891.118	3093
891.241	3253
891.364	3233
891.488	3370
891.611	3237
891.734	3249
891.857	3291
891.98	3241
892.103	3321
892.226	3302
892.349	3264
892.471	3146
892.594	3230
892.717	3344
892.839	3283
892.962	3253
893.085	3367
893.207	3329
893.33	3169
893.452	3253
893.575	3382
893.697	3268
893.819	3519
893.941	3542
894.064	3450
894.186	3302
894.308	3287
894.43	3443
894.552	3568
894.674	3485
894.796	3336
894.918	3294
895.04	3336
895.161	3435
895.283	3443
895.405	3344
895.526	3363
895.648	3485
895.769	3435
895.891	3420
896.012	3504
896.134	3515
896.255	3447
896.376	3412
896.498	3336
896.619	3496
896.74	3386
896.861	3412
896.982	3740
897.103	3854
897.224	3622
897.345	3561
897.466	3466
897.587	3530
897.708	3633
897.828	3542
897.949	3450
898.07	3374
898.19	3424
898.311	3618
898.431	3473
898.552	3553
898.672	3629
898.792	3595
898.913	3538
899.033	3420
899.153	3279
899.273	3264
899.393	3306
899.513	3344
899.633	3321
899.753	3359
899.873	3344
899.993	3405
900.113	3378
900.232	3428
900.352	3348
900.472	3332
900.591	3176
900.711	3302
900.83	3253
900.95	3428
901.069	3526
901.189	3370
901.308	3211
901.427	3142
901.546	3260
901.665	3340
901.784	3363
901.904	3226
902.023	3188
902.141	3020
902.26	2998
902.379	3188
902.498	3097
902.617	3051
902.735	3226
902.854	3237
902.973	3203
903.091	3077
903.21	3058
903.328	3157
903.446	3138
903.565	3089
903.683	3207
903.801	3138
903.919	3237
904.038	3310
904.156	3154
904.274	3306
904.392	3302
904.51	3294
904.627	3367
904.745	3435
904.863	3511
904.981	3233
905.098	3169
905.216	3283
905.334	3294
905.451	3310
905.569	3332
905.686	3428
905.803	3469
905.921	3294
906.038	3466
906.155	3359
906.272	3275
906.389	3332
906.506	3260
906.623	3279
906.74	3272
906.857	3222
906.974	3302
907.091	3507
907.208	3572
907.324	3511
907.441	3409
907.557	3230
907.674	3241
907.79	3233
907.907	3306
908.023	3401
908.139	3412
908.256	3317
908.372	3424
908.488	3382
908.604	3268
908.72	3241
908.836	3287
908.952	3294
909.068	3367
909.184	3519
909.3	3397
909.415	3507
909.531	3492
909.647	3325
909.762	3302
909.878	3294
909.993	3355
910.108	3355
910.224	3370
910.339	3409
910.454	3332
910.57	3291
910.685	3241
910.8	3633
910.915	3549
911.03	3454
911.145	3283
911.259	3287
911.374	3359
911.489	3264
911.604	3230
911.718	3165
911.833	3154
911.947	3043
912.062	2998
912.176	3188
912.291	3226
912.405	3218
912.519	3454
912.633	3481
912.748	3340
912.862	3317
912.976	3188
913.09	3108
913.204	3161
913.318	3211
913.431	3363
913.545	3374
913.659	3435
913.772	3329
913.886	3230
914	3222
914.113	3329
914.226	3420
914.34	3389
914.453	3214
914.566	3397
914.68	3306
914.793	3332
914.906	3146
915.019	3142
915.132	3123
915.245	3184
915.358	3207
915.47	3256
915.583	3237
915.696	3317
915.809	3397
915.921	3443
916.034	3287
916.146	3268
916.259	3268
916.371	3409
916.483	3370
916.595	3294
916.708	3367
916.82	3348
916.932	3370
917.044	3386
917.156	3389
917.268	3249
917.38	3291
917.491	3325
917.603	3317
917.715	3477
917.826	3488
917.938	3344
918.049	3253
918.161	3439
918.272	3641
918.384	3599
918.495	3477
918.606	3325
918.717	3306
918.828	3409
918.939	3416
919.05	3336
919.161	3386
919.272	3222
919.383	3298
919.494	3515
919.604	3686
919.715	3477
919.826	3420
919.936	3485
920.047	3614
920.157	3572
920.267	3778
920.378	3606
920.488	3587
920.598	3785
920.708	3983
920.818	3854
920.928	3842
921.038	4040
921.148	4013
921.258	3694
921.368	3648
921.477	3584
921.587	3545
921.697	3473
921.806	3633
921.916	3549
922.025	3325
922.134	3348
922.244	3325
922.353	3405
922.462	3291
922.571	3230
922.68	3104
922.789	3123
922.898	3161
923.007	3104
923.116	3188
923.224	3173
923.333	3241
923.442	3123
923.55	3093
923.659	3119
923.767	3230
923.876	3085
923.984	3233
924.092	3154
924.201	3218
924.309	3283
924.417	3226
924.525	3161
924.633	3260
924.741	4044
924.849	3051
924.956	3287
925.064	3104
925.172	3047
925.279	3081
925.387	3199
925.494	3192
925.602	3340
925.709	3348
925.816	3214
925.924	3298
926.031	3378
926.138	3374
926.245	3378
926.352	3253
926.459	3424
926.566	3447
926.673	3363
926.779	3272
926.886	3256
926.993	3097
927.099	3135
927.206	3146
927.312	3116
927.419	3253
927.525	3233
927.631	3279
927.737	3195
927.843	3123
927.95	3070
928.056	3169
928.162	3188
928.267	3264
928.373	3896
928.479	3329
928.585	3116
928.69	3272
928.796	3313
928.901	3173
929.007	3062
929.112	3249
929.218	3214
929.323	3207
929.428	3157
929.533	3340
929.638	3150
929.743	3184
929.848	3336
929.953	3294
930.058	3188
930.163	3017
930.267	3089
930.372	3211
930.477	3070
930.581	3397
930.685	3207
930.79	3074
930.894	3138
930.998	3127
931.103	3321
931.207	3009
931.311	3009
931.415	2963
931.519	2823
931.623	2845
