Data from test_V78500241_1982.txt Node
Date: Fri Mar 25 16:28:56 CST 2022
User: usil
Spectrometer: V785-0024
Trigger mode: 0
Integration Time (sec): 4.000000E-1
Scans to average: 1
Nonlinearity correction enabled: false
Boxcar width: 0
Storing dark spectrum: false
XAxis mode: Wavelengths
Number of Pixels in Spectrum: 1024
>>>>>Begin Spectral Data<<<<<
801.071	2963
801.214	2963
801.356	2910
801.499	2963
801.641	2910
801.783	2998
801.926	3085
802.068	3005
802.211	3058
802.353	3085
802.496	2990
802.638	3081
802.78	3043
802.923	3081
803.065	2994
803.208	2910
803.35	2979
803.492	2960
803.635	2967
803.777	2769
803.919	2906
804.061	3222
804.204	2975
804.346	2971
804.488	2883
804.63	3028
804.773	2876
804.915	2963
805.057	3085
805.199	2925
805.341	2982
805.483	3036
805.626	3036
805.768	3028
805.91	3093
806.052	3161
806.194	3036
806.336	3241
806.478	3047
806.62	2948
806.762	2998
806.904	3077
807.046	3192
807.188	2982
807.33	2952
807.472	3024
807.614	2910
807.756	3036
807.898	2941
808.04	2952
808.182	2941
808.324	2967
808.465	2883
808.607	2933
808.749	2788
808.891	2861
809.033	3036
809.174	3013
809.316	2937
809.458	2941
809.6	2777
809.741	2811
809.883	2766
810.025	2895
810.166	2891
810.308	2826
810.45	2883
810.591	2823
810.733	2769
810.875	2868
811.016	2819
811.158	2815
811.299	2842
811.441	2937
811.582	2883
811.724	2849
811.865	2864
812.007	2925
812.148	2902
812.29	2868
812.431	2944
812.573	2971
812.714	2986
812.855	3081
812.997	3081
813.138	3135
813.279	3039
813.421	3043
813.562	2979
813.703	2922
813.845	2944
813.986	2777
814.127	2792
814.268	2819
814.41	2857
814.551	2807
814.692	2887
814.833	2834
814.974	2918
815.115	2967
815.256	2857
815.397	2830
815.539	2876
815.68	2826
815.821	2811
815.962	2979
816.103	2952
816.244	2906
816.385	2914
816.526	2979
816.666	2941
816.807	2769
816.948	2906
817.089	2941
817.23	2853
817.371	2800
817.512	2815
817.653	2845
817.793	2838
817.934	2880
818.075	2998
818.216	3051
818.356	3058
818.497	2868
818.638	2804
818.778	2849
818.919	2823
819.06	2781
819.2	2914
819.341	2857
819.481	2811
819.622	2967
819.762	3131
819.903	3055
820.043	2963
820.184	2902
820.324	2918
820.465	3062
820.605	3020
820.746	3036
820.886	2963
821.026	3119
821.167	3161
821.307	3287
821.447	3302
821.588	3226
821.728	3245
821.868	3222
822.008	3112
822.149	3192
822.289	3230
822.429	3089
822.569	3112
822.709	3146
822.849	3028
822.99	3089
823.13	3176
823.27	3207
823.41	3146
823.55	3169
823.69	3188
823.83	3203
823.97	3127
824.11	2994
824.25	3028
824.389	3116
824.529	3127
824.669	3104
824.809	3233
824.949	3298
825.089	3245
825.228	3142
825.368	3036
825.508	2960
825.648	2994
825.787	3017
825.927	3013
826.067	2998
826.206	3024
826.346	3043
826.485	3074
826.625	3116
826.765	3245
826.904	3195
827.044	3017
827.183	2944
827.323	2876
827.462	2975
827.601	2963
827.741	2960
827.88	2948
828.02	2876
828.159	2941
828.298	3028
828.437	3119
828.577	3043
828.716	3260
828.855	3104
828.994	2910
829.134	2899
829.273	2906
829.412	2872
829.551	2883
829.69	2895
829.829	3013
829.968	3131
830.107	3020
830.246	3051
830.385	2952
830.524	2906
830.663	2819
830.802	2766
830.941	2655
831.08	2655
831.219	2762
831.357	2766
831.496	3017
831.635	2746
831.774	2682
831.913	2693
832.051	2552
832.19	2594
832.329	2720
832.467	2556
832.606	2495
832.744	2613
832.883	2610
833.022	2598
833.16	2651
833.299	2746
833.437	2743
833.576	2674
833.714	2724
833.852	2773
833.991	2773
834.129	2838
834.267	2838
834.406	2815
834.544	2906
834.682	2891
834.821	2922
834.959	3062
835.097	2883
835.235	3066
835.373	3032
835.511	3051
835.65	2967
835.788	2963
835.926	2838
836.064	2811
836.202	2868
836.34	3097
836.478	3154
836.615	3119
836.753	3161
836.891	3184
837.029	3131
837.167	3104
837.305	3138
837.443	3077
837.58	2990
837.718	3131
837.856	3062
837.993	3024
838.131	3108
838.269	3058
838.406	3131
838.544	3097
838.681	2933
838.819	2937
838.956	2800
839.094	2845
839.231	2937
839.369	3051
839.506	3389
839.643	3207
839.781	3009
839.918	2975
840.055	3070
840.193	3074
840.33	3085
840.467	3138
840.604	3138
840.742	3401
840.879	3097
841.016	3081
841.153	3116
841.29	3355
841.427	3340
841.564	3268
841.701	3310
841.838	3222
841.975	3203
842.112	3184
842.249	3089
842.385	3043
842.522	3291
842.659	3119
842.796	3051
842.933	3055
843.069	3051
843.206	3028
843.343	3199
843.479	3112
843.616	3150
843.752	2933
843.889	2876
844.025	3127
844.162	2914
844.298	3093
844.435	2956
844.571	2952
844.708	3051
844.844	3211
844.98	3264
845.117	3211
845.253	3032
845.389	2982
845.525	3100
845.661	3123
845.798	3039
845.934	3142
846.07	3070
846.206	3241
846.342	3363
846.478	3218
846.614	3089
846.75	3066
846.886	3047
847.022	3241
847.158	3131
847.294	3230
847.429	3264
847.565	3211
847.701	3469
847.837	2998
847.972	2967
848.108	3142
848.244	3138
848.379	2979
848.515	2956
848.65	2929
848.786	2963
848.921	3020
849.057	3123
849.192	3142
849.328	3077
849.463	3119
849.598	3062
849.734	3039
849.869	3005
850.004	2979
850.14	2979
850.275	2918
850.41	2819
850.545	2906
850.68	2941
850.815	2952
850.95	2971
851.085	3195
851.22	3112
851.355	3039
851.49	2960
851.625	3001
851.76	3047
851.895	2937
852.03	2918
852.165	3039
852.299	3108
852.434	3207
852.569	3135
852.703	3165
852.838	3249
852.973	3370
853.107	3313
853.242	3180
853.376	3097
853.511	3009
853.645	3036
853.78	3233
853.914	3116
854.048	3108
854.183	3108
854.317	3138
854.451	3283
854.585	3142
854.72	3116
854.854	3188
854.988	3058
855.122	3097
855.256	2990
855.39	3131
855.524	3256
855.658	3188
855.792	3173
855.926	3188
856.06	3195
856.194	3275
856.327	3173
856.461	3070
856.595	3085
856.729	3089
856.862	3195
856.996	3173
857.13	3165
857.263	3214
857.397	3264
857.53	3127
857.664	3188
857.797	3256
857.931	3230
858.064	3211
858.197	3211
858.331	3127
858.464	3077
858.597	3013
858.731	3104
858.864	3119
858.997	3081
859.13	3195
859.263	3180
859.396	3173
859.529	3100
859.662	3032
859.795	3036
859.928	3154
860.061	3256
860.194	3317
860.327	3138
860.46	3085
860.592	3226
860.725	3211
860.858	3272
860.99	3100
861.123	3062
861.256	3051
861.388	3127
861.521	3838
861.653	2994
861.786	3017
861.918	2982
862.05	3055
862.183	3093
862.315	3138
862.447	3241
862.58	3085
862.712	3001
862.844	2880
862.976	3032
863.108	3005
863.24	3412
863.372	2918
863.504	2944
863.636	2960
863.768	3017
863.9	3013
864.032	2906
864.164	2937
864.296	3024
864.428	3077
864.559	3066
864.691	3070
864.823	3055
864.954	3013
865.086	3036
865.217	3013
865.349	2944
865.48	3009
865.612	3013
865.743	3146
865.875	2956
866.006	2956
866.137	2990
866.269	2925
866.4	2979
866.531	2944
866.662	2883
866.793	2887
866.924	2899
867.055	2975
867.186	2906
867.317	2906
867.448	2819
867.579	2861
867.71	2872
867.841	2834
867.972	2891
868.103	2876
868.233	2872
868.364	2876
868.495	2937
868.625	3100
868.756	3142
868.886	2933
869.017	3013
869.147	3146
869.278	3127
869.408	3055
869.539	3036
869.669	3108
869.799	3074
869.929	3131
870.06	3081
870.19	3367
870.32	3268
870.45	3287
870.58	3389
870.71	3443
870.84	3450
870.97	3291
871.1	3226
871.23	3485
871.36	3450
871.489	3378
871.619	3378
871.749	3447
871.879	3420
872.008	3462
872.138	3348
872.267	3249
872.397	3135
872.526	3131
872.656	3005
872.785	3074
872.915	3207
873.044	3332
873.173	3195
873.303	3241
873.432	3214
873.561	3260
873.69	3161
873.819	3146
873.948	3211
874.077	3116
874.206	3028
874.335	3100
874.464	3199
874.593	3348
874.722	3241
874.851	3389
874.979	3351
875.108	3340
875.237	3211
875.365	3176
875.494	3135
875.623	3233
875.751	3074
875.88	3089
876.008	3211
876.136	3256
876.265	3336
876.393	3488
876.521	3424
876.65	3321
876.778	3302
876.906	3298
877.034	3249
877.162	3241
877.29	3169
877.418	3287
877.546	3233
877.674	3241
877.802	3230
877.93	3199
878.058	3119
878.185	3089
878.313	3237
878.441	3199
878.568	3097
878.696	3138
878.824	3279
878.951	3253
879.079	3435
879.206	3614
879.333	3462
879.461	3336
879.588	3344
879.715	3488
879.842	3591
879.97	3397
880.097	3169
880.224	3127
880.351	3192
880.478	3214
880.605	3211
880.732	3157
880.859	3447
880.986	3355
881.112	3325
881.239	3188
881.366	3104
881.493	3047
881.619	2994
881.746	3070
881.872	3074
881.999	3142
882.125	3165
882.252	3233
882.378	3294
882.505	3412
882.631	3272
882.757	3154
882.883	3195
883.01	3214
883.136	3112
883.262	3123
883.388	3127
883.514	3310
883.64	3412
883.766	3233
883.892	3184
884.018	3214
884.143	3378
884.269	3530
884.395	3241
884.52	3176
884.646	3176
884.772	3146
884.897	3104
885.023	3237
885.148	3306
885.274	3412
885.399	3351
885.524	3275
885.65	3287
885.775	3340
885.9	3226
886.025	3374
886.15	3363
886.275	3283
886.4	3222
886.525	3298
886.65	3264
886.775	3275
886.9	3469
887.025	3618
887.149	3409
887.274	3291
887.399	3150
887.523	3211
887.648	3184
887.773	3226
887.897	3374
888.021	3393
888.146	3264
888.27	3466
888.395	3488
888.519	3412
888.643	3431
888.767	3431
888.891	3313
889.015	3249
889.139	3302
889.263	3241
889.387	3431
889.511	3504
889.635	3458
889.759	3260
889.883	3336
890.006	3348
890.13	3439
890.254	3268
890.377	3325
890.501	3214
890.624	3214
890.748	3287
890.871	3180
890.995	3123
891.118	3024
891.241	3176
891.364	3230
891.488	3313
891.611	3203
891.734	3214
891.857	3275
891.98	3218
892.103	3340
892.226	3287
892.349	3176
892.471	3112
892.594	3249
892.717	3313
892.839	3275
892.962	3287
893.085	3363
893.207	3287
893.33	3150
893.452	3195
893.575	3370
893.697	3222
893.819	3443
893.941	3504
894.064	3420
894.186	3256
894.308	3279
894.43	3462
894.552	3534
894.674	3462
894.796	3233
894.918	3321
895.04	3272
895.161	3409
895.283	3386
895.405	3275
895.526	3359
895.648	3450
895.769	3412
895.891	3439
896.012	3488
896.134	3450
896.255	3431
896.376	3424
896.498	3367
896.619	3431
896.74	3336
896.861	3374
896.982	3663
897.103	3850
897.224	3587
897.345	3523
897.466	3435
897.587	3485
897.708	3637
897.828	3561
897.949	3447
898.07	3359
898.19	3363
898.311	3599
898.431	3435
898.552	3504
898.672	3564
898.792	3576
898.913	3523
899.033	3428
899.153	3264
899.273	3214
899.393	3294
899.513	3291
899.633	3321
899.753	3321
899.873	3317
899.993	3348
900.113	3374
900.232	3367
900.352	3321
900.472	3306
900.591	3195
900.711	3268
900.83	3241
900.95	3428
901.069	3515
901.189	3272
901.308	3203
901.427	3142
901.546	3203
901.665	3279
901.784	3321
901.904	3192
902.023	3173
902.141	2971
902.26	2979
902.379	3116
902.498	3093
902.617	3055
902.735	3218
902.854	3245
902.973	3169
903.091	3077
903.21	3055
903.328	3116
903.446	3089
903.565	3138
903.683	3203
903.801	3097
903.919	3230
904.038	3283
904.156	3169
904.274	3249
904.392	3275
904.51	3264
904.627	3310
904.745	3443
904.863	3492
904.981	3275
905.098	3157
905.216	3241
905.334	3329
905.451	3283
905.569	3283
905.686	3435
905.803	3416
905.921	3291
906.038	3386
906.155	3355
906.272	3256
906.389	3313
906.506	3218
906.623	3249
906.74	3298
906.857	3138
906.974	3256
907.091	3477
907.208	3561
907.324	3469
907.441	3416
907.557	3237
907.674	3245
907.79	3176
907.907	3287
908.023	3386
908.139	3344
908.256	3325
908.372	3367
908.488	3374
908.604	3256
908.72	3226
908.836	3287
908.952	3279
909.068	3317
909.184	3507
909.3	3389
909.415	3500
909.531	3450
909.647	3283
909.762	3275
909.878	3260
909.993	3344
910.108	3313
910.224	3344
910.339	3412
910.454	3325
910.57	3268
910.685	3218
910.8	3599
910.915	3534
911.03	3424
911.145	3287
911.259	3279
911.374	3294
911.489	3233
911.604	3199
911.718	3127
911.833	3203
911.947	3089
912.062	3005
912.176	3161
912.291	3184
912.405	3184
912.519	3420
912.633	3454
912.748	3302
912.862	3275
912.976	3165
913.09	3051
913.204	3150
913.318	3226
913.431	3340
913.545	3348
913.659	3405
913.772	3306
913.886	3203
914	3188
914.113	3389
914.226	3401
914.34	3359
914.453	3218
914.566	3439
914.68	3275
914.793	3313
914.906	3161
915.019	3123
915.132	3116
915.245	3173
915.358	3180
915.47	3237
915.583	3279
915.696	3264
915.809	3424
915.921	3431
916.034	3283
916.146	3241
916.259	3245
916.371	3348
916.483	3344
916.595	3302
916.708	3332
916.82	3348
916.932	3317
917.044	3336
917.156	3329
917.268	3249
917.38	3275
917.491	3272
917.603	3355
917.715	3409
917.826	3469
917.938	3363
918.049	3272
918.161	3409
918.272	3557
918.384	3557
918.495	3526
918.606	3351
918.717	3260
918.828	3378
918.939	3412
919.05	3272
919.161	3370
919.272	3180
919.383	3279
919.494	3477
919.604	3652
919.715	3473
919.826	3405
919.936	3454
920.047	3564
920.157	3580
920.267	3770
920.378	3633
920.488	3568
920.598	3785
920.708	3926
920.818	3785
920.928	3896
921.038	3968
921.148	3960
921.258	3679
921.368	3584
921.477	3622
921.587	3526
921.697	3420
921.806	3606
921.916	3500
922.025	3348
922.134	3386
922.244	3351
922.353	3389
922.462	3253
922.571	3260
922.68	3119
922.789	3058
922.898	3112
923.007	3100
923.116	3230
923.224	3199
923.333	3173
923.442	3081
923.55	3032
923.659	3138
923.767	3199
923.876	3104
923.984	3233
924.092	3089
924.201	3203
924.309	3199
924.417	3256
924.525	3169
924.633	3222
924.741	4169
924.849	3066
924.956	3253
925.064	3097
925.172	3028
925.279	3116
925.387	3173
925.494	3207
925.602	3306
925.709	3321
925.816	3146
925.924	3302
926.031	3405
926.138	3329
926.245	3329
926.352	3260
926.459	3420
926.566	3443
926.673	3306
926.779	3253
926.886	3222
926.993	3116
927.099	3123
927.206	3127
927.312	3100
927.419	3195
927.525	3188
927.631	3256
927.737	3146
927.843	3127
927.95	2971
928.056	3112
928.162	3173
928.267	3207
928.373	3869
928.479	3291
928.585	3070
928.69	3211
928.796	3302
928.901	3176
929.007	3032
929.112	3203
929.218	3195
929.323	3161
929.428	3192
929.533	3313
929.638	3127
929.743	3173
929.848	3302
929.953	3199
930.058	3165
930.163	3009
930.267	3017
930.372	3192
930.477	3051
930.581	3332
930.685	3157
930.79	3032
930.894	3112
930.998	3081
931.103	3325
931.207	2956
931.311	2937
931.415	2918
931.519	2750
931.623	2826
