Data from test_V78500241_1660.txt Node
Date: Fri Mar 25 16:26:42 CST 2022
User: usil
Spectrometer: V785-0024
Trigger mode: 0
Integration Time (sec): 4.000000E-1
Scans to average: 1
Nonlinearity correction enabled: false
Boxcar width: 0
Storing dark spectrum: false
XAxis mode: Wavelengths
Number of Pixels in Spectrum: 1024
>>>>>Begin Spectral Data<<<<<
801.071	2895
801.214	2937
801.356	2868
801.499	2910
801.641	2842
801.783	2918
801.926	3058
802.068	2971
802.211	2960
802.353	3081
802.496	2990
802.638	3005
802.78	3013
802.923	3085
803.065	3024
803.208	2857
803.35	2925
803.492	2906
803.635	2910
803.777	2705
803.919	2861
804.061	3211
804.204	2929
804.346	2883
804.488	2823
804.63	2967
804.773	2868
804.915	2883
805.057	3055
805.199	2948
805.341	2971
805.483	3032
805.626	2979
805.768	2937
805.91	3066
806.052	3077
806.194	3009
806.336	3192
806.478	3005
806.62	2975
806.762	2963
806.904	3005
807.046	3161
807.188	3017
807.33	2891
807.472	2994
807.614	2887
807.756	2986
807.898	2891
808.04	2922
808.182	2967
808.324	2922
808.465	2891
808.607	2876
808.749	2773
808.891	2838
809.033	2975
809.174	2994
809.316	2891
809.458	2922
809.6	2807
809.741	2758
809.883	2746
810.025	2826
810.166	2826
810.308	2857
810.45	2849
810.591	2750
810.733	2777
810.875	2838
811.016	2769
811.158	2773
811.299	2785
811.441	2918
811.582	2864
811.724	2838
811.865	2834
812.007	2914
812.148	2868
812.29	2876
812.431	2899
812.573	2925
812.714	2960
812.855	3062
812.997	3043
813.138	3146
813.279	2975
813.421	3005
813.562	2933
813.703	2902
813.845	2880
813.986	2804
814.127	2750
814.268	2792
814.41	2830
814.551	2785
814.692	2823
814.833	2796
814.974	2838
815.115	2948
815.256	2811
815.397	2800
815.539	2849
815.68	2777
815.821	2785
815.962	2906
816.103	2906
816.244	2868
816.385	2864
816.526	2963
816.666	2899
816.807	2735
816.948	2899
817.089	2902
817.23	2853
817.371	2785
817.512	2777
817.653	2842
817.793	2777
817.934	2883
818.075	2979
818.216	2971
818.356	2998
818.497	2876
818.638	2785
818.778	2826
818.919	2762
819.06	2746
819.2	2868
819.341	2804
819.481	2819
819.622	2944
819.762	3131
819.903	3013
820.043	2902
820.184	2895
820.324	2899
820.465	3024
820.605	3013
820.746	3013
820.886	2899
821.026	3081
821.167	3142
821.307	3253
821.447	3283
821.588	3211
821.728	3199
821.868	3203
822.008	3077
822.149	3176
822.289	3245
822.429	3074
822.569	3085
822.709	3176
822.849	3028
822.99	3039
823.13	3165
823.27	3207
823.41	3085
823.55	3157
823.69	3154
823.83	3195
823.97	3058
824.11	2994
824.25	3013
824.389	3055
824.529	3104
824.669	3036
824.809	3203
824.949	3279
825.089	3192
825.228	3138
825.368	2994
825.508	2971
825.648	2971
825.787	2994
825.927	3001
826.067	2971
826.206	2971
826.346	3024
826.485	3051
826.625	3135
826.765	3256
826.904	3195
827.044	3001
827.183	2941
827.323	2876
827.462	2979
827.601	2891
827.741	2906
827.88	2979
828.02	2872
828.159	2960
828.298	3051
828.437	3104
828.577	3032
828.716	3211
828.855	3062
828.994	2910
829.134	2891
829.273	2937
829.412	2872
829.551	2849
829.69	2876
829.829	2982
829.968	3108
830.107	3024
830.246	3005
830.385	2914
830.524	2910
830.663	2823
830.802	2754
830.941	2659
831.08	2648
831.219	2754
831.357	2735
831.496	2952
831.635	2712
831.774	2640
831.913	2663
832.051	2530
832.19	2602
832.329	2663
832.467	2530
832.606	2507
832.744	2549
832.883	2571
833.022	2606
833.16	2640
833.299	2720
833.437	2705
833.576	2701
833.714	2697
833.852	2716
833.991	2724
834.129	2807
834.267	2804
834.406	2785
834.544	2864
834.682	2887
834.821	2857
834.959	3055
835.097	2864
835.235	3028
835.373	3013
835.511	3028
835.65	2952
835.788	2956
835.926	2811
836.064	2796
836.202	2823
836.34	3070
836.478	3131
836.615	3043
836.753	3154
836.891	3203
837.029	3176
837.167	3070
837.305	3062
837.443	3047
837.58	2956
837.718	3116
837.856	3020
837.993	3036
838.131	3093
838.269	3100
838.406	3077
838.544	3097
838.681	2910
838.819	2925
838.956	2811
839.094	2861
839.231	2906
839.369	3047
839.506	3336
839.643	3214
839.781	3032
839.918	2967
840.055	3020
840.193	3074
840.33	3058
840.467	3093
840.604	3157
840.742	3382
840.879	3036
841.016	3024
841.153	3119
841.29	3332
841.427	3291
841.564	3298
841.701	3287
841.838	3192
841.975	3142
842.112	3195
842.249	3097
842.385	3055
842.522	3279
842.659	3093
842.796	3028
842.933	3131
843.069	3020
843.206	3043
843.343	3165
843.479	3127
843.616	3142
843.752	2861
843.889	2857
844.025	3062
844.162	2868
844.298	3077
844.435	2948
844.571	2937
844.708	3043
844.844	3176
844.98	3237
845.117	3173
845.253	3039
845.389	3028
845.525	3135
845.661	3135
845.798	2982
845.934	3135
846.07	3039
846.206	3203
846.342	3310
846.478	3226
846.614	3112
846.75	3051
846.886	3013
847.022	3249
847.158	3123
847.294	3192
847.429	3275
847.565	3203
847.701	3428
847.837	3028
847.972	2944
848.108	3150
848.244	3112
848.379	2998
848.515	2922
848.65	2864
848.786	2960
848.921	3009
849.057	3085
849.192	3123
849.328	3055
849.463	3116
849.598	3043
849.734	3028
849.869	2960
850.004	2918
850.14	2925
850.275	2925
850.41	2842
850.545	2861
850.68	2918
850.815	2941
850.95	2952
851.085	3180
851.22	3093
851.355	3032
851.49	2960
851.625	2990
851.76	3013
851.895	2914
852.03	2914
852.165	3051
852.299	3077
852.434	3195
852.569	3127
852.703	3169
852.838	3256
852.973	3329
853.107	3329
853.242	3154
853.376	3077
853.511	2952
853.645	2998
853.78	3218
853.914	3135
854.048	3097
854.183	3055
854.317	3104
854.451	3272
854.585	3081
854.72	3100
854.854	3195
854.988	3039
855.122	3051
855.256	2933
855.39	3097
855.524	3233
855.658	3161
855.792	3157
855.926	3161
856.06	3188
856.194	3249
856.327	3104
856.461	3039
856.595	3039
856.729	3062
856.862	3214
856.996	3176
857.13	3195
857.263	3203
857.397	3268
857.53	3104
857.664	3180
857.797	3222
857.931	3245
858.064	3138
858.197	3218
858.331	3123
858.464	3066
858.597	3020
858.731	3093
858.864	3119
858.997	3055
859.13	3131
859.263	3173
859.396	3199
859.529	3070
859.662	3062
859.795	3017
859.928	3154
860.061	3283
860.194	3256
860.327	3135
860.46	3104
860.592	3222
860.725	3226
860.858	3230
860.99	3081
861.123	3077
861.256	3047
861.388	3127
861.521	3880
861.653	3001
861.786	2967
861.918	3005
862.05	3066
862.183	3074
862.315	3150
862.447	3165
862.58	3055
862.712	2929
862.844	2902
862.976	3001
863.108	2990
863.24	3401
863.372	2853
863.504	2914
863.636	2944
863.768	3017
863.9	2929
864.032	2902
864.164	2941
864.296	3043
864.428	3100
864.559	3062
864.691	3051
864.823	3058
864.954	3028
865.086	3001
865.217	2956
865.349	2933
865.48	2948
865.612	3017
865.743	3154
865.875	2960
866.006	2880
866.137	2960
866.269	2922
866.4	2933
866.531	2891
866.662	2842
866.793	2880
866.924	2899
867.055	2982
867.186	2929
867.317	2864
867.448	2857
867.579	2853
867.71	2845
867.841	2800
867.972	2883
868.103	2857
868.233	2857
868.364	2857
868.495	2880
868.625	3047
868.756	3097
868.886	2956
869.017	3028
869.147	3154
869.278	3131
869.408	3020
869.539	3024
869.669	3081
869.799	3039
869.929	3131
870.06	3093
870.19	3302
870.32	3287
870.45	3294
870.58	3351
870.71	3454
870.84	3439
870.97	3310
871.1	3253
871.23	3477
871.36	3462
871.489	3306
871.619	3336
871.749	3386
871.879	3443
872.008	3481
872.138	3329
872.267	3249
872.397	3108
872.526	3055
872.656	2982
872.785	3081
872.915	3233
873.044	3336
873.173	3184
873.303	3203
873.432	3218
873.561	3230
873.69	3154
873.819	3150
873.948	3199
874.077	3081
874.206	3020
874.335	3058
874.464	3237
874.593	3332
874.722	3253
874.851	3370
874.979	3325
875.108	3291
875.237	3188
875.365	3112
875.494	3135
875.623	3256
875.751	3074
875.88	3131
876.008	3169
876.136	3241
876.265	3344
876.393	3523
876.521	3393
876.65	3363
876.778	3355
876.906	3203
877.034	3188
877.162	3226
877.29	3161
877.418	3226
877.546	3237
877.674	3237
877.802	3207
877.93	3195
878.058	3127
878.185	3070
878.313	3188
878.441	3188
878.568	3043
878.696	3146
878.824	3199
878.951	3344
879.079	3431
879.206	3618
879.333	3450
879.461	3256
879.588	3298
879.715	3477
879.842	3580
879.97	3389
880.097	3131
880.224	3123
880.351	3169
880.478	3180
880.605	3173
880.732	3184
880.859	3481
880.986	3283
881.112	3272
881.239	3161
881.366	3066
881.493	3017
881.619	3009
881.746	3036
881.872	3066
881.999	3093
882.125	3146
882.252	3241
882.378	3245
882.505	3409
882.631	3264
882.757	3135
882.883	3184
883.01	3199
883.136	3157
883.262	3085
883.388	3135
883.514	3287
883.64	3336
883.766	3268
883.892	3203
884.018	3218
884.143	3424
884.269	3504
884.395	3226
884.52	3150
884.646	3173
884.772	3119
884.897	3089
885.023	3207
885.148	3306
885.274	3370
885.399	3363
885.524	3260
885.65	3211
885.775	3260
885.9	3302
886.025	3416
886.15	3367
886.275	3264
886.4	3218
886.525	3275
886.65	3268
886.775	3222
886.9	3454
887.025	3618
887.149	3412
887.274	3241
887.399	3173
887.523	3192
887.648	3165
887.773	3161
887.897	3351
888.021	3405
888.146	3279
888.27	3424
888.395	3519
888.519	3420
888.643	3416
888.767	3447
888.891	3294
889.015	3260
889.139	3325
889.263	3245
889.387	3363
889.511	3507
889.635	3428
889.759	3279
889.883	3291
890.006	3382
890.13	3507
890.254	3264
890.377	3359
890.501	3207
890.624	3169
890.748	3283
890.871	3165
890.995	3112
891.118	3097
891.241	3176
891.364	3222
891.488	3310
891.611	3180
891.734	3222
891.857	3336
891.98	3237
892.103	3359
892.226	3306
892.349	3211
892.471	3108
892.594	3268
892.717	3310
892.839	3268
892.962	3310
893.085	3351
893.207	3272
893.33	3184
893.452	3241
893.575	3374
893.697	3272
893.819	3458
893.941	3519
894.064	3458
894.186	3329
894.308	3313
894.43	3477
894.552	3564
894.674	3523
894.796	3264
894.918	3363
895.04	3310
895.161	3485
895.283	3428
895.405	3310
895.526	3409
895.648	3450
895.769	3473
895.891	3507
896.012	3557
896.134	3515
896.255	3473
896.376	3466
896.498	3428
896.619	3500
896.74	3405
896.861	3447
896.982	3728
897.103	3876
897.224	3599
897.345	3542
897.466	3496
897.587	3530
897.708	3641
897.828	3580
897.949	3485
898.07	3386
898.19	3466
898.311	3641
898.431	3477
898.552	3572
898.672	3622
898.792	3587
898.913	3576
899.033	3488
899.153	3317
899.273	3279
899.393	3344
899.513	3363
899.633	3370
899.753	3351
899.873	3374
899.993	3386
900.113	3382
900.232	3428
900.352	3386
900.472	3348
900.591	3279
900.711	3344
900.83	3272
900.95	3469
901.069	3523
901.189	3348
901.308	3218
901.427	3169
901.546	3218
901.665	3332
901.784	3378
901.904	3211
902.023	3188
902.141	3047
902.26	3047
902.379	3188
902.498	3116
902.617	3047
902.735	3256
902.854	3218
902.973	3241
903.091	3077
903.21	3123
903.328	3142
903.446	3154
903.565	3135
903.683	3222
903.801	3138
903.919	3287
904.038	3332
904.156	3192
904.274	3283
904.392	3275
904.51	3359
904.627	3332
904.745	3481
904.863	3511
904.981	3310
905.098	3245
905.216	3253
905.334	3310
905.451	3294
905.569	3310
905.686	3439
905.803	3496
905.921	3272
906.038	3473
906.155	3382
906.272	3287
906.389	3351
906.506	3233
906.623	3249
906.74	3283
906.857	3195
906.974	3287
907.091	3443
907.208	3614
907.324	3496
907.441	3401
907.557	3291
907.674	3241
907.79	3260
907.907	3313
908.023	3416
908.139	3374
908.256	3363
908.372	3348
908.488	3389
908.604	3264
908.72	3245
908.836	3291
908.952	3291
909.068	3348
909.184	3561
909.3	3420
909.415	3511
909.531	3488
909.647	3302
909.762	3310
909.878	3294
909.993	3386
910.108	3355
910.224	3401
910.339	3405
910.454	3363
910.57	3363
910.685	3279
910.8	3614
910.915	3564
911.03	3477
911.145	3275
911.259	3313
911.374	3389
911.489	3275
911.604	3241
911.718	3142
911.833	3203
911.947	3074
912.062	3013
912.176	3184
912.291	3207
912.405	3226
912.519	3435
912.633	3485
912.748	3325
912.862	3306
912.976	3222
913.09	3077
913.204	3142
913.318	3218
913.431	3389
913.545	3367
913.659	3462
913.772	3348
913.886	3268
914	3233
914.113	3386
914.226	3435
914.34	3409
914.453	3218
914.566	3439
914.68	3306
914.793	3382
914.906	3150
915.019	3116
915.132	3131
915.245	3203
915.358	3253
915.47	3233
915.583	3283
915.696	3351
915.809	3439
915.921	3435
916.034	3264
916.146	3306
916.259	3233
916.371	3389
916.483	3401
916.595	3336
916.708	3348
916.82	3351
916.932	3389
917.044	3409
917.156	3340
917.268	3310
917.38	3336
917.491	3351
917.603	3382
917.715	3466
917.826	3488
917.938	3412
918.049	3294
918.161	3428
918.272	3580
918.384	3591
918.495	3515
918.606	3378
918.717	3302
918.828	3389
918.939	3462
919.05	3313
919.161	3363
919.272	3188
919.383	3329
919.494	3530
919.604	3698
919.715	3515
919.826	3466
919.936	3477
920.047	3603
920.157	3614
920.267	3800
920.378	3667
920.488	3595
920.598	3804
920.708	3953
920.818	3869
920.928	3850
921.038	4048
921.148	3994
921.258	3755
921.368	3671
921.477	3576
921.587	3534
921.697	3485
921.806	3656
921.916	3549
922.025	3389
922.134	3420
922.244	3325
922.353	3409
922.462	3287
922.571	3253
922.68	3108
922.789	3058
922.898	3157
923.007	3138
923.116	3249
923.224	3207
923.333	3195
923.442	3104
923.55	3108
923.659	3169
923.767	3264
923.876	3138
923.984	3249
924.092	3104
924.201	3233
924.309	3214
924.417	3268
924.525	3165
924.633	3275
924.741	4204
924.849	3077
924.956	3279
925.064	3104
925.172	3039
925.279	3123
925.387	3222
925.494	3253
925.602	3355
925.709	3370
925.816	3192
925.924	3302
926.031	3393
926.138	3340
926.245	3378
926.352	3275
926.459	3477
926.566	3450
926.673	3378
926.779	3291
926.886	3275
926.993	3192
927.099	3150
927.206	3097
927.312	3127
927.419	3249
927.525	3192
927.631	3302
927.737	3157
927.843	3131
927.95	3070
928.056	3161
928.162	3207
928.267	3249
928.373	3797
928.479	3359
928.585	3077
928.69	3226
928.796	3302
928.901	3176
929.007	3051
929.112	3207
929.218	3188
929.323	3203
929.428	3161
929.533	3310
929.638	3146
929.743	3241
929.848	3260
929.953	3230
930.058	3176
930.163	3017
930.267	3112
930.372	3249
930.477	3058
930.581	3329
930.685	3176
930.79	3089
930.894	3135
930.998	3108
931.103	3306
931.207	2963
931.311	2971
931.415	2956
931.519	2785
931.623	2811
