Data from test_V78500241_385.txt Node
Date: Fri Mar 25 16:17:52 CST 2022
User: usil
Spectrometer: V785-0024
Trigger mode: 0
Integration Time (sec): 4.000000E-1
Scans to average: 1
Nonlinearity correction enabled: false
Boxcar width: 0
Storing dark spectrum: false
XAxis mode: Wavelengths
Number of Pixels in Spectrum: 1024
>>>>>Begin Spectral Data<<<<<
801.071	2880
801.214	2937
801.356	2864
801.499	2864
801.641	2861
801.783	2906
801.926	3062
802.068	2929
802.211	3009
802.353	3028
802.496	2914
802.638	2956
802.78	3005
802.923	3036
803.065	3017
803.208	2864
803.35	2925
803.492	2883
803.635	2906
803.777	2727
803.919	2872
804.061	3211
804.204	2952
804.346	2883
804.488	2849
804.63	2986
804.773	2914
804.915	2902
805.057	3070
805.199	2883
805.341	2948
805.483	3001
805.626	3009
805.768	2960
805.91	3070
806.052	3085
806.194	2990
806.336	3207
806.478	3024
806.62	2925
806.762	2960
806.904	3074
807.046	3142
807.188	2986
807.33	2895
807.472	2922
807.614	2906
807.756	2979
807.898	2929
808.04	2880
808.182	2979
808.324	2925
808.465	2861
808.607	2876
808.749	2811
808.891	2834
809.033	2956
809.174	2929
809.316	2895
809.458	2883
809.6	2769
809.741	2785
809.883	2746
810.025	2815
810.166	2861
810.308	2857
810.45	2842
810.591	2750
810.733	2754
810.875	2830
811.016	2785
811.158	2777
811.299	2826
811.441	2906
811.582	2868
811.724	2815
811.865	2834
812.007	2948
812.148	2868
812.29	2819
812.431	2933
812.573	2933
812.714	2929
812.855	3051
812.997	3047
813.138	3116
813.279	2998
813.421	3017
813.562	2922
813.703	2902
813.845	2899
813.986	2826
814.127	2735
814.268	2830
814.41	2819
814.551	2796
814.692	2853
814.833	2819
814.974	2895
815.115	2952
815.256	2853
815.397	2796
815.539	2880
815.68	2762
815.821	2788
815.962	2952
816.103	2941
816.244	2887
816.385	2842
816.526	2960
816.666	2925
816.807	2743
816.948	2849
817.089	2948
817.23	2868
817.371	2766
817.512	2804
817.653	2834
817.793	2853
817.934	2849
818.075	2960
818.216	2975
818.356	3017
818.497	2872
818.638	2743
818.778	2849
818.919	2792
819.06	2754
819.2	2906
819.341	2826
819.481	2823
819.622	2925
819.762	3104
819.903	3058
820.043	2929
820.184	2891
820.324	2910
820.465	2998
820.605	2998
820.746	3089
820.886	2922
821.026	3112
821.167	3127
821.307	3249
821.447	3336
821.588	3268
821.728	3188
821.868	3199
822.008	3085
822.149	3176
822.289	3184
822.429	3074
822.569	3074
822.709	3161
822.849	3005
822.99	3066
823.13	3180
823.27	3226
823.41	3116
823.55	3127
823.69	3157
823.83	3176
823.97	3104
824.11	2986
824.25	2971
824.389	3066
824.529	3062
824.669	3058
824.809	3173
824.949	3272
825.089	3211
825.228	3169
825.368	2986
825.508	2975
825.648	2975
825.787	3017
825.927	3024
826.067	2971
826.206	2971
826.346	3058
826.485	3062
826.625	3081
826.765	3253
826.904	3253
827.044	3001
827.183	2922
827.323	2876
827.462	2952
827.601	2925
827.741	2891
827.88	2933
828.02	2857
828.159	2982
828.298	3032
828.437	3123
828.577	3020
828.716	3241
828.855	3100
828.994	2891
829.134	2853
829.273	2887
829.412	2868
829.551	2861
829.69	2857
829.829	2975
829.968	3119
830.107	3032
830.246	3013
830.385	2906
830.524	2906
830.663	2815
830.802	2716
830.941	2651
831.08	2625
831.219	2792
831.357	2754
831.496	2941
831.635	2705
831.774	2590
831.913	2651
832.051	2514
832.19	2571
832.329	2659
832.467	2537
832.606	2507
832.744	2537
832.883	2560
833.022	2617
833.16	2659
833.299	2674
833.437	2659
833.576	2693
833.714	2727
833.852	2743
833.991	2758
834.129	2823
834.267	2807
834.406	2758
834.544	2872
834.682	2891
834.821	2845
834.959	3055
835.097	2880
835.235	3017
835.373	2971
835.511	3020
835.65	2975
835.788	2952
835.926	2830
836.064	2804
836.202	2891
836.34	3089
836.478	3119
836.615	3013
836.753	3150
836.891	3188
837.029	3146
837.167	3100
837.305	3020
837.443	3024
837.58	2979
837.718	3142
837.856	3058
837.993	3070
838.131	3097
838.269	3119
838.406	3093
838.544	3089
838.681	2948
838.819	2918
838.956	2838
839.094	2807
839.231	2895
839.369	3013
839.506	3370
839.643	3207
839.781	3009
839.918	2967
840.055	3062
840.193	3009
840.33	3070
840.467	3097
840.604	3157
840.742	3428
840.879	3043
841.016	3024
841.153	3104
841.29	3329
841.427	3272
841.564	3260
841.701	3291
841.838	3180
841.975	3146
842.112	3226
842.249	3085
842.385	3047
842.522	3245
842.659	3066
842.796	3047
842.933	3112
843.069	3028
843.206	3039
843.343	3203
843.479	3127
843.616	3119
843.752	2906
843.889	2887
844.025	3089
844.162	2895
844.298	3058
844.435	2986
844.571	2922
844.708	3085
844.844	3165
844.98	3253
845.117	3161
845.253	3043
845.389	2990
845.525	3104
845.661	3131
845.798	3005
845.934	3131
846.07	3043
846.206	3222
846.342	3283
846.478	3272
846.614	3093
846.75	3036
846.886	3017
847.022	3249
847.158	3108
847.294	3214
847.429	3214
847.565	3211
847.701	3500
847.837	3028
847.972	2979
848.108	3131
848.244	3119
848.379	3020
848.515	2929
848.65	2925
848.786	2944
848.921	2986
849.057	3116
849.192	3127
849.328	3051
849.463	3116
849.598	3036
849.734	3032
849.869	2952
850.004	2906
850.14	2967
850.275	2914
850.41	2811
850.545	2853
850.68	2933
850.815	2922
850.95	2941
851.085	3169
851.22	3085
851.355	3051
851.49	2998
851.625	2975
851.76	2994
851.895	2937
852.03	2918
852.165	3039
852.299	3142
852.434	3195
852.569	3123
852.703	3173
852.838	3222
852.973	3355
853.107	3332
853.242	3135
853.376	3070
853.511	2967
853.645	3032
853.78	3226
853.914	3116
854.048	3047
854.183	3093
854.317	3138
854.451	3272
854.585	3116
854.72	3112
854.854	3211
854.988	3043
855.122	3066
855.256	2944
855.39	3089
855.524	3203
855.658	3150
855.792	3150
855.926	3138
856.06	3211
856.194	3268
856.327	3150
856.461	3093
856.595	3066
856.729	3085
856.862	3207
856.996	3157
857.13	3138
857.263	3199
857.397	3253
857.53	3093
857.664	3199
857.797	3218
857.931	3256
858.064	3154
858.197	3233
858.331	3108
858.464	3081
858.597	3005
858.731	3112
858.864	3123
858.997	3116
859.13	3123
859.263	3184
859.396	3214
859.529	3039
859.662	3081
859.795	3062
859.928	3157
860.061	3260
860.194	3249
860.327	3127
860.46	3097
860.592	3264
860.725	3272
860.858	3260
860.99	3077
861.123	3024
861.256	3058
861.388	3138
861.521	3827
861.653	3013
861.786	2994
861.918	2982
862.05	3051
862.183	3097
862.315	3142
862.447	3249
862.58	3070
862.712	2944
862.844	2849
862.976	3032
863.108	2982
863.24	3397
863.372	2883
863.504	2979
863.636	2963
863.768	3020
863.9	2982
864.032	2906
864.164	2941
864.296	2998
864.428	3074
864.559	3058
864.691	3104
864.823	3047
864.954	3043
865.086	3005
865.217	2986
865.349	2956
865.48	3024
865.612	3005
865.743	3169
865.875	2990
866.006	2929
866.137	2998
866.269	2933
866.4	2925
866.531	2948
866.662	2868
866.793	2876
866.924	2891
867.055	2944
867.186	2922
867.317	2876
867.448	2838
867.579	2845
867.71	2842
867.841	2777
867.972	2922
868.103	2902
868.233	2891
868.364	2876
868.495	2887
868.625	3036
868.756	3146
868.886	2967
869.017	3013
869.147	3112
869.278	3173
869.408	3074
869.539	3001
869.669	3081
869.799	3036
869.929	3127
870.06	3112
870.19	3287
870.32	3275
870.45	3291
870.58	3397
870.71	3439
870.84	3454
870.97	3317
871.1	3256
871.23	3485
871.36	3439
871.489	3313
871.619	3382
871.749	3401
871.879	3466
872.008	3485
872.138	3367
872.267	3287
872.397	3173
872.526	3085
872.656	2990
872.785	3104
872.915	3249
873.044	3340
873.173	3211
873.303	3260
873.432	3241
873.561	3230
873.69	3157
873.819	3169
873.948	3214
874.077	3100
874.206	3036
874.335	3077
874.464	3214
874.593	3344
874.722	3233
874.851	3367
874.979	3317
875.108	3298
875.237	3207
875.365	3142
875.494	3123
875.623	3268
875.751	3100
875.88	3131
876.008	3192
876.136	3199
876.265	3348
876.393	3507
876.521	3424
876.65	3355
876.778	3321
876.906	3237
877.034	3199
877.162	3226
877.29	3165
877.418	3256
877.546	3260
877.674	3207
877.802	3230
877.93	3264
878.058	3131
878.185	3112
878.313	3195
878.441	3211
878.568	3066
878.696	3112
878.824	3279
878.951	3283
879.079	3431
879.206	3610
879.333	3492
879.461	3325
879.588	3351
879.715	3469
879.842	3576
879.97	3355
880.097	3165
880.224	3150
880.351	3184
880.478	3176
880.605	3207
880.732	3188
880.859	3496
880.986	3344
881.112	3329
881.239	3214
881.366	3112
881.493	3032
881.619	3028
881.746	3074
881.872	3085
881.999	3055
882.125	3142
882.252	3233
882.378	3264
882.505	3431
882.631	3253
882.757	3146
882.883	3233
883.01	3230
883.136	3146
883.262	3077
883.388	3123
883.514	3313
883.64	3367
883.766	3336
883.892	3176
884.018	3226
884.143	3393
884.269	3584
884.395	3173
884.52	3169
884.646	3195
884.772	3112
884.897	3081
885.023	3233
885.148	3355
885.274	3431
885.399	3363
885.524	3283
885.65	3253
885.775	3325
885.9	3268
886.025	3435
886.15	3378
886.275	3306
886.4	3237
886.525	3317
886.65	3279
886.775	3264
886.9	3485
887.025	3633
887.149	3389
887.274	3264
887.399	3161
887.523	3203
887.648	3195
887.773	3184
887.897	3344
888.021	3382
888.146	3310
888.27	3405
888.395	3545
888.519	3424
888.643	3424
888.767	3431
888.891	3332
889.015	3207
889.139	3291
889.263	3264
889.387	3435
889.511	3500
889.635	3462
889.759	3302
889.883	3283
890.006	3344
890.13	3538
890.254	3249
890.377	3336
890.501	3199
890.624	3188
890.748	3298
890.871	3142
890.995	3123
891.118	3097
891.241	3180
891.364	3264
891.488	3306
891.611	3173
891.734	3211
891.857	3287
891.98	3237
892.103	3336
892.226	3287
892.349	3233
892.471	3112
892.594	3207
892.717	3313
892.839	3272
892.962	3275
893.085	3317
893.207	3287
893.33	3150
893.452	3226
893.575	3370
893.697	3268
893.819	3450
893.941	3481
894.064	3466
894.186	3256
894.308	3298
894.43	3424
894.552	3538
894.674	3466
894.796	3249
894.918	3294
895.04	3294
895.161	3439
895.283	3359
895.405	3298
895.526	3378
895.648	3424
895.769	3363
895.891	3439
896.012	3466
896.134	3492
896.255	3401
896.376	3378
896.498	3317
896.619	3431
896.74	3348
896.861	3416
896.982	3667
897.103	3812
897.224	3576
897.345	3473
897.466	3378
897.587	3515
897.708	3595
897.828	3542
897.949	3420
898.07	3351
898.19	3401
898.311	3580
898.431	3409
898.552	3488
898.672	3595
898.792	3568
898.913	3511
899.033	3397
899.153	3279
899.273	3207
899.393	3294
899.513	3275
899.633	3329
899.753	3306
899.873	3325
899.993	3370
900.113	3275
900.232	3386
900.352	3302
900.472	3241
900.591	3180
900.711	3287
900.83	3233
900.95	3420
901.069	3458
901.189	3348
901.308	3157
901.427	3142
901.546	3157
901.665	3294
901.784	3351
901.904	3211
902.023	3161
902.141	3028
902.26	3005
902.379	3135
902.498	3074
902.617	3058
902.735	3165
902.854	3260
902.973	3218
903.091	3062
903.21	3058
903.328	3127
903.446	3108
903.565	3081
903.683	3203
903.801	3131
903.919	3237
904.038	3264
904.156	3180
904.274	3272
904.392	3241
904.51	3302
904.627	3313
904.745	3439
904.863	3428
904.981	3272
905.098	3173
905.216	3211
905.334	3283
905.451	3275
905.569	3317
905.686	3431
905.803	3428
905.921	3264
906.038	3447
906.155	3363
906.272	3245
906.389	3344
906.506	3233
906.623	3260
906.74	3287
906.857	3214
906.974	3241
907.091	3473
907.208	3561
907.324	3504
907.441	3454
907.557	3214
907.674	3226
907.79	3207
907.907	3291
908.023	3355
908.139	3367
908.256	3348
908.372	3348
908.488	3348
908.604	3230
908.72	3230
908.836	3306
908.952	3302
909.068	3332
909.184	3466
909.3	3382
909.415	3473
909.531	3435
909.647	3287
909.762	3245
909.878	3241
909.993	3313
910.108	3321
910.224	3317
910.339	3405
910.454	3329
910.57	3264
910.685	3272
910.8	3584
910.915	3515
911.03	3439
911.145	3275
911.259	3294
911.374	3313
911.489	3218
911.604	3226
911.718	3138
911.833	3116
911.947	3039
912.062	2990
912.176	3188
912.291	3195
912.405	3192
912.519	3409
912.633	3466
912.748	3344
912.862	3260
912.976	3131
913.09	3058
913.204	3123
913.318	3211
913.431	3329
913.545	3332
913.659	3405
913.772	3310
913.886	3203
914	3154
914.113	3359
914.226	3431
914.34	3359
914.453	3218
914.566	3439
914.68	3283
914.793	3287
914.906	3165
915.019	3119
915.132	3066
915.245	3165
915.358	3218
915.47	3241
915.583	3275
915.696	3317
915.809	3397
915.921	3420
916.034	3253
916.146	3268
916.259	3214
916.371	3370
916.483	3351
916.595	3279
916.708	3363
916.82	3306
916.932	3359
917.044	3321
917.156	3306
917.268	3256
917.38	3294
917.491	3306
917.603	3393
917.715	3439
917.826	3473
917.938	3329
918.049	3268
918.161	3397
918.272	3568
918.384	3576
918.495	3511
918.606	3382
918.717	3279
918.828	3386
918.939	3393
919.05	3332
919.161	3359
919.272	3173
919.383	3253
919.494	3485
919.604	3663
919.715	3450
919.826	3424
919.936	3458
920.047	3606
920.157	3538
920.267	3781
920.378	3595
920.488	3568
920.598	3781
920.708	3987
920.818	3781
920.928	3804
921.038	3994
921.148	4010
921.258	3671
921.368	3660
921.477	3561
921.587	3542
921.697	3477
921.806	3618
921.916	3523
922.025	3374
922.134	3363
922.244	3287
922.353	3420
922.462	3256
922.571	3222
922.68	3123
922.789	3066
922.898	3165
923.007	3066
923.116	3173
923.224	3188
923.333	3161
923.442	3097
923.55	3150
923.659	3131
923.767	3211
923.876	3138
923.984	3249
924.092	3089
924.201	3199
924.309	3214
924.417	3264
924.525	3195
924.633	3241
924.741	4166
924.849	3074
924.956	3287
925.064	3108
925.172	3036
925.279	3138
925.387	3192
925.494	3180
925.602	3325
925.709	3310
925.816	3195
925.924	3253
926.031	3382
926.138	3287
926.245	3344
926.352	3287
926.459	3401
926.566	3416
926.673	3313
926.779	3241
926.886	3233
926.993	3157
927.099	3135
927.206	3112
927.312	3138
927.419	3222
927.525	3169
927.631	3287
927.737	3100
927.843	3131
927.95	3058
928.056	3154
928.162	3142
928.267	3264
928.373	3930
928.479	3336
928.585	3036
928.69	3211
928.796	3291
928.901	3142
929.007	3066
929.112	3203
929.218	3142
929.323	3142
929.428	3154
929.533	3340
929.638	3127
929.743	3188
929.848	3264
929.953	3157
930.058	3138
930.163	3017
930.267	3047
930.372	3157
930.477	3017
930.581	3287
930.685	3165
930.79	3032
930.894	3112
930.998	3055
931.103	3283
931.207	2948
931.311	2948
931.415	2891
931.519	2750
931.623	2804
