Data from test_V78500241_1366.txt Node
Date: Fri Mar 25 16:24:40 CST 2022
User: usil
Spectrometer: V785-0024
Trigger mode: 0
Integration Time (sec): 4.000000E-1
Scans to average: 1
Nonlinearity correction enabled: false
Boxcar width: 0
Storing dark spectrum: false
XAxis mode: Wavelengths
Number of Pixels in Spectrum: 1024
>>>>>Begin Spectral Data<<<<<
801.071	2906
801.214	2902
801.356	2895
801.499	2902
801.641	2864
801.783	2937
801.926	3055
802.068	3001
802.211	2971
802.353	3047
802.496	3005
802.638	2990
802.78	3032
802.923	3074
803.065	2994
803.208	2895
803.35	2895
803.492	2944
803.635	2910
803.777	2743
803.919	2872
804.061	3199
804.204	2929
804.346	2937
804.488	2857
804.63	2998
804.773	2910
804.915	2910
805.057	3077
805.199	2925
805.341	2960
805.483	3055
805.626	2990
805.768	2956
805.91	3074
806.052	3108
806.194	3020
806.336	3256
806.478	3055
806.62	2971
806.762	2986
806.904	3036
807.046	3173
807.188	3024
807.33	2918
807.472	3001
807.614	2891
807.756	2975
807.898	2922
808.04	2887
808.182	2986
808.324	2963
808.465	2918
808.607	2872
808.749	2788
808.891	2842
809.033	2982
809.174	2963
809.316	2906
809.458	2883
809.6	2811
809.741	2807
809.883	2781
810.025	2849
810.166	2887
810.308	2864
810.45	2853
810.591	2769
810.733	2769
810.875	2864
811.016	2769
811.158	2754
811.299	2800
811.441	2922
811.582	2891
811.724	2845
811.865	2842
812.007	2933
812.148	2883
812.29	2853
812.431	2864
812.573	2906
812.714	2963
812.855	3032
812.997	3074
813.138	3142
813.279	2994
813.421	3020
813.562	2979
813.703	2872
813.845	2910
813.986	2785
814.127	2743
814.268	2845
814.41	2823
814.551	2823
814.692	2895
814.833	2819
814.974	2902
815.115	2941
815.256	2811
815.397	2838
815.539	2857
815.68	2788
815.821	2792
815.962	2960
816.103	2975
816.244	2899
816.385	2891
816.526	2952
816.666	2933
816.807	2750
816.948	2872
817.089	2918
817.23	2819
817.371	2773
817.512	2792
817.653	2815
817.793	2849
817.934	2872
818.075	2960
818.216	2967
818.356	3062
818.497	2853
818.638	2758
818.778	2830
818.919	2800
819.06	2735
819.2	2849
819.341	2792
819.481	2815
819.622	2952
819.762	3055
819.903	3062
820.043	2925
820.184	2937
820.324	2895
820.465	3001
820.605	3005
820.746	3028
820.886	2937
821.026	3142
821.167	3097
821.307	3256
821.447	3294
821.588	3241
821.728	3180
821.868	3180
822.008	3085
822.149	3199
822.289	3226
822.429	3093
822.569	3085
822.709	3161
822.849	3024
822.99	3066
823.13	3142
823.27	3222
823.41	3055
823.55	3169
823.69	3150
823.83	3184
823.97	3131
824.11	3005
824.25	2982
824.389	3043
824.529	3135
824.669	3058
824.809	3207
824.949	3268
825.089	3203
825.228	3161
825.368	3036
825.508	2963
825.648	2929
825.787	2994
825.927	3020
826.067	2956
826.206	2986
826.346	3039
826.485	3116
826.625	3104
826.765	3241
826.904	3207
827.044	2990
827.183	2933
827.323	2857
827.462	2967
827.601	2918
827.741	2906
827.88	2963
828.02	2883
828.159	2956
828.298	3062
828.437	3100
828.577	3047
828.716	3256
828.855	3097
828.994	2918
829.134	2872
829.273	2925
829.412	2906
829.551	2883
829.69	2902
829.829	2982
829.968	3135
830.107	2990
830.246	3017
830.385	2952
830.524	2853
830.663	2853
830.802	2746
830.941	2648
831.08	2659
831.219	2758
831.357	2746
831.496	2944
831.635	2716
831.774	2632
831.913	2629
832.051	2537
832.19	2537
832.329	2678
832.467	2518
832.606	2495
832.744	2568
832.883	2606
833.022	2587
833.16	2625
833.299	2701
833.437	2716
833.576	2678
833.714	2727
833.852	2716
833.991	2769
834.129	2807
834.267	2823
834.406	2777
834.544	2883
834.682	2861
834.821	2864
834.959	3032
835.097	2895
835.235	3047
835.373	2990
835.511	3036
835.65	2967
835.788	2982
835.926	2834
836.064	2792
836.202	2845
836.34	3070
836.478	3142
836.615	3020
836.753	3127
836.891	3207
837.029	3146
837.167	3089
837.305	3017
837.443	3058
837.58	2918
837.718	3146
837.856	3039
837.993	3009
838.131	3138
838.269	3081
838.406	3112
838.544	3077
838.681	2952
838.819	2887
838.956	2811
839.094	2864
839.231	2895
839.369	2986
839.506	3344
839.643	3184
839.781	3043
839.918	2963
840.055	3020
840.193	3017
840.33	3077
840.467	3116
840.604	3146
840.742	3378
840.879	3036
841.016	3058
841.153	3089
841.29	3355
841.427	3287
841.564	3294
841.701	3272
841.838	3233
841.975	3131
842.112	3195
842.249	3051
842.385	3017
842.522	3275
842.659	3097
842.796	3066
842.933	3051
843.069	3017
843.206	3043
843.343	3169
843.479	3097
843.616	3157
843.752	2922
843.889	2838
844.025	3066
844.162	2883
844.298	3077
844.435	2944
844.571	2891
844.708	3085
844.844	3199
844.98	3268
845.117	3180
845.253	3024
845.389	2990
845.525	3093
845.661	3081
845.798	2979
845.934	3119
846.07	3028
846.206	3230
846.342	3313
846.478	3226
846.614	3062
846.75	3036
846.886	3005
847.022	3260
847.158	3104
847.294	3199
847.429	3241
847.565	3188
847.701	3469
847.837	3020
847.972	3047
848.108	3192
848.244	3150
848.379	2986
848.515	2922
848.65	2925
848.786	2960
848.921	2960
849.057	3112
849.192	3142
849.328	3032
849.463	3081
849.598	3032
849.734	3032
849.869	2952
850.004	2929
850.14	2979
850.275	2891
850.41	2834
850.545	2883
850.68	2929
850.815	2960
850.95	2994
851.085	3192
851.22	3108
851.355	3024
851.49	2994
851.625	3017
851.76	3013
851.895	2971
852.03	2902
852.165	3055
852.299	3127
852.434	3176
852.569	3192
852.703	3142
852.838	3237
852.973	3313
853.107	3321
853.242	3135
853.376	3077
853.511	2990
853.645	3013
853.78	3233
853.914	3131
854.048	3112
854.183	3077
854.317	3123
854.451	3268
854.585	3131
854.72	3058
854.854	3180
854.988	3077
855.122	3077
855.256	2982
855.39	3097
855.524	3264
855.658	3165
855.792	3127
855.926	3184
856.06	3207
856.194	3222
856.327	3116
856.461	3055
856.595	3074
856.729	3100
856.862	3161
856.996	3150
857.13	3169
857.263	3226
857.397	3272
857.53	3119
857.664	3203
857.797	3218
857.931	3256
858.064	3135
858.197	3203
858.331	3108
858.464	3089
858.597	2982
858.731	3100
858.864	3097
858.997	3085
859.13	3150
859.263	3169
859.396	3176
859.529	3051
859.662	3062
859.795	3036
859.928	3161
860.061	3310
860.194	3279
860.327	3097
860.46	3112
860.592	3192
860.725	3230
860.858	3298
860.99	3051
861.123	3055
861.256	3036
861.388	3154
861.521	3740
861.653	2986
861.786	2990
861.918	3017
862.05	3074
862.183	3066
862.315	3142
862.447	3184
862.58	3043
862.712	2933
862.844	2876
862.976	3039
863.108	3028
863.24	3332
863.372	2899
863.504	2963
863.636	2956
863.768	3001
863.9	2998
864.032	2906
864.164	2929
864.296	3017
864.428	3081
864.559	3112
864.691	3055
864.823	3066
864.954	3013
865.086	3055
865.217	3024
865.349	2960
865.48	2998
865.612	3009
865.743	3108
865.875	2975
866.006	2948
866.137	2960
866.269	2956
866.4	2891
866.531	2929
866.662	2899
866.793	2895
866.924	2937
867.055	2944
867.186	2868
867.317	2857
867.448	2857
867.579	2849
867.71	2845
867.841	2811
867.972	2906
868.103	2906
868.233	2876
868.364	2849
868.495	2918
868.625	3055
868.756	3173
868.886	2960
869.017	3013
869.147	3184
869.278	3150
869.408	3024
869.539	2998
869.669	3093
869.799	3051
869.929	3154
870.06	3138
870.19	3294
870.32	3233
870.45	3321
870.58	3416
870.71	3435
870.84	3439
870.97	3283
871.1	3226
871.23	3488
871.36	3466
871.489	3332
871.619	3382
871.749	3428
871.879	3443
872.008	3488
872.138	3332
872.267	3268
872.397	3085
872.526	3108
872.656	2982
872.785	3097
872.915	3214
873.044	3310
873.173	3207
873.303	3291
873.432	3260
873.561	3256
873.69	3165
873.819	3127
873.948	3184
874.077	3116
874.206	3036
874.335	3070
874.464	3214
874.593	3363
874.722	3226
874.851	3378
874.979	3329
875.108	3294
875.237	3192
875.365	3142
875.494	3176
875.623	3211
875.751	3074
875.88	3150
876.008	3169
876.136	3264
876.265	3355
876.393	3481
876.521	3435
876.65	3374
876.778	3359
876.906	3237
877.034	3169
877.162	3233
877.29	3157
877.418	3272
877.546	3260
877.674	3214
877.802	3203
877.93	3230
878.058	3074
878.185	3100
878.313	3192
878.441	3195
878.568	3032
878.696	3123
878.824	3241
878.951	3264
879.079	3439
879.206	3625
879.333	3431
879.461	3321
879.588	3359
879.715	3519
879.842	3580
879.97	3409
880.097	3146
880.224	3150
880.351	3195
880.478	3222
880.605	3214
880.732	3180
880.859	3485
880.986	3298
881.112	3279
881.239	3161
881.366	3112
881.493	3077
881.619	2998
881.746	3070
881.872	3081
881.999	3077
882.125	3123
882.252	3264
882.378	3310
882.505	3431
882.631	3245
882.757	3119
882.883	3207
883.01	3245
883.136	3165
883.262	3104
883.388	3089
883.514	3325
883.64	3370
883.766	3329
883.892	3180
884.018	3230
884.143	3405
884.269	3519
884.395	3195
884.52	3146
884.646	3154
884.772	3093
884.897	3089
885.023	3203
885.148	3279
885.274	3378
885.399	3336
885.524	3275
885.65	3226
885.775	3329
885.9	3302
886.025	3405
886.15	3340
886.275	3294
886.4	3245
886.525	3294
886.65	3287
886.775	3310
886.9	3553
887.025	3629
887.149	3454
887.274	3214
887.399	3165
887.523	3207
887.648	3203
887.773	3173
887.897	3359
888.021	3409
888.146	3253
888.27	3450
888.395	3534
888.519	3431
888.643	3424
888.767	3458
888.891	3306
889.015	3211
889.139	3317
889.263	3241
889.387	3359
889.511	3515
889.635	3435
889.759	3313
889.883	3260
890.006	3355
890.13	3496
890.254	3272
890.377	3340
890.501	3195
890.624	3195
890.748	3268
890.871	3138
890.995	3138
891.118	3043
891.241	3157
891.364	3230
891.488	3317
891.611	3161
891.734	3268
891.857	3287
891.98	3214
892.103	3302
892.226	3256
892.349	3180
892.471	3142
892.594	3222
892.717	3317
892.839	3256
892.962	3313
893.085	3344
893.207	3272
893.33	3123
893.452	3222
893.575	3351
893.697	3233
893.819	3469
893.941	3481
894.064	3439
894.186	3279
894.308	3226
894.43	3462
894.552	3568
894.674	3424
894.796	3291
894.918	3306
895.04	3298
895.161	3393
895.283	3374
895.405	3283
895.526	3351
895.648	3386
895.769	3409
895.891	3477
896.012	3496
896.134	3435
896.255	3386
896.376	3355
896.498	3351
896.619	3412
896.74	3355
896.861	3351
896.982	3663
897.103	3869
897.224	3576
897.345	3523
897.466	3382
897.587	3507
897.708	3644
897.828	3488
897.949	3412
898.07	3317
898.19	3401
898.311	3561
898.431	3477
898.552	3504
898.672	3545
898.792	3599
898.913	3462
899.033	3420
899.153	3310
899.273	3207
899.393	3294
899.513	3291
899.633	3291
899.753	3344
899.873	3302
899.993	3340
900.113	3363
900.232	3439
900.352	3336
900.472	3306
900.591	3165
900.711	3249
900.83	3230
900.95	3393
901.069	3504
901.189	3332
901.308	3165
901.427	3142
901.546	3173
901.665	3294
901.784	3302
901.904	3199
902.023	3138
902.141	3001
902.26	3013
902.379	3131
902.498	3100
902.617	3055
902.735	3222
902.854	3237
902.973	3176
903.091	3055
903.21	3055
903.328	3097
903.446	3150
903.565	3112
903.683	3184
903.801	3176
903.919	3203
904.038	3279
904.156	3184
904.274	3298
904.392	3256
904.51	3294
904.627	3336
904.745	3443
904.863	3488
904.981	3264
905.098	3150
905.216	3222
905.334	3313
905.451	3302
905.569	3275
905.686	3424
905.803	3416
905.921	3245
906.038	3466
906.155	3355
906.272	3279
906.389	3359
906.506	3211
906.623	3253
906.74	3256
906.857	3157
906.974	3245
907.091	3420
907.208	3534
907.324	3496
907.441	3367
907.557	3199
907.674	3214
907.79	3169
907.907	3260
908.023	3389
908.139	3378
908.256	3310
908.372	3386
908.488	3359
908.604	3287
908.72	3203
908.836	3264
908.952	3272
909.068	3351
909.184	3435
909.3	3401
909.415	3504
909.531	3473
909.647	3256
909.762	3329
909.878	3272
909.993	3332
910.108	3340
910.224	3332
910.339	3439
910.454	3329
910.57	3294
910.685	3256
910.8	3606
910.915	3553
911.03	3450
911.145	3241
911.259	3256
911.374	3268
911.489	3233
911.604	3211
911.718	3138
911.833	3135
911.947	3028
912.062	2990
912.176	3138
912.291	3188
912.405	3199
912.519	3454
912.633	3458
912.748	3363
912.862	3241
912.976	3157
913.09	3058
913.204	3154
913.318	3211
913.431	3317
913.545	3336
913.659	3393
913.772	3359
913.886	3207
914	3203
914.113	3351
914.226	3378
914.34	3355
914.453	3237
914.566	3355
914.68	3264
914.793	3321
914.906	3104
915.019	3089
915.132	3043
915.245	3176
915.358	3203
915.47	3268
915.583	3283
915.696	3294
915.809	3382
915.921	3401
916.034	3264
916.146	3233
916.259	3214
916.371	3397
916.483	3348
916.595	3256
916.708	3348
916.82	3310
916.932	3359
917.044	3351
917.156	3336
917.268	3256
917.38	3275
917.491	3317
917.603	3378
917.715	3443
917.826	3450
917.938	3386
918.049	3302
918.161	3416
918.272	3549
918.384	3610
918.495	3458
918.606	3351
918.717	3291
918.828	3401
918.939	3405
919.05	3291
919.161	3416
919.272	3165
919.383	3298
919.494	3492
919.604	3644
919.715	3496
919.826	3405
919.936	3481
920.047	3561
920.157	3500
920.267	3800
920.378	3603
920.488	3576
920.598	3781
920.708	3968
920.818	3800
920.928	3861
921.038	3994
921.148	4006
921.258	3732
921.368	3599
921.477	3610
921.587	3523
921.697	3439
921.806	3644
921.916	3526
922.025	3378
922.134	3336
922.244	3317
922.353	3424
922.462	3294
922.571	3222
922.68	3089
922.789	3074
922.898	3123
923.007	3104
923.116	3260
923.224	3154
923.333	3195
923.442	3131
923.55	3108
923.659	3142
923.767	3218
923.876	3150
923.984	3241
924.092	3097
924.201	3207
924.309	3222
924.417	3249
924.525	3207
924.633	3268
924.741	3998
924.849	3070
924.956	3241
925.064	3104
925.172	3047
925.279	3055
925.387	3161
925.494	3211
925.602	3378
925.709	3332
925.816	3184
925.924	3302
926.031	3374
926.138	3306
926.245	3374
926.352	3226
926.459	3409
926.566	3469
926.673	3313
926.779	3237
926.886	3226
926.993	3199
927.099	3154
927.206	3093
927.312	3104
927.419	3214
927.525	3214
927.631	3218
927.737	3081
927.843	3093
927.95	3005
928.056	3146
928.162	3157
928.267	3268
928.373	3880
928.479	3302
928.585	3047
928.69	3203
928.796	3272
928.901	3176
929.007	3009
929.112	3211
929.218	3176
929.323	3150
929.428	3142
929.533	3298
929.638	3085
929.743	3176
929.848	3256
929.953	3207
930.058	3135
930.163	3009
930.267	3047
930.372	3192
930.477	3062
930.581	3355
930.685	3165
930.79	3043
930.894	3135
930.998	3055
931.103	3272
931.207	2971
931.311	2960
931.415	2937
931.519	2766
931.623	2781
