Data from test_V78500241_238.txt Node
Date: Fri Mar 25 16:16:51 CST 2022
User: usil
Spectrometer: V785-0024
Trigger mode: 0
Integration Time (sec): 4.000000E-1
Scans to average: 1
Nonlinearity correction enabled: false
Boxcar width: 0
Storing dark spectrum: false
XAxis mode: Wavelengths
Number of Pixels in Spectrum: 1024
>>>>>Begin Spectral Data<<<<<
801.071	2929
801.214	2982
801.356	2864
801.499	2914
801.641	2899
801.783	2918
801.926	3017
802.068	2982
802.211	3036
802.353	3013
802.496	2963
802.638	3024
802.78	3032
802.923	3043
803.065	3036
803.208	2906
803.35	2914
803.492	2925
803.635	2914
803.777	2785
803.919	2887
804.061	3203
804.204	2967
804.346	2914
804.488	2838
804.63	2986
804.773	2842
804.915	2918
805.057	3058
805.199	2933
805.341	2979
805.483	3051
805.626	3028
805.768	2990
805.91	3074
806.052	3135
806.194	3009
806.336	3253
806.478	3028
806.62	2929
806.762	2963
806.904	3043
807.046	3184
807.188	3009
807.33	2944
807.472	2998
807.614	2902
807.756	3001
807.898	2933
808.04	2887
808.182	2960
808.324	2914
808.465	2887
808.607	2864
808.749	2800
808.891	2868
809.033	2982
809.174	3005
809.316	2891
809.458	2895
809.6	2785
809.741	2762
809.883	2769
810.025	2830
810.166	2864
810.308	2815
810.45	2853
810.591	2785
810.733	2773
810.875	2868
811.016	2773
811.158	2750
811.299	2811
811.441	2902
811.582	2902
811.724	2815
811.865	2834
812.007	2902
812.148	2876
812.29	2857
812.431	2891
812.573	2952
812.714	2979
812.855	3081
812.997	3036
813.138	3127
813.279	3013
813.421	2971
813.562	2941
813.703	2876
813.845	2910
813.986	2800
814.127	2705
814.268	2845
814.41	2826
814.551	2811
814.692	2857
814.833	2807
814.974	2872
815.115	2910
815.256	2861
815.397	2785
815.539	2861
815.68	2796
815.821	2792
815.962	2941
816.103	2902
816.244	2876
816.385	2849
816.526	2971
816.666	2941
816.807	2697
816.948	2864
817.089	2910
817.23	2880
817.371	2773
817.512	2811
817.653	2819
817.793	2838
817.934	2872
818.075	2948
818.216	2998
818.356	3028
818.497	2918
818.638	2796
818.778	2823
818.919	2788
819.06	2739
819.2	2887
819.341	2804
819.481	2815
819.622	2895
819.762	3093
819.903	3100
820.043	2948
820.184	2918
820.324	2883
820.465	3028
820.605	3024
820.746	3020
820.886	2933
821.026	3104
821.167	3203
821.307	3230
821.447	3294
821.588	3256
821.728	3195
821.868	3154
822.008	3085
822.149	3203
822.289	3169
822.429	3093
822.569	3062
822.709	3165
822.849	3032
822.99	3051
823.13	3184
823.27	3203
823.41	3123
823.55	3138
823.69	3161
823.83	3195
823.97	3081
824.11	3047
824.25	3013
824.389	3081
824.529	3127
824.669	3081
824.809	3199
824.949	3214
825.089	3230
825.228	3180
825.368	2979
825.508	2944
825.648	2979
825.787	3013
825.927	2994
826.067	2979
826.206	2948
826.346	3047
826.485	3058
826.625	3104
826.765	3245
826.904	3256
827.044	3017
827.183	2925
827.323	2853
827.462	3020
827.601	2925
827.741	2933
827.88	2944
828.02	2853
828.159	2990
828.298	3051
828.437	3093
828.577	3043
828.716	3237
828.855	3020
828.994	2929
829.134	2902
829.273	2941
829.412	2853
829.551	2868
829.69	2906
829.829	3017
829.968	3142
830.107	3032
830.246	2998
830.385	2880
830.524	2868
830.663	2826
830.802	2735
830.941	2682
831.08	2625
831.219	2754
831.357	2769
831.496	2971
831.635	2720
831.774	2670
831.913	2674
832.051	2511
832.19	2568
832.329	2708
832.467	2541
832.606	2507
832.744	2594
832.883	2617
833.022	2598
833.16	2648
833.299	2686
833.437	2724
833.576	2670
833.714	2724
833.852	2739
833.991	2800
834.129	2838
834.267	2826
834.406	2792
834.544	2861
834.682	2876
834.821	2853
834.959	3051
835.097	2861
835.235	3039
835.373	2990
835.511	3001
835.65	2948
835.788	2982
835.926	2838
836.064	2826
836.202	2853
836.34	3085
836.478	3161
836.615	3024
836.753	3131
836.891	3195
837.029	3123
837.167	3097
837.305	3077
837.443	3032
837.58	2960
837.718	3123
837.856	3070
837.993	3039
838.131	3131
838.269	3093
838.406	3081
838.544	3066
838.681	2944
838.819	2929
838.956	2853
839.094	2842
839.231	2910
839.369	3032
839.506	3367
839.643	3237
839.781	2994
839.918	2994
840.055	3055
840.193	3032
840.33	3055
840.467	3100
840.604	3146
840.742	3420
840.879	3077
841.016	3062
841.153	3108
841.29	3329
841.427	3294
841.564	3275
841.701	3294
841.838	3203
841.975	3157
842.112	3192
842.249	3066
842.385	3017
842.522	3283
842.659	3093
842.796	3104
842.933	3135
843.069	3032
843.206	3020
843.343	3165
843.479	3089
843.616	3146
843.752	2887
843.889	2849
844.025	3055
844.162	2845
844.298	3081
844.435	2967
844.571	2895
844.708	3062
844.844	3157
844.98	3256
845.117	3211
845.253	3081
845.389	2967
845.525	3089
845.661	3123
845.798	2998
845.934	3112
846.07	3055
846.206	3230
846.342	3332
846.478	3249
846.614	3108
846.75	3043
846.886	3001
847.022	3245
847.158	3138
847.294	3199
847.429	3245
847.565	3233
847.701	3515
847.837	3028
847.972	2990
848.108	3157
848.244	3173
848.379	2998
848.515	2956
848.65	2925
848.786	2967
848.921	3017
849.057	3070
849.192	3135
849.328	3058
849.463	3119
849.598	3074
849.734	3043
849.869	2982
850.004	2929
850.14	2952
850.275	2906
850.41	2838
850.545	2918
850.68	2944
850.815	2944
850.95	2948
851.085	3138
851.22	3127
851.355	3028
851.49	2990
851.625	2960
851.76	2986
851.895	2906
852.03	2922
852.165	3032
852.299	3150
852.434	3184
852.569	3146
852.703	3138
852.838	3256
852.973	3310
853.107	3344
853.242	3169
853.376	3116
853.511	2998
853.645	3077
853.78	3222
853.914	3097
854.048	3055
854.183	3104
854.317	3184
854.451	3291
854.585	3116
854.72	3097
854.854	3199
854.988	3039
855.122	3058
855.256	2933
855.39	3085
855.524	3218
855.658	3192
855.792	3157
855.926	3173
856.06	3199
856.194	3253
856.327	3169
856.461	3062
856.595	3081
856.729	3085
856.862	3214
856.996	3165
857.13	3192
857.263	3188
857.397	3283
857.53	3161
857.664	3199
857.797	3237
857.931	3264
858.064	3195
858.197	3173
858.331	3127
858.464	3077
858.597	3005
858.731	3131
858.864	3123
858.997	3051
859.13	3138
859.263	3176
859.396	3203
859.529	3154
859.662	3055
859.795	3066
859.928	3131
860.061	3260
860.194	3302
860.327	3112
860.46	3085
860.592	3230
860.725	3233
860.858	3260
860.99	3119
861.123	3036
861.256	3013
861.388	3161
861.521	3846
861.653	3020
861.786	2952
861.918	2952
862.05	3066
862.183	3047
862.315	3108
862.447	3218
862.58	3081
862.712	2960
862.844	2876
862.976	3028
863.108	2994
863.24	3298
863.372	2838
863.504	2975
863.636	2929
863.768	3028
863.9	3009
864.032	2876
864.164	2902
864.296	2975
864.428	3047
864.559	3077
864.691	3066
864.823	3039
864.954	3043
865.086	3081
865.217	3009
865.349	2994
865.48	3005
865.612	3013
865.743	3165
865.875	2998
866.006	2963
866.137	2982
866.269	2941
866.4	2986
866.531	2891
866.662	2910
866.793	2925
866.924	2910
867.055	3005
867.186	2922
867.317	2910
867.448	2868
867.579	2880
867.71	2880
867.841	2845
867.972	2906
868.103	2941
868.233	2914
868.364	2906
868.495	2960
868.625	3112
868.756	3222
868.886	3028
869.017	3043
869.147	3211
869.278	3192
869.408	3097
869.539	3077
869.669	3138
869.799	3093
869.929	3192
870.06	3157
870.19	3348
870.32	3336
870.45	3363
870.58	3401
870.71	3504
870.84	3492
870.97	3340
871.1	3310
871.23	3519
871.36	3504
871.489	3409
871.619	3443
871.749	3458
871.879	3492
872.008	3538
872.138	3412
872.267	3340
872.397	3203
872.526	3123
872.656	3055
872.785	3142
872.915	3325
873.044	3344
873.173	3268
873.303	3275
873.432	3279
873.561	3306
873.69	3214
873.819	3214
873.948	3233
874.077	3100
874.206	3089
874.335	3119
874.464	3272
874.593	3370
874.722	3306
874.851	3424
874.979	3393
875.108	3374
875.237	3268
875.365	3195
875.494	3218
875.623	3272
875.751	3146
875.88	3207
876.008	3256
876.136	3233
876.265	3405
876.393	3576
876.521	3435
876.65	3424
876.778	3351
876.906	3291
877.034	3241
877.162	3264
877.29	3169
877.418	3302
877.546	3291
877.674	3336
877.802	3287
877.93	3268
878.058	3195
878.185	3131
878.313	3218
878.441	3249
878.568	3097
878.696	3203
878.824	3291
878.951	3332
879.079	3435
879.206	3663
879.333	3481
879.461	3363
879.588	3401
879.715	3511
879.842	3652
879.97	3401
880.097	3192
880.224	3146
880.351	3207
880.478	3283
880.605	3195
880.732	3214
880.859	3534
880.986	3298
881.112	3374
881.239	3256
881.366	3116
881.493	3058
881.619	3070
881.746	3074
881.872	3100
881.999	3138
882.125	3135
882.252	3279
882.378	3332
882.505	3473
882.631	3329
882.757	3195
882.883	3233
883.01	3256
883.136	3135
883.262	3112
883.388	3157
883.514	3348
883.64	3428
883.766	3302
883.892	3233
884.018	3264
884.143	3462
884.269	3584
884.395	3173
884.52	3230
884.646	3199
884.772	3173
884.897	3142
885.023	3256
885.148	3367
885.274	3447
885.399	3382
885.524	3348
885.65	3317
885.775	3302
885.9	3310
886.025	3473
886.15	3412
886.275	3329
886.4	3256
886.525	3351
886.65	3332
886.775	3332
886.9	3538
887.025	3682
887.149	3443
887.274	3294
887.399	3226
887.523	3287
887.648	3241
887.773	3237
887.897	3412
888.021	3450
888.146	3306
888.27	3473
888.395	3568
888.519	3492
888.643	3507
888.767	3515
888.891	3374
889.015	3306
889.139	3321
889.263	3272
889.387	3443
889.511	3564
889.635	3485
889.759	3302
889.883	3344
890.006	3393
890.13	3553
890.254	3325
890.377	3389
890.501	3245
890.624	3211
890.748	3344
890.871	3180
890.995	3176
891.118	3123
891.241	3256
891.364	3264
891.488	3359
891.611	3237
891.734	3253
891.857	3340
891.98	3268
892.103	3370
892.226	3340
892.349	3268
892.471	3135
892.594	3279
892.717	3340
892.839	3321
892.962	3329
893.085	3424
893.207	3344
893.33	3161
893.452	3230
893.575	3359
893.697	3283
893.819	3507
893.941	3519
894.064	3492
894.186	3336
894.308	3310
894.43	3447
894.552	3576
894.674	3507
894.796	3317
894.918	3313
895.04	3321
895.161	3488
895.283	3439
895.405	3351
895.526	3405
895.648	3435
895.769	3397
895.891	3462
896.012	3534
896.134	3511
896.255	3420
896.376	3416
896.498	3439
896.619	3447
896.74	3412
896.861	3439
896.982	3728
897.103	3865
897.224	3625
897.345	3557
897.466	3450
897.587	3507
897.708	3644
897.828	3629
897.949	3450
898.07	3382
898.19	3420
898.311	3656
898.431	3511
898.552	3549
898.672	3656
898.792	3614
898.913	3519
899.033	3409
899.153	3321
899.273	3226
899.393	3336
899.513	3355
899.633	3378
899.753	3351
899.873	3344
899.993	3397
900.113	3351
900.232	3435
900.352	3401
900.472	3317
900.591	3245
900.711	3302
900.83	3241
900.95	3424
901.069	3549
901.189	3389
901.308	3207
901.427	3165
901.546	3237
901.665	3268
901.784	3355
901.904	3249
902.023	3169
902.141	3066
902.26	3020
902.379	3184
902.498	3154
902.617	3108
902.735	3249
902.854	3279
902.973	3203
903.091	3074
903.21	3104
903.328	3195
903.446	3108
903.565	3142
903.683	3249
903.801	3157
903.919	3272
904.038	3348
904.156	3222
904.274	3310
904.392	3313
904.51	3321
904.627	3393
904.745	3447
904.863	3549
904.981	3291
905.098	3184
905.216	3253
905.334	3302
905.451	3313
905.569	3344
905.686	3477
905.803	3473
905.921	3306
906.038	3431
906.155	3374
906.272	3321
906.389	3374
906.506	3253
906.623	3332
906.74	3291
906.857	3233
906.974	3294
907.091	3488
907.208	3606
907.324	3511
907.441	3405
907.557	3245
907.674	3317
907.79	3226
907.907	3344
908.023	3370
908.139	3428
908.256	3367
908.372	3412
908.488	3367
908.604	3306
908.72	3279
908.836	3336
908.952	3306
909.068	3363
909.184	3523
909.3	3424
909.415	3523
909.531	3466
909.647	3287
909.762	3283
909.878	3302
909.993	3355
910.108	3359
910.224	3370
910.339	3412
910.454	3367
910.57	3325
910.685	3268
910.8	3595
910.915	3530
911.03	3473
911.145	3317
911.259	3313
911.374	3370
911.489	3283
911.604	3287
911.718	3146
911.833	3180
911.947	3077
912.062	3009
912.176	3218
912.291	3233
912.405	3233
912.519	3447
912.633	3511
912.748	3382
912.862	3313
912.976	3226
913.09	3100
913.204	3146
913.318	3230
913.431	3405
913.545	3378
913.659	3431
913.772	3382
913.886	3260
914	3214
914.113	3355
914.226	3466
914.34	3382
914.453	3268
914.566	3450
914.68	3298
914.793	3332
914.906	3192
915.019	3131
915.132	3108
915.245	3218
915.358	3230
915.47	3310
915.583	3291
915.696	3313
915.809	3428
915.921	3431
916.034	3275
916.146	3302
916.259	3241
916.371	3435
916.483	3405
916.595	3321
916.708	3348
916.82	3325
916.932	3370
917.044	3382
917.156	3359
917.268	3279
917.38	3313
917.491	3287
917.603	3382
917.715	3462
917.826	3485
917.938	3397
918.049	3260
918.161	3458
918.272	3587
918.384	3599
918.495	3515
918.606	3370
918.717	3294
918.828	3405
918.939	3469
919.05	3313
919.161	3363
919.272	3203
919.383	3325
919.494	3515
919.604	3675
919.715	3496
919.826	3443
919.936	3511
920.047	3618
920.157	3595
920.267	3778
920.378	3610
920.488	3580
920.598	3804
920.708	3975
920.818	3846
920.928	3876
921.038	4074
921.148	4040
921.258	3698
921.368	3671
921.477	3603
921.587	3572
921.697	3458
921.806	3671
921.916	3576
922.025	3370
922.134	3428
922.244	3359
922.353	3492
922.462	3291
922.571	3275
922.68	3127
922.789	3100
922.898	3123
923.007	3135
923.116	3214
923.224	3203
923.333	3237
923.442	3157
923.55	3127
923.659	3165
923.767	3222
923.876	3142
923.984	3275
924.092	3108
924.201	3211
924.309	3245
924.417	3230
924.525	3230
924.633	3264
924.741	4173
924.849	3093
924.956	3279
925.064	3157
925.172	3051
925.279	3104
925.387	3214
925.494	3253
925.602	3382
925.709	3332
925.816	3214
925.924	3294
926.031	3397
926.138	3321
926.245	3367
926.352	3275
926.459	3424
926.566	3504
926.673	3367
926.779	3241
926.886	3241
926.993	3180
927.099	3188
927.206	3108
927.312	3131
927.419	3222
927.525	3211
927.631	3291
927.737	3165
927.843	3154
927.95	3058
928.056	3161
928.162	3203
928.267	3241
928.373	3918
928.479	3359
928.585	3097
928.69	3218
928.796	3294
928.901	3165
929.007	3062
929.112	3245
929.218	3211
929.323	3192
929.428	3176
929.533	3378
929.638	3131
929.743	3180
929.848	3275
929.953	3184
930.058	3161
930.163	3036
930.267	3077
930.372	3214
930.477	3032
930.581	3317
930.685	3199
930.79	3108
930.894	3131
930.998	3104
931.103	3283
931.207	2979
931.311	2967
931.415	2963
931.519	2769
931.623	2834
