Data from test_V78500241_223.txt Node
Date: Fri Mar 25 16:16:44 CST 2022
User: usil
Spectrometer: V785-0024
Trigger mode: 0
Integration Time (sec): 4.000000E-1
Scans to average: 1
Nonlinearity correction enabled: false
Boxcar width: 0
Storing dark spectrum: false
XAxis mode: Wavelengths
Number of Pixels in Spectrum: 1024
>>>>>Begin Spectral Data<<<<<
801.071	2982
801.214	2967
801.356	2876
801.499	2880
801.641	2887
801.783	2960
801.926	3058
802.068	2956
802.211	3001
802.353	3036
802.496	2952
802.638	3036
802.78	3013
802.923	3081
803.065	2990
803.208	2902
803.35	2906
803.492	2929
803.635	2948
803.777	2754
803.919	2883
804.061	3169
804.204	2948
804.346	2910
804.488	2857
804.63	2982
804.773	2922
804.915	2891
805.057	3051
805.199	2925
805.341	2971
805.483	3074
805.626	3009
805.768	2982
805.91	3089
806.052	3157
806.194	3051
806.336	3275
806.478	3024
806.62	2948
806.762	2994
806.904	3089
807.046	3195
807.188	2952
807.33	2918
807.472	2994
807.614	2956
807.756	2982
807.898	2937
808.04	2914
808.182	2998
808.324	2922
808.465	2868
808.607	2883
808.749	2842
808.891	2864
809.033	2975
809.174	2982
809.316	2891
809.458	2906
809.6	2762
809.741	2769
809.883	2792
810.025	2826
810.166	2872
810.308	2826
810.45	2823
810.591	2773
810.733	2743
810.875	2838
811.016	2792
811.158	2758
811.299	2845
811.441	2887
811.582	2902
811.724	2857
811.865	2853
812.007	2922
812.148	2906
812.29	2876
812.431	2895
812.573	2929
812.714	2979
812.855	3055
812.997	3020
813.138	3138
813.279	3047
813.421	3013
813.562	2960
813.703	2906
813.845	2918
813.986	2777
814.127	2701
814.268	2788
814.41	2842
814.551	2823
814.692	2899
814.833	2823
814.974	2883
815.115	2986
815.256	2853
815.397	2792
815.539	2845
815.68	2769
815.821	2781
815.962	2944
816.103	2963
816.244	2880
816.385	2872
816.526	2982
816.666	2933
816.807	2754
816.948	2883
817.089	2944
817.23	2849
817.371	2807
817.512	2823
817.653	2868
817.793	2811
817.934	2883
818.075	2982
818.216	3017
818.356	3013
818.497	2845
818.638	2800
818.778	2857
818.919	2788
819.06	2754
819.2	2895
819.341	2834
819.481	2773
819.622	2944
819.762	3108
819.903	3013
820.043	2902
820.184	2876
820.324	2899
820.465	3013
820.605	3017
820.746	3051
820.886	2960
821.026	3085
821.167	3188
821.307	3253
821.447	3298
821.588	3249
821.728	3230
821.868	3169
822.008	3077
822.149	3188
822.289	3218
822.429	3043
822.569	3097
822.709	3176
822.849	3028
822.99	3066
823.13	3169
823.27	3192
823.41	3089
823.55	3180
823.69	3169
823.83	3188
823.97	3089
824.11	3005
824.25	3020
824.389	3047
824.529	3154
824.669	3047
824.809	3195
824.949	3264
825.089	3222
825.228	3154
825.368	3024
825.508	2956
825.648	2979
825.787	3032
825.927	3024
826.067	2975
826.206	2948
826.346	3058
826.485	3062
826.625	3135
826.765	3237
826.904	3184
827.044	2986
827.183	2948
827.323	2872
827.462	2982
827.601	2880
827.741	2933
827.88	2941
828.02	2876
828.159	2967
828.298	3036
828.437	3093
828.577	3039
828.716	3249
828.855	3062
828.994	2922
829.134	2861
829.273	2925
829.412	2883
829.551	2906
829.69	2876
829.829	2979
829.968	3142
830.107	3047
830.246	3036
830.385	2937
830.524	2895
830.663	2842
830.802	2731
830.941	2663
831.08	2632
831.219	2792
831.357	2773
831.496	2948
831.635	2754
831.774	2670
831.913	2655
832.051	2537
832.19	2579
832.329	2697
832.467	2526
832.606	2495
832.744	2613
832.883	2610
833.022	2598
833.16	2678
833.299	2708
833.437	2724
833.576	2644
833.714	2705
833.852	2724
833.991	2815
834.129	2853
834.267	2845
834.406	2781
834.544	2876
834.682	2876
834.821	2845
834.959	3043
835.097	2868
835.235	3055
835.373	3001
835.511	3005
835.65	2944
835.788	2960
835.926	2823
836.064	2788
836.202	2887
836.34	3123
836.478	3100
836.615	3058
836.753	3089
836.891	3218
837.029	3161
837.167	3108
837.305	3085
837.443	3039
837.58	2979
837.718	3116
837.856	3058
837.993	3032
838.131	3142
838.269	3142
838.406	3089
838.544	3119
838.681	2944
838.819	2937
838.956	2819
839.094	2826
839.231	2956
839.369	3009
839.506	3416
839.643	3226
839.781	2990
839.918	2933
840.055	3036
840.193	3024
840.33	3066
840.467	3081
840.604	3154
840.742	3405
840.879	3036
841.016	3062
841.153	3131
841.29	3348
841.427	3317
841.564	3306
841.701	3287
841.838	3218
841.975	3176
842.112	3214
842.249	3070
842.385	3051
842.522	3249
842.659	3039
842.796	3066
842.933	3074
843.069	3058
843.206	3043
843.343	3192
843.479	3154
843.616	3127
843.752	2895
843.889	2845
844.025	3089
844.162	2849
844.298	3093
844.435	2937
844.571	2899
844.708	3062
844.844	3180
844.98	3226
845.117	3199
845.253	3058
845.389	2986
845.525	3112
845.661	3097
845.798	3024
845.934	3066
846.07	3093
846.206	3211
846.342	3351
846.478	3222
846.614	3055
846.75	3085
846.886	3028
847.022	3211
847.158	3135
847.294	3199
847.429	3230
847.565	3203
847.701	3466
847.837	3001
847.972	3032
848.108	3150
848.244	3184
848.379	2998
848.515	2986
848.65	2929
848.786	2944
848.921	3013
849.057	3112
849.192	3116
849.328	3074
849.463	3112
849.598	3104
849.734	3009
849.869	2960
850.004	2933
850.14	3005
850.275	2883
850.41	2811
850.545	2880
850.68	2941
850.815	2990
850.95	2967
851.085	3207
851.22	3104
851.355	3043
851.49	2994
851.625	3005
851.76	3028
851.895	2933
852.03	2922
852.165	3051
852.299	3108
852.434	3233
852.569	3135
852.703	3188
852.838	3275
852.973	3317
853.107	3351
853.242	3157
853.376	3085
853.511	2982
853.645	3039
853.78	3253
853.914	3131
854.048	3123
854.183	3066
854.317	3135
854.451	3298
854.585	3142
854.72	3108
854.854	3195
854.988	3077
855.122	3104
855.256	2998
855.39	3100
855.524	3264
855.658	3180
855.792	3165
855.926	3184
856.06	3230
856.194	3283
856.327	3157
856.461	3100
856.595	3093
856.729	3077
856.862	3245
856.996	3192
857.13	3199
857.263	3249
857.397	3283
857.53	3131
857.664	3207
857.797	3253
857.931	3230
858.064	3188
858.197	3230
858.331	3119
858.464	3085
858.597	3001
858.731	3104
858.864	3161
858.997	3100
859.13	3180
859.263	3157
859.396	3199
859.529	3093
859.662	3058
859.795	3009
859.928	3154
860.061	3302
860.194	3310
860.327	3150
860.46	3085
860.592	3222
860.725	3241
860.858	3272
860.99	3108
861.123	3055
861.256	3074
861.388	3142
861.521	3911
861.653	3062
861.786	2948
861.918	2986
862.05	3093
862.183	3100
862.315	3123
862.447	3184
862.58	3089
862.712	2910
862.844	2857
862.976	3024
863.108	2994
863.24	3336
863.372	2868
863.504	3032
863.636	2918
863.768	3024
863.9	2963
864.032	2929
864.164	2925
864.296	2982
864.428	3142
864.559	3100
864.691	3070
864.823	3070
864.954	3017
865.086	3058
865.217	2982
865.349	2963
865.48	2986
865.612	3039
865.743	3135
865.875	2986
866.006	2941
866.137	2967
866.269	2937
866.4	2914
866.531	2918
866.662	2883
866.793	2887
866.924	2914
867.055	2963
867.186	2952
867.317	2887
867.448	2838
867.579	2845
867.71	2830
867.841	2845
867.972	2857
868.103	2918
868.233	2895
868.364	2899
868.495	2872
868.625	3104
868.756	3199
868.886	2948
869.017	3051
869.147	3161
869.278	3150
869.408	3036
869.539	3039
869.669	3127
869.799	3043
869.929	3138
870.06	3081
870.19	3344
870.32	3298
870.45	3344
870.58	3363
870.71	3454
870.84	3462
870.97	3310
871.1	3291
871.23	3500
871.36	3420
871.489	3370
871.619	3393
871.749	3378
871.879	3420
872.008	3485
872.138	3382
872.267	3291
872.397	3097
872.526	3100
872.656	3001
872.785	3100
872.915	3230
873.044	3310
873.173	3222
873.303	3237
873.432	3222
873.561	3214
873.69	3142
873.819	3157
873.948	3287
874.077	3093
874.206	3043
874.335	3074
874.464	3211
874.593	3355
874.722	3268
874.851	3397
874.979	3310
875.108	3306
875.237	3214
875.365	3165
875.494	3176
875.623	3249
875.751	3100
875.88	3131
876.008	3192
876.136	3184
876.265	3386
876.393	3504
876.521	3431
876.65	3416
876.778	3355
876.906	3275
877.034	3195
877.162	3230
877.29	3154
877.418	3253
877.546	3264
877.674	3268
877.802	3211
877.93	3233
878.058	3165
878.185	3150
878.313	3203
878.441	3222
878.568	3062
878.696	3180
878.824	3195
878.951	3317
879.079	3420
879.206	3629
879.333	3405
879.461	3306
879.588	3428
879.715	3469
879.842	3576
879.97	3374
880.097	3161
880.224	3104
880.351	3195
880.478	3157
880.605	3184
880.732	3161
880.859	3496
880.986	3348
881.112	3348
881.239	3184
881.366	3089
881.493	3036
881.619	2971
881.746	3058
881.872	3077
881.999	3108
882.125	3146
882.252	3214
882.378	3279
882.505	3416
882.631	3283
882.757	3146
882.883	3230
883.01	3222
883.136	3150
883.262	3104
883.388	3108
883.514	3310
883.64	3351
883.766	3287
883.892	3169
884.018	3245
884.143	3416
884.269	3557
884.395	3199
884.52	3157
884.646	3173
884.772	3138
884.897	3116
885.023	3218
885.148	3329
885.274	3454
885.399	3355
885.524	3283
885.65	3272
885.775	3374
885.9	3283
886.025	3443
886.15	3329
886.275	3310
886.4	3233
886.525	3321
886.65	3283
886.775	3306
886.9	3515
887.025	3633
887.149	3458
887.274	3253
887.399	3199
887.523	3218
887.648	3211
887.773	3230
887.897	3428
888.021	3435
888.146	3272
888.27	3454
888.395	3526
888.519	3481
888.643	3458
888.767	3481
888.891	3351
889.015	3260
889.139	3325
889.263	3275
889.387	3443
889.511	3549
889.635	3504
889.759	3313
889.883	3332
890.006	3405
890.13	3534
890.254	3378
890.377	3405
890.501	3230
890.624	3253
890.748	3344
890.871	3241
890.995	3146
891.118	3138
891.241	3237
891.364	3268
891.488	3367
891.611	3241
891.734	3249
891.857	3313
891.98	3310
892.103	3389
892.226	3344
892.349	3287
892.471	3161
892.594	3260
892.717	3344
892.839	3329
892.962	3313
893.085	3412
893.207	3386
893.33	3230
893.452	3279
893.575	3439
893.697	3298
893.819	3496
893.941	3553
894.064	3519
894.186	3310
894.308	3302
894.43	3473
894.552	3584
894.674	3515
894.796	3332
894.918	3367
895.04	3302
895.161	3473
895.283	3458
895.405	3340
895.526	3424
895.648	3473
895.769	3466
895.891	3500
896.012	3523
896.134	3515
896.255	3447
896.376	3424
896.498	3367
896.619	3492
896.74	3466
896.861	3462
896.982	3705
897.103	3899
897.224	3667
897.345	3576
897.466	3492
897.587	3526
897.708	3671
897.828	3584
897.949	3488
898.07	3405
898.19	3450
898.311	3648
898.431	3492
898.552	3557
898.672	3694
898.792	3663
898.913	3564
899.033	3462
899.153	3389
899.273	3272
899.393	3348
899.513	3306
899.633	3389
899.753	3416
899.873	3355
899.993	3424
900.113	3355
900.232	3435
900.352	3340
900.472	3340
900.591	3310
900.711	3344
900.83	3279
900.95	3458
901.069	3526
901.189	3412
901.308	3203
901.427	3142
901.546	3245
901.665	3348
901.784	3344
901.904	3260
902.023	3199
902.141	3055
902.26	3028
902.379	3161
902.498	3100
902.617	3070
902.735	3253
902.854	3279
902.973	3272
903.091	3089
903.21	3085
903.328	3188
903.446	3157
903.565	3157
903.683	3241
903.801	3123
903.919	3268
904.038	3325
904.156	3184
904.274	3313
904.392	3272
904.51	3291
904.627	3412
904.745	3454
904.863	3515
904.981	3310
905.098	3195
905.216	3287
905.334	3336
905.451	3332
905.569	3332
905.686	3481
905.803	3462
905.921	3336
906.038	3462
906.155	3370
906.272	3310
906.389	3397
906.506	3275
906.623	3291
906.74	3306
906.857	3268
906.974	3256
907.091	3473
907.208	3599
907.324	3538
907.441	3443
907.557	3275
907.674	3302
907.79	3230
907.907	3336
908.023	3428
908.139	3469
908.256	3363
908.372	3424
908.488	3378
908.604	3283
908.72	3241
908.836	3332
908.952	3321
909.068	3389
909.184	3523
909.3	3439
909.415	3576
909.531	3523
909.647	3321
909.762	3367
909.878	3306
909.993	3355
910.108	3405
910.224	3389
910.339	3435
910.454	3363
910.57	3336
910.685	3279
910.8	3641
910.915	3591
911.03	3507
911.145	3310
911.259	3310
911.374	3363
911.489	3302
911.604	3268
911.718	3180
911.833	3176
911.947	3066
912.062	3051
912.176	3199
912.291	3245
912.405	3264
912.519	3462
912.633	3511
912.748	3370
912.862	3329
912.976	3157
913.09	3093
913.204	3169
913.318	3253
913.431	3336
913.545	3355
913.659	3435
913.772	3382
913.886	3287
914	3214
914.113	3386
914.226	3473
914.34	3412
914.453	3283
914.566	3473
914.68	3302
914.793	3344
914.906	3214
915.019	3123
915.132	3055
915.245	3237
915.358	3249
915.47	3245
915.583	3291
915.696	3313
915.809	3397
915.921	3519
916.034	3291
916.146	3275
916.259	3291
916.371	3397
916.483	3401
916.595	3332
916.708	3359
916.82	3409
916.932	3393
917.044	3401
917.156	3382
917.268	3275
917.38	3317
917.491	3302
917.603	3401
917.715	3481
917.826	3481
917.938	3450
918.049	3298
918.161	3458
918.272	3599
918.384	3614
918.495	3538
918.606	3355
918.717	3336
918.828	3473
918.939	3450
919.05	3332
919.161	3405
919.272	3214
919.383	3298
919.494	3534
919.604	3694
919.715	3568
919.826	3420
919.936	3553
920.047	3637
920.157	3637
920.267	3819
920.378	3633
920.488	3618
920.598	3785
920.708	3983
920.818	3892
920.928	3854
921.038	4048
921.148	4036
921.258	3759
921.368	3679
921.477	3595
921.587	3599
921.697	3507
921.806	3656
921.916	3545
922.025	3340
922.134	3443
922.244	3389
922.353	3477
922.462	3256
922.571	3245
922.68	3154
922.789	3135
922.898	3184
923.007	3150
923.116	3256
923.224	3211
923.333	3214
923.442	3123
923.55	3119
923.659	3173
923.767	3287
923.876	3138
923.984	3298
924.092	3112
924.201	3253
924.309	3268
924.417	3298
924.525	3230
924.633	3264
924.741	4169
924.849	3039
924.956	3329
925.064	3097
925.172	3066
925.279	3138
925.387	3275
925.494	3260
925.602	3401
925.709	3355
925.816	3176
925.924	3348
926.031	3431
926.138	3370
926.245	3439
926.352	3275
926.459	3450
926.566	3515
926.673	3317
926.779	3287
926.886	3272
926.993	3195
927.099	3173
927.206	3150
927.312	3154
927.419	3211
927.525	3226
927.631	3298
927.737	3180
927.843	3150
927.95	3020
928.056	3192
928.162	3180
928.267	3306
928.373	3896
928.479	3359
928.585	3142
928.69	3214
928.796	3298
928.901	3195
929.007	3097
929.112	3226
929.218	3207
929.323	3169
929.428	3146
929.533	3336
929.638	3169
929.743	3176
929.848	3302
929.953	3268
930.058	3218
930.163	3066
930.267	3051
930.372	3230
930.477	3062
930.581	3355
930.685	3241
930.79	3100
930.894	3108
930.998	3127
931.103	3294
931.207	3001
931.311	2963
931.415	2971
931.519	2773
931.623	2834
