Data from test_V78500241_1058.txt Node
Date: Fri Mar 25 16:22:31 CST 2022
User: usil
Spectrometer: V785-0024
Trigger mode: 0
Integration Time (sec): 4.000000E-1
Scans to average: 1
Nonlinearity correction enabled: false
Boxcar width: 0
Storing dark spectrum: false
XAxis mode: Wavelengths
Number of Pixels in Spectrum: 1024
>>>>>Begin Spectral Data<<<<<
801.071	2933
801.214	2910
801.356	2891
801.499	2944
801.641	2895
801.783	2941
801.926	3097
802.068	2986
802.211	3013
802.353	3062
802.496	2979
802.638	3028
802.78	3074
802.923	3123
803.065	3005
803.208	2887
803.35	2960
803.492	2975
803.635	2925
803.777	2796
803.919	2899
804.061	3230
804.204	2982
804.346	2937
804.488	2864
804.63	2979
804.773	2899
804.915	2979
805.057	3081
805.199	2952
805.341	3024
805.483	3039
805.626	2975
805.768	3024
805.91	3081
806.052	3119
806.194	3051
806.336	3226
806.478	3036
806.62	2971
806.762	2975
806.904	3058
807.046	3184
807.188	2994
807.33	2975
807.472	2998
807.614	2933
807.756	2986
807.898	2971
808.04	2891
808.182	2963
808.324	2944
808.465	2933
808.607	2883
808.749	2815
808.891	2834
809.033	2990
809.174	2952
809.316	2857
809.458	2902
809.6	2781
809.741	2819
809.883	2807
810.025	2861
810.166	2849
810.308	2842
810.45	2872
810.591	2788
810.733	2781
810.875	2864
811.016	2819
811.158	2758
811.299	2781
811.441	2925
811.582	2902
811.724	2823
811.865	2857
812.007	2910
812.148	2880
812.29	2842
812.431	2883
812.573	2914
812.714	2979
812.855	3043
812.997	3070
813.138	3146
813.279	2990
813.421	2979
813.562	2963
813.703	2880
813.845	2899
813.986	2777
814.127	2724
814.268	2811
814.41	2849
814.551	2815
814.692	2872
814.833	2811
814.974	2891
815.115	2990
815.256	2845
815.397	2804
815.539	2864
815.68	2826
815.821	2800
815.962	2960
816.103	2956
816.244	2880
816.385	2868
816.526	2979
816.666	2937
816.807	2766
816.948	2929
817.089	2906
817.23	2876
817.371	2804
817.512	2807
817.653	2842
817.793	2819
817.934	2902
818.075	2937
818.216	3017
818.356	3024
818.497	2925
818.638	2773
818.778	2807
818.919	2811
819.06	2750
819.2	2887
819.341	2815
819.481	2773
819.622	2937
819.762	3150
819.903	3047
820.043	2918
820.184	2899
820.324	2918
820.465	3020
820.605	3036
820.746	3043
820.886	2948
821.026	3112
821.167	3154
821.307	3253
821.447	3310
821.588	3272
821.728	3249
821.868	3150
822.008	3089
822.149	3203
822.289	3203
822.429	3127
822.569	3123
822.709	3199
822.849	3032
822.99	3077
823.13	3207
823.27	3195
823.41	3081
823.55	3161
823.69	3157
823.83	3226
823.97	3108
824.11	3024
824.25	3024
824.389	3081
824.529	3116
824.669	3093
824.809	3188
824.949	3253
825.089	3207
825.228	3173
825.368	3009
825.508	2956
825.648	2937
825.787	3036
825.927	3028
826.067	2952
826.206	2960
826.346	3051
826.485	3066
826.625	3089
826.765	3233
826.904	3218
827.044	2956
827.183	2948
827.323	2872
827.462	2982
827.601	2933
827.741	2922
827.88	2967
828.02	2857
828.159	2948
828.298	3017
828.437	3093
828.577	3028
828.716	3287
828.855	3062
828.994	2944
829.134	2902
829.273	2956
829.412	2887
829.551	2880
829.69	2883
829.829	2986
829.968	3112
830.107	3005
830.246	3055
830.385	2925
830.524	2925
830.663	2830
830.802	2731
830.941	2659
831.08	2644
831.219	2735
831.357	2769
831.496	2967
831.635	2739
831.774	2670
831.913	2674
832.051	2571
832.19	2587
832.329	2689
832.467	2579
832.606	2488
832.744	2560
832.883	2587
833.022	2590
833.16	2655
833.299	2678
833.437	2720
833.576	2701
833.714	2708
833.852	2720
833.991	2815
834.129	2845
834.267	2834
834.406	2796
834.544	2861
834.682	2842
834.821	2845
834.959	3085
835.097	2902
835.235	3058
835.373	3009
835.511	3020
835.65	2933
835.788	2982
835.926	2796
836.064	2823
836.202	2811
836.34	3127
836.478	3184
836.615	3017
836.753	3112
836.891	3199
837.029	3165
837.167	3085
837.305	3051
837.443	3066
837.58	2979
837.718	3108
837.856	3085
837.993	2998
838.131	3131
838.269	3081
838.406	3127
838.544	3089
838.681	2967
838.819	2918
838.956	2807
839.094	2864
839.231	2899
839.369	3036
839.506	3374
839.643	3245
839.781	2990
839.918	2982
840.055	3081
840.193	3062
840.33	3108
840.467	3104
840.604	3127
840.742	3405
840.879	3062
841.016	3081
841.153	3116
841.29	3340
841.427	3275
841.564	3207
841.701	3260
841.838	3230
841.975	3157
842.112	3230
842.249	3123
842.385	3036
842.522	3264
842.659	3058
842.796	3058
842.933	3100
843.069	3070
843.206	3051
843.343	3169
843.479	3100
843.616	3135
843.752	2891
843.889	2883
844.025	3077
844.162	2864
844.298	3043
844.435	2971
844.571	2902
844.708	3100
844.844	3169
844.98	3264
845.117	3169
845.253	3043
845.389	2986
845.525	3100
845.661	3104
845.798	3024
845.934	3089
846.07	3028
846.206	3207
846.342	3321
846.478	3211
846.614	3077
846.75	3017
846.886	3009
847.022	3230
847.158	3161
847.294	3203
847.429	3249
847.565	3184
847.701	3477
847.837	2998
847.972	3005
848.108	3176
848.244	3161
848.379	2986
848.515	2960
848.65	2922
848.786	2960
848.921	3017
849.057	3081
849.192	3165
849.328	3077
849.463	3108
849.598	3036
849.734	3062
849.869	2982
850.004	2933
850.14	2986
850.275	2922
850.41	2845
850.545	2857
850.68	2933
850.815	2979
850.95	2967
851.085	3207
851.22	3127
851.355	3055
851.49	2952
851.625	3001
851.76	3070
851.895	2944
852.03	2948
852.165	3039
852.299	3150
852.434	3241
852.569	3150
852.703	3214
852.838	3260
852.973	3409
853.107	3355
853.242	3184
853.376	3138
853.511	2990
853.645	3077
853.78	3253
853.914	3146
854.048	3180
854.183	3104
854.317	3176
854.451	3332
854.585	3180
854.72	3127
854.854	3272
854.988	3100
855.122	3093
855.256	3020
855.39	3180
855.524	3272
855.658	3218
855.792	3188
855.926	3264
856.06	3233
856.194	3325
856.327	3146
856.461	3112
856.595	3146
856.729	3116
856.862	3272
856.996	3184
857.13	3230
857.263	3272
857.397	3306
857.53	3131
857.664	3211
857.797	3264
857.931	3325
858.064	3195
858.197	3291
858.331	3135
858.464	3116
858.597	3043
858.731	3188
858.864	3138
858.997	3077
859.13	3192
859.263	3222
859.396	3214
859.529	3127
859.662	3150
859.795	3089
859.928	3157
860.061	3348
860.194	3321
860.327	3195
860.46	3108
860.592	3260
860.725	3351
860.858	3275
860.99	3157
861.123	3104
861.256	3100
861.388	3199
861.521	3850
861.653	3066
861.786	2986
861.918	3020
862.05	3108
862.183	3142
862.315	3180
862.447	3275
862.58	3165
862.712	2967
862.844	2929
862.976	3081
863.108	3043
863.24	3466
863.372	2906
863.504	2994
863.636	2975
863.768	3112
863.9	3043
864.032	2971
864.164	3009
864.296	3009
864.428	3142
864.559	3146
864.691	3089
864.823	3097
864.954	3100
865.086	3085
865.217	3024
865.349	3032
865.48	3013
865.612	3005
865.743	3184
865.875	3013
866.006	3009
866.137	3047
866.269	3009
866.4	2963
866.531	2952
866.662	2910
866.793	2902
866.924	2944
867.055	3028
867.186	2952
867.317	2891
867.448	2864
867.579	2883
867.71	2864
867.841	2864
867.972	2960
868.103	2941
868.233	2922
868.364	2891
868.495	2925
868.625	3066
868.756	3203
868.886	3020
869.017	3058
869.147	3192
869.278	3188
869.408	3055
869.539	3085
869.669	3150
869.799	3070
869.929	3173
870.06	3089
870.19	3374
870.32	3294
870.45	3344
870.58	3351
870.71	3462
870.84	3473
870.97	3310
871.1	3272
871.23	3530
871.36	3462
871.489	3386
871.619	3447
871.749	3424
871.879	3462
872.008	3538
872.138	3401
872.267	3306
872.397	3161
872.526	3127
872.656	3108
872.785	3138
872.915	3275
873.044	3351
873.173	3245
873.303	3260
873.432	3294
873.561	3256
873.69	3192
873.819	3150
873.948	3195
874.077	3135
874.206	3085
874.335	3077
874.464	3226
874.593	3378
874.722	3306
874.851	3428
874.979	3409
875.108	3374
875.237	3241
875.365	3203
875.494	3161
875.623	3275
875.751	3097
875.88	3150
876.008	3195
876.136	3230
876.265	3416
876.393	3545
876.521	3450
876.65	3416
876.778	3336
876.906	3287
877.034	3241
877.162	3256
877.29	3173
877.418	3302
877.546	3264
877.674	3249
877.802	3275
877.93	3268
878.058	3146
878.185	3142
878.313	3237
878.441	3287
878.568	3081
878.696	3138
878.824	3237
878.951	3291
879.079	3492
879.206	3622
879.333	3447
879.461	3378
879.588	3389
879.715	3477
879.842	3637
879.97	3397
880.097	3195
880.224	3157
880.351	3230
880.478	3230
880.605	3180
880.732	3218
880.859	3538
880.986	3325
881.112	3378
881.239	3230
881.366	3108
881.493	3055
881.619	3047
881.746	3097
881.872	3100
881.999	3131
882.125	3180
882.252	3275
882.378	3332
882.505	3466
882.631	3302
882.757	3154
882.883	3275
883.01	3230
883.136	3199
883.262	3108
883.388	3165
883.514	3336
883.64	3412
883.766	3329
883.892	3214
884.018	3241
884.143	3450
884.269	3610
884.395	3226
884.52	3176
884.646	3230
884.772	3131
884.897	3138
885.023	3154
885.148	3355
885.274	3405
885.399	3386
885.524	3272
885.65	3294
885.775	3351
885.9	3336
886.025	3492
886.15	3420
886.275	3294
886.4	3294
886.525	3332
886.65	3302
886.775	3294
886.9	3530
887.025	3656
887.149	3420
887.274	3275
887.399	3199
887.523	3218
887.648	3249
887.773	3203
887.897	3370
888.021	3428
888.146	3317
888.27	3412
888.395	3553
888.519	3477
888.643	3488
888.767	3477
888.891	3348
889.015	3268
889.139	3355
889.263	3283
889.387	3431
889.511	3523
889.635	3500
889.759	3302
889.883	3283
890.006	3378
890.13	3523
890.254	3317
890.377	3374
890.501	3237
890.624	3195
890.748	3317
890.871	3207
890.995	3119
891.118	3104
891.241	3214
891.364	3256
891.488	3321
891.611	3184
891.734	3249
891.857	3306
891.98	3291
892.103	3355
892.226	3317
892.349	3249
892.471	3074
892.594	3260
892.717	3279
892.839	3272
892.962	3294
893.085	3370
893.207	3310
893.33	3173
893.452	3233
893.575	3412
893.697	3321
893.819	3466
893.941	3504
894.064	3409
894.186	3260
894.308	3272
894.43	3450
894.552	3545
894.674	3473
894.796	3283
894.918	3321
895.04	3310
895.161	3488
895.283	3420
895.405	3329
895.526	3389
895.648	3454
895.769	3416
895.891	3435
896.012	3477
896.134	3526
896.255	3420
896.376	3435
896.498	3386
896.619	3443
896.74	3397
896.861	3416
896.982	3667
897.103	3846
897.224	3572
897.345	3507
897.466	3428
897.587	3515
897.708	3663
897.828	3606
897.949	3477
898.07	3359
898.19	3405
898.311	3606
898.431	3443
898.552	3500
898.672	3652
898.792	3595
898.913	3542
899.033	3473
899.153	3317
899.273	3199
899.393	3306
899.513	3332
899.633	3340
899.753	3367
899.873	3329
899.993	3443
900.113	3389
900.232	3405
900.352	3321
900.472	3291
900.591	3230
900.711	3310
900.83	3249
900.95	3401
901.069	3500
901.189	3378
901.308	3203
901.427	3135
901.546	3199
901.665	3329
901.784	3367
901.904	3192
902.023	3169
902.141	3024
902.26	3024
902.379	3165
902.498	3081
902.617	3062
902.735	3226
902.854	3268
902.973	3169
903.091	3066
903.21	3093
903.328	3165
903.446	3142
903.565	3154
903.683	3188
903.801	3165
903.919	3237
904.038	3275
904.156	3165
904.274	3313
904.392	3268
904.51	3310
904.627	3367
904.745	3431
904.863	3523
904.981	3306
905.098	3260
905.216	3230
905.334	3332
905.451	3313
905.569	3355
905.686	3416
905.803	3462
905.921	3272
906.038	3435
906.155	3359
906.272	3283
906.389	3359
906.506	3275
906.623	3241
906.74	3279
906.857	3211
906.974	3306
907.091	3515
907.208	3591
907.324	3504
907.441	3340
907.557	3275
907.674	3230
907.79	3218
907.907	3302
908.023	3435
908.139	3397
908.256	3348
908.372	3443
908.488	3367
908.604	3291
908.72	3268
908.836	3283
908.952	3291
909.068	3359
909.184	3530
909.3	3386
909.415	3526
909.531	3439
909.647	3317
909.762	3317
909.878	3287
909.993	3374
910.108	3329
910.224	3363
910.339	3454
910.454	3348
910.57	3310
910.685	3294
910.8	3633
910.915	3545
911.03	3477
911.145	3275
911.259	3245
911.374	3355
911.489	3268
911.604	3230
911.718	3135
911.833	3169
911.947	3017
912.062	2975
912.176	3195
912.291	3199
912.405	3218
912.519	3450
912.633	3485
912.748	3302
912.862	3268
912.976	3192
913.09	3047
913.204	3123
913.318	3203
913.431	3348
913.545	3332
913.659	3420
913.772	3382
913.886	3218
914	3233
914.113	3393
914.226	3420
914.34	3344
914.453	3203
914.566	3424
914.68	3306
914.793	3291
914.906	3176
915.019	3100
915.132	3081
915.245	3135
915.358	3230
915.47	3256
915.583	3268
915.696	3302
915.809	3447
915.921	3401
916.034	3272
916.146	3264
916.259	3211
916.371	3386
916.483	3389
916.595	3310
916.708	3325
916.82	3306
916.932	3367
917.044	3359
917.156	3382
917.268	3260
917.38	3321
917.491	3298
917.603	3367
917.715	3469
917.826	3492
917.938	3389
918.049	3253
918.161	3424
918.272	3568
918.384	3515
918.495	3488
918.606	3363
918.717	3279
918.828	3382
918.939	3424
919.05	3321
919.161	3344
919.272	3184
919.383	3291
919.494	3504
919.604	3652
919.715	3477
919.826	3435
919.936	3473
920.047	3614
920.157	3629
920.267	3759
920.378	3656
920.488	3542
920.598	3808
920.708	3956
920.818	3789
920.928	3819
921.038	4021
921.148	4025
921.258	3751
921.368	3644
921.477	3587
921.587	3542
921.697	3523
921.806	3603
921.916	3534
922.025	3386
922.134	3348
922.244	3336
922.353	3450
922.462	3306
922.571	3214
922.68	3142
922.789	3097
922.898	3150
923.007	3104
923.116	3241
923.224	3180
923.333	3188
923.442	3074
923.55	3123
923.659	3173
923.767	3199
923.876	3085
923.984	3264
924.092	3070
924.201	3245
924.309	3192
924.417	3287
924.525	3180
924.633	3203
924.741	4154
924.849	3066
924.956	3253
925.064	3131
925.172	3032
925.279	3104
925.387	3184
925.494	3173
925.602	3389
925.709	3306
925.816	3207
925.924	3256
926.031	3359
926.138	3355
926.245	3351
926.352	3302
926.459	3405
926.566	3443
926.673	3306
926.779	3291
926.886	3241
926.993	3142
927.099	3142
927.206	3104
927.312	3142
927.419	3192
927.525	3199
927.631	3245
927.737	3154
927.843	3123
927.95	3020
928.056	3119
928.162	3161
928.267	3279
928.373	3850
928.479	3279
928.585	3085
928.69	3203
928.796	3294
928.901	3150
929.007	3047
929.112	3222
929.218	3173
929.323	3188
929.428	3157
929.533	3294
929.638	3127
929.743	3180
929.848	3268
929.953	3218
930.058	3135
930.163	2971
930.267	3032
930.372	3199
930.477	3039
930.581	3275
930.685	3188
930.79	3077
930.894	3131
930.998	3062
931.103	3291
931.207	2960
931.311	2975
931.415	2948
931.519	2781
931.623	2804
