Data from test_V78500241_197.txt Node
Date: Fri Mar 25 16:16:34 CST 2022
User: usil
Spectrometer: V785-0024
Trigger mode: 0
Integration Time (sec): 4.000000E-1
Scans to average: 1
Nonlinearity correction enabled: false
Boxcar width: 0
Storing dark spectrum: false
XAxis mode: Wavelengths
Number of Pixels in Spectrum: 1024
>>>>>Begin Spectral Data<<<<<
801.071	2948
801.214	2979
801.356	2906
801.499	2914
801.641	2883
801.783	2971
801.926	3081
802.068	3017
802.211	2994
802.353	3043
802.496	2979
802.638	3077
802.78	3055
802.923	3119
803.065	3032
803.208	2914
803.35	2952
803.492	2944
803.635	2986
803.777	2792
803.919	2902
804.061	3241
804.204	2979
804.346	2944
804.488	2876
804.63	3028
804.773	2902
804.915	2960
805.057	3123
805.199	2922
805.341	2979
805.483	3081
805.626	3032
805.768	3013
805.91	3074
806.052	3119
806.194	3051
806.336	3264
806.478	3093
806.62	2986
806.762	2941
806.904	3081
807.046	3222
807.188	3001
807.33	2922
807.472	2982
807.614	2948
807.756	2990
807.898	2944
808.04	2899
808.182	2986
808.324	2979
808.465	2910
808.607	2918
808.749	2823
808.891	2880
809.033	3001
809.174	3028
809.316	2937
809.458	2937
809.6	2800
809.741	2807
809.883	2781
810.025	2876
810.166	2880
810.308	2880
810.45	2899
810.591	2830
810.733	2773
810.875	2872
811.016	2811
811.158	2800
811.299	2842
811.441	2933
811.582	2944
811.724	2842
811.865	2861
812.007	2937
812.148	2902
812.29	2891
812.431	2876
812.573	2963
812.714	2979
812.855	3039
812.997	3070
813.138	3165
813.279	3051
813.421	2982
813.562	2956
813.703	2922
813.845	2922
813.986	2796
814.127	2716
814.268	2830
814.41	2868
814.551	2845
814.692	2891
814.833	2876
814.974	2910
815.115	3017
815.256	2883
815.397	2845
815.539	2887
815.68	2792
815.821	2830
815.962	2937
816.103	2967
816.244	2906
816.385	2925
816.526	2982
816.666	2937
816.807	2769
816.948	2914
817.089	2925
817.23	2872
817.371	2785
817.512	2842
817.653	2906
817.793	2842
817.934	2906
818.075	3013
818.216	2986
818.356	3055
818.497	2883
818.638	2823
818.778	2845
818.919	2853
819.06	2815
819.2	2899
819.341	2838
819.481	2834
819.622	2982
819.762	3097
819.903	3108
820.043	2956
820.184	2941
820.324	2933
820.465	3017
820.605	3062
820.746	3051
820.886	2963
821.026	3146
821.167	3195
821.307	3268
821.447	3302
821.588	3264
821.728	3203
821.868	3222
822.008	3108
822.149	3218
822.289	3294
822.429	3093
822.569	3135
822.709	3241
822.849	3043
822.99	3108
823.13	3195
823.27	3230
823.41	3165
823.55	3180
823.69	3180
823.83	3222
823.97	3116
824.11	3005
824.25	3017
824.389	3123
824.529	3161
824.669	3100
824.809	3218
824.949	3272
825.089	3230
825.228	3195
825.368	3043
825.508	2998
825.648	2982
825.787	3058
825.927	3028
826.067	3009
826.206	2986
826.346	3077
826.485	3081
826.625	3150
826.765	3264
826.904	3222
827.044	3001
827.183	2960
827.323	2899
827.462	3047
827.601	2937
827.741	2933
827.88	2975
828.02	2876
828.159	3005
828.298	3055
828.437	3146
828.577	3077
828.716	3287
828.855	3077
828.994	2918
829.134	2925
829.273	2956
829.412	2899
829.551	2925
829.69	2933
829.829	3020
829.968	3138
830.107	3013
830.246	3028
830.385	2948
830.524	2902
830.663	2830
830.802	2769
830.941	2667
831.08	2651
831.219	2758
831.357	2766
831.496	2952
831.635	2743
831.774	2651
831.913	2667
832.051	2587
832.19	2617
832.329	2701
832.467	2552
832.606	2518
832.744	2640
832.883	2621
833.022	2610
833.16	2640
833.299	2693
833.437	2678
833.576	2724
833.714	2716
833.852	2746
833.991	2788
834.129	2853
834.267	2823
834.406	2815
834.544	2891
834.682	2891
834.821	2891
834.959	3135
835.097	2910
835.235	3070
835.373	2998
835.511	3032
835.65	2979
835.788	2956
835.926	2838
836.064	2842
836.202	2868
836.34	3112
836.478	3207
836.615	3062
836.753	3146
836.891	3241
837.029	3165
837.167	3119
837.305	3081
837.443	3093
837.58	3020
837.718	3123
837.856	3089
837.993	3066
838.131	3127
838.269	3123
838.406	3116
838.544	3150
838.681	2971
838.819	2967
838.956	2845
839.094	2811
839.231	2929
839.369	3032
839.506	3401
839.643	3249
839.781	3024
839.918	2979
840.055	3074
840.193	3100
840.33	3047
840.467	3089
840.604	3154
840.742	3447
840.879	3047
841.016	3108
841.153	3131
841.29	3340
841.427	3348
841.564	3279
841.701	3340
841.838	3195
841.975	3203
842.112	3294
842.249	3116
842.385	3085
842.522	3275
842.659	3108
842.796	3089
842.933	3100
843.069	3032
843.206	3058
843.343	3176
843.479	3119
843.616	3150
843.752	2933
843.889	2876
844.025	3116
844.162	2922
844.298	3123
844.435	2944
844.571	2956
844.708	3062
844.844	3211
844.98	3249
845.117	3207
845.253	3036
845.389	2994
845.525	3116
845.661	3131
845.798	3032
845.934	3138
846.07	3062
846.206	3211
846.342	3329
846.478	3233
846.614	3062
846.75	3062
846.886	3055
847.022	3268
847.158	3180
847.294	3249
847.429	3230
847.565	3245
847.701	3504
847.837	3036
847.972	3055
848.108	3161
848.244	3180
848.379	3017
848.515	2975
848.65	2941
848.786	2979
848.921	3017
849.057	3100
849.192	3161
849.328	3085
849.463	3123
849.598	3074
849.734	3066
849.869	3001
850.004	2899
850.14	2982
850.275	2906
850.41	2838
850.545	2887
850.68	2979
850.815	2998
850.95	2979
851.085	3230
851.22	3112
851.355	3039
851.49	2986
851.625	2986
851.76	3017
851.895	2918
852.03	2918
852.165	3036
852.299	3131
852.434	3192
852.569	3142
852.703	3192
852.838	3214
852.973	3325
853.107	3321
853.242	3119
853.376	3119
853.511	3013
853.645	3058
853.78	3249
853.914	3123
854.048	3135
854.183	3104
854.317	3142
854.451	3283
854.585	3131
854.72	3135
854.854	3199
854.988	3077
855.122	3077
855.256	3001
855.39	3123
855.524	3245
855.658	3203
855.792	3161
855.926	3192
856.06	3249
856.194	3291
856.327	3192
856.461	3070
856.595	3093
856.729	3123
856.862	3184
856.996	3173
857.13	3222
857.263	3253
857.397	3291
857.53	3123
857.664	3226
857.797	3245
857.931	3237
858.064	3199
858.197	3192
858.331	3138
858.464	3077
858.597	3036
858.731	3157
858.864	3176
858.997	3074
859.13	3207
859.263	3199
859.396	3192
859.529	3104
859.662	3077
859.795	3081
859.928	3173
860.061	3325
860.194	3317
860.327	3157
860.46	3104
860.592	3298
860.725	3294
860.858	3275
860.99	3146
861.123	3058
861.256	3066
861.388	3127
861.521	3865
861.653	3047
861.786	2982
861.918	3020
862.05	3055
862.183	3104
862.315	3184
862.447	3214
862.58	3108
862.712	2960
862.844	2883
862.976	3058
863.108	2994
863.24	3329
863.372	2929
863.504	2960
863.636	2941
863.768	3005
863.9	2975
864.032	2899
864.164	2960
864.296	3028
864.428	3116
864.559	3104
864.691	3066
864.823	3097
864.954	3047
865.086	3051
865.217	3001
865.349	2979
865.48	2982
865.612	3051
865.743	3173
865.875	2990
866.006	2941
866.137	2986
866.269	2975
866.4	2979
866.531	2944
866.662	2891
866.793	2895
866.924	2914
867.055	2982
867.186	2906
867.317	2899
867.448	2872
867.579	2842
867.71	2857
867.841	2823
867.972	2899
868.103	2910
868.233	2887
868.364	2891
868.495	2929
868.625	3089
868.756	3203
868.886	2982
869.017	3047
869.147	3173
869.278	3146
869.408	3089
869.539	3055
869.669	3043
869.799	3085
869.929	3154
870.06	3116
870.19	3336
870.32	3306
870.45	3291
870.58	3378
870.71	3450
870.84	3435
870.97	3306
871.1	3264
871.23	3504
871.36	3504
871.489	3405
871.619	3428
871.749	3416
871.879	3439
872.008	3500
872.138	3351
872.267	3317
872.397	3161
872.526	3112
872.656	3013
872.785	3123
872.915	3237
873.044	3321
873.173	3207
873.303	3230
873.432	3241
873.561	3237
873.69	3161
873.819	3138
873.948	3218
874.077	3093
874.206	3036
874.335	3116
874.464	3245
874.593	3363
874.722	3272
874.851	3409
874.979	3363
875.108	3370
875.237	3192
875.365	3169
875.494	3150
875.623	3279
875.751	3100
875.88	3165
876.008	3192
876.136	3268
876.265	3386
876.393	3507
876.521	3435
876.65	3443
876.778	3351
876.906	3233
877.034	3222
877.162	3256
877.29	3195
877.418	3283
877.546	3272
877.674	3245
877.802	3226
877.93	3256
878.058	3173
878.185	3142
878.313	3226
878.441	3233
878.568	3104
878.696	3116
878.824	3249
878.951	3363
879.079	3466
879.206	3633
879.333	3481
879.461	3382
879.588	3420
879.715	3488
879.842	3618
879.97	3386
880.097	3192
880.224	3135
880.351	3233
880.478	3176
880.605	3207
880.732	3173
880.859	3477
880.986	3359
881.112	3325
881.239	3165
881.366	3127
881.493	3039
881.619	3017
881.746	3066
881.872	3093
881.999	3131
882.125	3180
882.252	3237
882.378	3313
882.505	3462
882.631	3283
882.757	3176
882.883	3199
883.01	3226
883.136	3157
883.262	3070
883.388	3154
883.514	3340
883.64	3401
883.766	3336
883.892	3199
884.018	3245
884.143	3466
884.269	3568
884.395	3230
884.52	3203
884.646	3173
884.772	3154
884.897	3135
885.023	3253
885.148	3321
885.274	3454
885.399	3351
885.524	3283
885.65	3302
885.775	3294
885.9	3268
886.025	3428
886.15	3401
886.275	3340
886.4	3306
886.525	3287
886.65	3275
886.775	3298
886.9	3507
887.025	3690
887.149	3435
887.274	3283
887.399	3195
887.523	3199
887.648	3207
887.773	3226
887.897	3412
888.021	3435
888.146	3317
888.27	3492
888.395	3549
888.519	3382
888.643	3481
888.767	3462
888.891	3321
889.015	3253
889.139	3291
889.263	3214
889.387	3409
889.511	3545
889.635	3450
889.759	3283
889.883	3313
890.006	3435
890.13	3488
890.254	3317
890.377	3367
890.501	3237
890.624	3195
890.748	3298
890.871	3214
890.995	3131
891.118	3062
891.241	3218
891.364	3253
891.488	3298
891.611	3150
891.734	3268
891.857	3253
891.98	3260
892.103	3344
892.226	3272
892.349	3249
892.471	3146
892.594	3230
892.717	3287
892.839	3268
892.962	3321
893.085	3389
893.207	3279
893.33	3173
893.452	3214
893.575	3374
893.697	3237
893.819	3473
893.941	3500
894.064	3431
894.186	3237
894.308	3268
894.43	3488
894.552	3549
894.674	3492
894.796	3253
894.918	3325
895.04	3302
895.161	3450
895.283	3397
895.405	3298
895.526	3359
895.648	3458
895.769	3416
895.891	3458
896.012	3485
896.134	3526
896.255	3397
896.376	3409
896.498	3367
896.619	3443
896.74	3370
896.861	3431
896.982	3694
897.103	3857
897.224	3606
897.345	3534
897.466	3481
897.587	3504
897.708	3614
897.828	3568
897.949	3447
898.07	3348
898.19	3439
898.311	3587
898.431	3462
898.552	3568
898.672	3591
898.792	3561
898.913	3504
899.033	3389
899.153	3306
899.273	3245
899.393	3298
899.513	3355
899.633	3317
899.753	3397
899.873	3321
899.993	3412
900.113	3374
900.232	3412
900.352	3370
900.472	3294
900.591	3207
900.711	3291
900.83	3253
900.95	3431
901.069	3507
901.189	3332
901.308	3241
901.427	3112
901.546	3199
901.665	3325
901.784	3370
901.904	3214
902.023	3123
902.141	3024
902.26	2994
902.379	3142
902.498	3085
902.617	3077
902.735	3237
902.854	3237
902.973	3241
903.091	3066
903.21	3051
903.328	3169
903.446	3119
903.565	3131
903.683	3218
903.801	3100
903.919	3253
904.038	3279
904.156	3199
904.274	3329
904.392	3260
904.51	3302
904.627	3344
904.745	3458
904.863	3458
904.981	3268
905.098	3180
905.216	3287
905.334	3313
905.451	3317
905.569	3329
905.686	3435
905.803	3439
905.921	3294
906.038	3447
906.155	3382
906.272	3325
906.389	3351
906.506	3287
906.623	3275
906.74	3302
906.857	3199
906.974	3298
907.091	3431
907.208	3557
907.324	3469
907.441	3428
907.557	3207
907.674	3272
907.79	3218
907.907	3291
908.023	3367
908.139	3412
908.256	3340
908.372	3397
908.488	3344
908.604	3283
908.72	3253
908.836	3313
908.952	3294
909.068	3363
909.184	3477
909.3	3431
909.415	3511
909.531	3496
909.647	3287
909.762	3310
909.878	3256
909.993	3367
910.108	3344
910.224	3332
910.339	3420
910.454	3355
910.57	3306
910.685	3291
910.8	3610
910.915	3542
911.03	3409
911.145	3279
911.259	3298
911.374	3287
911.489	3260
911.604	3230
911.718	3138
911.833	3154
911.947	3013
912.062	2967
912.176	3207
912.291	3256
912.405	3222
912.519	3462
912.633	3473
912.748	3367
912.862	3256
912.976	3188
913.09	3112
913.204	3150
913.318	3256
913.431	3313
913.545	3340
913.659	3424
913.772	3359
913.886	3268
914	3211
914.113	3332
914.226	3424
914.34	3389
914.453	3195
914.566	3431
914.68	3302
914.793	3325
914.906	3173
915.019	3146
915.132	3093
915.245	3169
915.358	3222
915.47	3272
915.583	3283
915.696	3344
915.809	3439
915.921	3485
916.034	3294
916.146	3256
916.259	3226
916.371	3359
916.483	3409
916.595	3275
916.708	3367
916.82	3359
916.932	3317
917.044	3348
917.156	3359
917.268	3279
917.38	3313
917.491	3351
917.603	3382
917.715	3420
917.826	3469
917.938	3435
918.049	3298
918.161	3435
918.272	3614
918.384	3599
918.495	3538
918.606	3344
918.717	3275
918.828	3397
918.939	3412
919.05	3275
919.161	3412
919.272	3195
919.383	3298
919.494	3515
919.604	3713
919.715	3515
919.826	3447
919.936	3469
920.047	3610
920.157	3587
920.267	3808
920.378	3629
920.488	3561
920.598	3854
920.708	3941
920.818	3835
920.928	3842
921.038	4006
921.148	4013
921.258	3717
921.368	3675
921.477	3614
921.587	3595
921.697	3466
921.806	3637
921.916	3557
922.025	3389
922.134	3386
922.244	3329
922.353	3458
922.462	3294
922.571	3188
922.68	3093
922.789	3100
922.898	3173
923.007	3135
923.116	3249
923.224	3192
923.333	3195
923.442	3116
923.55	3131
923.659	3199
923.767	3253
923.876	3089
923.984	3287
924.092	3138
924.201	3188
924.309	3192
924.417	3272
924.525	3188
924.633	3214
924.741	4242
924.849	3062
924.956	3283
925.064	3112
925.172	3062
925.279	3116
925.387	3192
925.494	3203
925.602	3363
925.709	3355
925.816	3199
925.924	3302
926.031	3405
926.138	3344
926.245	3374
926.352	3294
926.459	3447
926.566	3492
926.673	3332
926.779	3283
926.886	3287
926.993	3127
927.099	3142
927.206	3108
927.312	3108
927.419	3214
927.525	3195
927.631	3275
927.737	3157
927.843	3146
927.95	3047
928.056	3161
928.162	3226
928.267	3260
928.373	3884
928.479	3348
928.585	3055
928.69	3237
928.796	3291
928.901	3161
929.007	3093
929.112	3199
929.218	3169
929.323	3146
929.428	3154
929.533	3302
929.638	3131
929.743	3188
929.848	3275
929.953	3218
930.058	3161
930.163	3013
930.267	3085
930.372	3195
930.477	3017
930.581	3325
930.685	3195
930.79	3081
930.894	3131
930.998	3074
931.103	3298
931.207	2990
931.311	2971
931.415	2956
931.519	2773
931.623	2845
