Data from test_V78500241_1238.txt Node
Date: Fri Mar 25 16:23:46 CST 2022
User: usil
Spectrometer: V785-0024
Trigger mode: 0
Integration Time (sec): 4.000000E-1
Scans to average: 1
Nonlinearity correction enabled: false
Boxcar width: 0
Storing dark spectrum: false
XAxis mode: Wavelengths
Number of Pixels in Spectrum: 1024
>>>>>Begin Spectral Data<<<<<
801.071	2910
801.214	2895
801.356	2880
801.499	2880
801.641	2868
801.783	2906
801.926	3005
802.068	2971
802.211	2986
802.353	3051
802.496	2944
802.638	2994
802.78	3043
802.923	3077
803.065	3005
803.208	2895
803.35	2910
803.492	2910
803.635	2941
803.777	2739
803.919	2861
804.061	3199
804.204	2971
804.346	2906
804.488	2868
804.63	2960
804.773	2864
804.915	2902
805.057	3051
805.199	2918
805.341	2979
805.483	3070
805.626	3001
805.768	2963
805.91	3077
806.052	3104
806.194	3020
806.336	3233
806.478	3024
806.62	2960
806.762	2952
806.904	3062
807.046	3180
807.188	2960
807.33	2895
807.472	2963
807.614	2914
807.756	2979
807.898	2876
808.04	2880
808.182	2960
808.324	2925
808.465	2887
808.607	2880
808.749	2807
808.891	2853
809.033	2963
809.174	2971
809.316	2910
809.458	2872
809.6	2731
809.741	2769
809.883	2769
810.025	2830
810.166	2842
810.308	2788
810.45	2849
810.591	2762
810.733	2758
810.875	2823
811.016	2766
811.158	2781
811.299	2800
811.441	2922
811.582	2906
811.724	2781
811.865	2811
812.007	2899
812.148	2906
812.29	2857
812.431	2876
812.573	2910
812.714	2944
812.855	3055
812.997	3066
813.138	3131
813.279	3013
813.421	2963
813.562	2948
813.703	2842
813.845	2861
813.986	2788
814.127	2708
814.268	2819
814.41	2811
814.551	2804
814.692	2887
814.833	2815
814.974	2906
815.115	2937
815.256	2834
815.397	2800
815.539	2864
815.68	2785
815.821	2788
815.962	2971
816.103	2876
816.244	2857
816.385	2830
816.526	2952
816.666	2906
816.807	2746
816.948	2883
817.089	2899
817.23	2845
817.371	2792
817.512	2819
817.653	2819
817.793	2796
817.934	2853
818.075	2952
818.216	2960
818.356	3028
818.497	2872
818.638	2781
818.778	2785
818.919	2796
819.06	2781
819.2	2857
819.341	2792
819.481	2785
819.622	2933
819.762	3100
819.903	3028
820.043	2918
820.184	2891
820.324	2891
820.465	3005
820.605	2994
820.746	3039
820.886	2918
821.026	3112
821.167	3131
821.307	3245
821.447	3298
821.588	3226
821.728	3199
821.868	3241
822.008	3032
822.149	3222
822.289	3253
822.429	3047
822.569	3077
822.709	3199
822.849	3001
822.99	3058
823.13	3131
823.27	3184
823.41	3131
823.55	3100
823.69	3131
823.83	3150
823.97	3093
824.11	3028
824.25	2971
824.389	3058
824.529	3104
824.669	3051
824.809	3180
824.949	3241
825.089	3245
825.228	3142
825.368	3036
825.508	2941
825.648	2971
825.787	3005
825.927	3028
826.067	2990
826.206	2979
826.346	3070
826.485	3036
826.625	3085
826.765	3283
826.904	3192
827.044	3028
827.183	2925
827.323	2872
827.462	2956
827.601	2918
827.741	2914
827.88	2944
828.02	2902
828.159	3001
828.298	3024
828.437	3051
828.577	3024
828.716	3226
828.855	3089
828.994	2925
829.134	2883
829.273	2906
829.412	2872
829.551	2830
829.69	2853
829.829	2982
829.968	3131
830.107	3036
830.246	3032
830.385	2922
830.524	2864
830.663	2762
830.802	2731
830.941	2648
831.08	2632
831.219	2769
831.357	2735
831.496	2925
831.635	2701
831.774	2655
831.913	2625
832.051	2537
832.19	2590
832.329	2655
832.467	2526
832.606	2461
832.744	2587
832.883	2583
833.022	2587
833.16	2617
833.299	2651
833.437	2659
833.576	2697
833.714	2697
833.852	2724
833.991	2766
834.129	2838
834.267	2826
834.406	2792
834.544	2868
834.682	2872
834.821	2842
834.959	3085
835.097	2887
835.235	3055
835.373	2994
835.511	3020
835.65	2963
835.788	2922
835.926	2815
836.064	2796
836.202	2845
836.34	3112
836.478	3131
836.615	3036
836.753	3112
836.891	3218
837.029	3154
837.167	3108
837.305	3020
837.443	3058
837.58	2990
837.718	3138
837.856	3047
837.993	3001
838.131	3097
838.269	3100
838.406	3100
838.544	3043
838.681	2937
838.819	2872
838.956	2796
839.094	2842
839.231	2902
839.369	3005
839.506	3363
839.643	3226
839.781	2998
839.918	2960
840.055	3074
840.193	2990
840.33	3062
840.467	3081
840.604	3104
840.742	3386
840.879	3013
841.016	3039
841.153	3100
841.29	3313
841.427	3287
841.564	3260
841.701	3302
841.838	3192
841.975	3131
842.112	3211
842.249	3043
842.385	3024
842.522	3264
842.659	3074
842.796	3043
842.933	3062
843.069	3066
843.206	3020
843.343	3157
843.479	3070
843.616	3146
843.752	2899
843.889	2906
844.025	3047
844.162	2895
844.298	3077
844.435	2922
844.571	2891
844.708	3058
844.844	3192
844.98	3211
845.117	3195
845.253	3043
845.389	3058
845.525	3100
845.661	3051
845.798	3032
845.934	3135
846.07	3051
846.206	3233
846.342	3279
846.478	3249
846.614	3108
846.75	3066
846.886	3009
847.022	3245
847.158	3127
847.294	3161
847.429	3218
847.565	3207
847.701	3462
847.837	3032
847.972	3005
848.108	3123
848.244	3180
848.379	2956
848.515	2929
848.65	2906
848.786	2948
848.921	3036
849.057	3066
849.192	3127
849.328	3055
849.463	3104
849.598	3108
849.734	3032
849.869	2990
850.004	2887
850.14	2933
850.275	2902
850.41	2834
850.545	2853
850.68	2902
850.815	2956
850.95	2925
851.085	3169
851.22	3104
851.355	3020
851.49	2986
851.625	2998
851.76	3001
851.895	2941
852.03	2895
852.165	3020
852.299	3097
852.434	3169
852.569	3131
852.703	3165
852.838	3241
852.973	3306
853.107	3291
853.242	3138
853.376	3085
853.511	2941
853.645	3051
853.78	3222
853.914	3112
854.048	3089
854.183	3093
854.317	3135
854.451	3253
854.585	3081
854.72	3077
854.854	3195
854.988	3074
855.122	3085
855.256	2960
855.39	3112
855.524	3230
855.658	3203
855.792	3169
855.926	3176
856.06	3173
856.194	3256
856.327	3116
856.461	3036
856.595	3097
856.729	3058
856.862	3188
856.996	3138
857.13	3203
857.263	3211
857.397	3302
857.53	3108
857.664	3169
857.797	3188
857.931	3253
858.064	3146
858.197	3180
858.331	3123
858.464	3081
858.597	3036
858.731	3135
858.864	3131
858.997	3089
859.13	3131
859.263	3214
859.396	3245
859.529	3066
859.662	3055
859.795	3017
859.928	3116
860.061	3291
860.194	3249
860.327	3135
860.46	3085
860.592	3214
860.725	3214
860.858	3241
860.99	3108
861.123	3043
861.256	3036
861.388	3176
861.521	3686
861.653	3017
861.786	2986
861.918	3009
862.05	3013
862.183	3066
862.315	3161
862.447	3207
862.58	3112
862.712	2906
862.844	2891
862.976	3032
863.108	2998
863.24	3264
863.372	2868
863.504	2975
863.636	2944
863.768	2990
863.9	3017
864.032	2887
864.164	2933
864.296	3009
864.428	3081
864.559	3051
864.691	3043
864.823	3047
864.954	3013
865.086	3024
865.217	3005
865.349	2960
865.48	3017
865.612	2994
865.743	3127
865.875	2952
866.006	2906
866.137	2967
866.269	2922
866.4	2910
866.531	2899
866.662	2887
866.793	2887
866.924	2880
867.055	2998
867.186	2899
867.317	2891
867.448	2842
867.579	2838
867.71	2853
867.841	2823
867.972	2887
868.103	2902
868.233	2883
868.364	2895
868.495	2861
868.625	3112
868.756	3142
868.886	2944
869.017	2986
869.147	3165
869.278	3173
869.408	3043
869.539	3024
869.669	3138
869.799	3058
869.929	3138
870.06	3043
870.19	3344
870.32	3241
870.45	3332
870.58	3355
870.71	3431
870.84	3401
870.97	3298
871.1	3211
871.23	3504
871.36	3431
871.489	3370
871.619	3382
871.749	3378
871.879	3439
872.008	3466
872.138	3336
872.267	3256
872.397	3100
872.526	3066
872.656	3024
872.785	3058
872.915	3195
873.044	3344
873.173	3211
873.303	3256
873.432	3253
873.561	3253
873.69	3165
873.819	3119
873.948	3173
874.077	3074
874.206	3062
874.335	3089
874.464	3207
874.593	3332
874.722	3233
874.851	3397
874.979	3302
875.108	3260
875.237	3165
875.365	3146
875.494	3138
875.623	3279
875.751	3074
875.88	3116
876.008	3157
876.136	3230
876.265	3363
876.393	3473
876.521	3412
876.65	3378
876.778	3321
876.906	3249
877.034	3154
877.162	3230
877.29	3157
877.418	3275
877.546	3272
877.674	3249
877.802	3214
877.93	3192
878.058	3108
878.185	3100
878.313	3241
878.441	3192
878.568	3070
878.696	3131
878.824	3226
878.951	3313
879.079	3420
879.206	3580
879.333	3420
879.461	3310
879.588	3374
879.715	3504
879.842	3549
879.97	3340
880.097	3146
880.224	3097
880.351	3199
880.478	3249
880.605	3146
880.732	3169
880.859	3500
880.986	3283
881.112	3374
881.239	3165
881.366	3058
881.493	3009
881.619	3032
881.746	3051
881.872	3085
881.999	3093
882.125	3150
882.252	3241
882.378	3245
882.505	3382
882.631	3302
882.757	3108
882.883	3214
883.01	3241
883.136	3138
883.262	3058
883.388	3108
883.514	3298
883.64	3397
883.766	3306
883.892	3192
884.018	3226
884.143	3409
884.269	3523
884.395	3199
884.52	3138
884.646	3199
884.772	3104
884.897	3074
885.023	3157
885.148	3348
885.274	3439
885.399	3382
885.524	3268
885.65	3256
885.775	3317
885.9	3241
886.025	3397
886.15	3370
886.275	3317
886.4	3237
886.525	3287
886.65	3241
886.775	3275
886.9	3504
887.025	3644
887.149	3450
887.274	3233
887.399	3180
887.523	3222
887.648	3169
887.773	3184
887.897	3397
888.021	3363
888.146	3302
888.27	3416
888.395	3530
888.519	3454
888.643	3424
888.767	3469
888.891	3329
889.015	3222
889.139	3272
889.263	3256
889.387	3424
889.511	3473
889.635	3424
889.759	3287
889.883	3325
890.006	3382
890.13	3477
890.254	3222
890.377	3340
890.501	3214
890.624	3157
890.748	3268
890.871	3165
890.995	3097
891.118	3070
891.241	3188
891.364	3199
891.488	3336
891.611	3154
891.734	3192
891.857	3272
891.98	3207
892.103	3340
892.226	3264
892.349	3214
892.471	3135
892.594	3245
892.717	3272
892.839	3249
892.962	3275
893.085	3363
893.207	3302
893.33	3135
893.452	3195
893.575	3351
893.697	3241
893.819	3462
893.941	3504
894.064	3435
894.186	3298
894.308	3302
894.43	3405
894.552	3496
894.674	3454
894.796	3256
894.918	3294
895.04	3272
895.161	3462
895.283	3393
895.405	3283
895.526	3325
895.648	3454
895.769	3420
895.891	3450
896.012	3477
896.134	3473
896.255	3393
896.376	3367
896.498	3378
896.619	3401
896.74	3367
896.861	3397
896.982	3679
897.103	3838
897.224	3553
897.345	3507
897.466	3424
897.587	3519
897.708	3587
897.828	3545
897.949	3405
898.07	3313
898.19	3409
898.311	3526
898.431	3450
898.552	3496
898.672	3595
898.792	3557
898.913	3511
899.033	3420
899.153	3306
899.273	3241
899.393	3298
899.513	3306
899.633	3313
899.753	3344
899.873	3348
899.993	3363
900.113	3325
900.232	3393
900.352	3332
900.472	3291
900.591	3184
900.711	3302
900.83	3272
900.95	3412
901.069	3485
901.189	3325
901.308	3161
901.427	3119
901.546	3195
901.665	3317
901.784	3317
901.904	3203
902.023	3146
902.141	3009
902.26	3001
902.379	3135
902.498	3104
902.617	3024
902.735	3176
902.854	3256
902.973	3165
903.091	3051
903.21	3043
903.328	3127
903.446	3123
903.565	3074
903.683	3176
903.801	3123
903.919	3218
904.038	3279
904.156	3184
904.274	3302
904.392	3272
904.51	3260
904.627	3329
904.745	3462
904.863	3500
904.981	3294
905.098	3135
905.216	3237
905.334	3283
905.451	3264
905.569	3306
905.686	3416
905.803	3397
905.921	3264
906.038	3412
906.155	3329
906.272	3253
906.389	3359
906.506	3207
906.623	3230
906.74	3256
906.857	3165
906.974	3260
907.091	3431
907.208	3591
907.324	3439
907.441	3397
907.557	3207
907.674	3195
907.79	3195
907.907	3264
908.023	3351
908.139	3336
908.256	3283
908.372	3409
908.488	3348
908.604	3233
908.72	3222
908.836	3287
908.952	3268
909.068	3340
909.184	3469
909.3	3348
909.415	3477
909.531	3424
909.647	3268
909.762	3264
909.878	3272
909.993	3351
910.108	3332
910.224	3348
910.339	3428
910.454	3294
910.57	3302
910.685	3253
910.8	3599
910.915	3519
911.03	3393
911.145	3275
911.259	3287
911.374	3317
911.489	3230
911.604	3226
911.718	3085
911.833	3097
911.947	3013
912.062	2982
912.176	3157
912.291	3173
912.405	3188
912.519	3431
912.633	3450
912.748	3321
912.862	3256
912.976	3135
913.09	3062
913.204	3142
913.318	3199
913.431	3317
913.545	3287
913.659	3397
913.772	3287
913.886	3222
914	3176
914.113	3348
914.226	3428
914.34	3348
914.453	3165
914.566	3412
914.68	3272
914.793	3317
914.906	3119
915.019	3066
915.132	3047
915.245	3154
915.358	3157
915.47	3214
915.583	3241
915.696	3294
915.809	3401
915.921	3393
916.034	3279
916.146	3226
916.259	3226
916.371	3374
916.483	3355
916.595	3230
916.708	3294
916.82	3279
916.932	3317
917.044	3340
917.156	3351
917.268	3233
917.38	3241
917.491	3256
917.603	3332
917.715	3447
917.826	3454
917.938	3370
918.049	3260
918.161	3420
918.272	3538
918.384	3561
918.495	3450
918.606	3283
918.717	3249
918.828	3393
918.939	3431
919.05	3302
919.161	3340
919.272	3142
919.383	3294
919.494	3488
919.604	3686
919.715	3481
919.826	3428
919.936	3450
920.047	3595
920.157	3572
920.267	3759
920.378	3622
920.488	3557
920.598	3812
920.708	3930
920.818	3812
920.928	3850
921.038	4040
921.148	3994
921.258	3705
921.368	3679
921.477	3580
921.587	3526
921.697	3500
921.806	3637
921.916	3564
922.025	3359
922.134	3382
922.244	3306
922.353	3488
922.462	3325
922.571	3218
922.68	3123
922.789	3112
922.898	3169
923.007	3135
923.116	3279
923.224	3180
923.333	3203
923.442	3135
923.55	3100
923.659	3214
923.767	3291
923.876	3146
923.984	3241
924.092	3119
924.201	3241
924.309	3275
924.417	3321
924.525	3226
924.633	3287
924.741	4036
924.849	3074
924.956	3325
925.064	3127
925.172	3100
925.279	3154
925.387	3203
925.494	3222
925.602	3420
925.709	3348
925.816	3203
925.924	3329
926.031	3393
926.138	3351
926.245	3416
926.352	3291
926.459	3447
926.566	3485
926.673	3348
926.779	3306
926.886	3298
926.993	3203
927.099	3173
927.206	3192
927.312	3119
927.419	3245
927.525	3249
927.631	3306
927.737	3169
927.843	3161
927.95	3047
928.056	3157
928.162	3245
928.267	3275
928.373	3903
928.479	3313
928.585	3131
928.69	3260
928.796	3325
928.901	3203
929.007	3062
929.112	3222
929.218	3237
929.323	3176
929.428	3184
929.533	3351
929.638	3176
929.743	3230
929.848	3302
929.953	3222
930.058	3154
930.163	3024
930.267	3093
930.372	3241
930.477	3036
930.581	3340
930.685	3245
930.79	3074
930.894	3176
930.998	3112
931.103	3283
931.207	2963
931.311	2960
931.415	2918
931.519	2823
931.623	2876
