Data from test_V78500241_1929.txt Node
Date: Fri Mar 25 16:28:33 CST 2022
User: usil
Spectrometer: V785-0024
Trigger mode: 0
Integration Time (sec): 4.000000E-1
Scans to average: 1
Nonlinearity correction enabled: false
Boxcar width: 0
Storing dark spectrum: false
XAxis mode: Wavelengths
Number of Pixels in Spectrum: 1024
>>>>>Begin Spectral Data<<<<<
801.071	2914
801.214	2963
801.356	2861
801.499	2887
801.641	2899
801.783	2952
801.926	3032
802.068	2960
802.211	2982
802.353	3032
802.496	2971
802.638	3017
802.78	3020
802.923	3039
803.065	2990
803.208	2880
803.35	2922
803.492	2914
803.635	2895
803.777	2762
803.919	2868
804.061	3203
804.204	2937
804.346	2872
804.488	2845
804.63	2982
804.773	2861
804.915	2937
805.057	3081
805.199	2899
805.341	3001
805.483	3051
805.626	2990
805.768	2944
805.91	3058
806.052	3131
806.194	3032
806.336	3245
806.478	2994
806.62	2960
806.762	2956
806.904	3051
807.046	3192
807.188	2971
807.33	2914
807.472	2990
807.614	2925
807.756	3009
807.898	2941
808.04	2849
808.182	2979
808.324	2979
808.465	2853
808.607	2883
808.749	2766
808.891	2826
809.033	2960
809.174	2933
809.316	2906
809.458	2910
809.6	2758
809.741	2758
809.883	2735
810.025	2823
810.166	2918
810.308	2842
810.45	2857
810.591	2800
810.733	2762
810.875	2834
811.016	2815
811.158	2766
811.299	2807
811.441	2948
811.582	2910
811.724	2857
811.865	2830
812.007	2922
812.148	2880
812.29	2853
812.431	2887
812.573	2922
812.714	2979
812.855	3062
812.997	3036
813.138	3131
813.279	3024
813.421	2948
813.562	2971
813.703	2861
813.845	2922
813.986	2766
814.127	2735
814.268	2861
814.41	2842
814.551	2815
814.692	2842
814.833	2823
814.974	2906
815.115	2979
815.256	2842
815.397	2815
815.539	2887
815.68	2800
815.821	2788
815.962	2937
816.103	2933
816.244	2868
816.385	2861
816.526	2982
816.666	2925
816.807	2754
816.948	2883
817.089	2910
817.23	2807
817.371	2777
817.512	2788
817.653	2830
817.793	2807
817.934	2872
818.075	2971
818.216	2986
818.356	3028
818.497	2902
818.638	2785
818.778	2815
818.919	2804
819.06	2769
819.2	2883
819.341	2804
819.481	2815
819.622	2922
819.762	3058
819.903	3036
820.043	2918
820.184	2864
820.324	2895
820.465	3028
820.605	3013
820.746	3005
820.886	2925
821.026	3093
821.167	3169
821.307	3237
821.447	3291
821.588	3203
821.728	3226
821.868	3222
822.008	3077
822.149	3169
822.289	3233
822.429	3089
822.569	3093
822.709	3203
822.849	3013
822.99	3043
823.13	3184
823.27	3207
823.41	3108
823.55	3123
823.69	3150
823.83	3203
823.97	3104
824.11	3020
824.25	3009
824.389	3097
824.529	3112
824.669	3074
824.809	3180
824.949	3222
825.089	3203
825.228	3131
825.368	3005
825.508	2971
825.648	2956
825.787	3013
825.927	3005
826.067	2960
826.206	3005
826.346	3024
826.485	3066
826.625	3081
826.765	3256
826.904	3192
827.044	2963
827.183	2933
827.323	2842
827.462	3028
827.601	2899
827.741	2922
827.88	2963
828.02	2826
828.159	2952
828.298	3036
828.437	3085
828.577	3051
828.716	3249
828.855	3093
828.994	2918
829.134	2857
829.273	2937
829.412	2883
829.551	2868
829.69	2906
829.829	2960
829.968	3135
830.107	3013
830.246	3013
830.385	2910
830.524	2872
830.663	2800
830.802	2769
830.941	2678
831.08	2648
831.219	2758
831.357	2758
831.496	2944
831.635	2705
831.774	2651
831.913	2689
832.051	2541
832.19	2560
832.329	2655
832.467	2518
832.606	2476
832.744	2571
832.883	2541
833.022	2564
833.16	2606
833.299	2674
833.437	2674
833.576	2678
833.714	2727
833.852	2720
833.991	2731
834.129	2845
834.267	2826
834.406	2796
834.544	2918
834.682	2876
834.821	2845
834.959	3055
835.097	2864
835.235	3024
835.373	2998
835.511	3009
835.65	2952
835.788	2933
835.926	2849
836.064	2769
836.202	2838
836.34	3074
836.478	3154
836.615	3013
836.753	3119
836.891	3211
837.029	3165
837.167	3119
837.305	3066
837.443	3028
837.58	2963
837.718	3142
837.856	2998
837.993	3070
838.131	3089
838.269	3100
838.406	3093
838.544	3066
838.681	2944
838.819	2883
838.956	2792
839.094	2823
839.231	2887
839.369	3024
839.506	3382
839.643	3195
839.781	3036
839.918	2948
840.055	3047
840.193	3024
840.33	3070
840.467	3108
840.604	3131
840.742	3378
840.879	3055
841.016	3020
841.153	3127
841.29	3325
841.427	3332
841.564	3253
841.701	3279
841.838	3203
841.975	3150
842.112	3203
842.249	3070
842.385	3013
842.522	3245
842.659	3112
842.796	3055
842.933	3055
843.069	3039
843.206	3036
843.343	3161
843.479	3058
843.616	3123
843.752	2906
843.889	2861
844.025	3074
844.162	2864
844.298	3070
844.435	2925
844.571	2906
844.708	3047
844.844	3165
844.98	3241
845.117	3184
845.253	3043
845.389	2998
845.525	3100
845.661	3104
845.798	2998
845.934	3135
846.07	3047
846.206	3245
846.342	3283
846.478	3222
846.614	3070
846.75	3051
846.886	3058
847.022	3214
847.158	3119
847.294	3188
847.429	3237
847.565	3176
847.701	3504
847.837	3032
847.972	3032
848.108	3135
848.244	3116
848.379	2998
848.515	2975
848.65	2929
848.786	2925
848.921	3001
849.057	3093
849.192	3127
849.328	3032
849.463	3081
849.598	3081
849.734	3032
849.869	2979
850.004	2899
850.14	2956
850.275	2914
850.41	2834
850.545	2891
850.68	2963
850.815	2944
850.95	2960
851.085	3180
851.22	3123
851.355	3062
851.49	2982
851.625	2998
851.76	3024
851.895	2944
852.03	2906
852.165	3055
852.299	3165
852.434	3180
852.569	3154
852.703	3203
852.838	3230
852.973	3351
853.107	3306
853.242	3184
853.376	3093
853.511	2990
853.645	3028
853.78	3203
853.914	3085
854.048	3100
854.183	3074
854.317	3146
854.451	3332
854.585	3119
854.72	3058
854.854	3207
854.988	3055
855.122	3112
855.256	2990
855.39	3127
855.524	3226
855.658	3169
855.792	3154
855.926	3180
856.06	3230
856.194	3237
856.327	3154
856.461	3077
856.595	3058
856.729	3100
856.862	3211
856.996	3173
857.13	3199
857.263	3237
857.397	3264
857.53	3123
857.664	3146
857.797	3272
857.931	3253
858.064	3119
858.197	3233
858.331	3135
858.464	3093
858.597	3028
858.731	3108
858.864	3116
858.997	3119
859.13	3173
859.263	3142
859.396	3226
859.529	3097
859.662	3062
859.795	3020
859.928	3157
860.061	3245
860.194	3275
860.327	3119
860.46	3081
860.592	3241
860.725	3237
860.858	3256
860.99	3112
861.123	3062
861.256	3028
861.388	3127
861.521	3823
861.653	2998
861.786	2967
861.918	2975
862.05	3089
862.183	3070
862.315	3127
862.447	3211
862.58	3089
862.712	2971
862.844	2864
862.976	3001
863.108	2994
863.24	3275
863.372	2864
863.504	2948
863.636	2937
863.768	3051
863.9	2982
864.032	2887
864.164	2960
864.296	3009
864.428	3112
864.559	3081
864.691	3055
864.823	3051
864.954	3039
865.086	3013
865.217	2967
865.349	2963
865.48	3005
865.612	3001
865.743	3135
865.875	2963
866.006	2922
866.137	2967
866.269	2933
866.4	2941
866.531	2906
866.662	2902
866.793	2883
866.924	2861
867.055	2952
867.186	2906
867.317	2883
867.448	2834
867.579	2834
867.71	2826
867.841	2792
867.972	2887
868.103	2895
868.233	2887
868.364	2895
868.495	2933
868.625	3085
868.756	3138
868.886	2967
869.017	3009
869.147	3169
869.278	3180
869.408	3051
869.539	3028
869.669	3077
869.799	3089
869.929	3146
870.06	3100
870.19	3332
870.32	3253
870.45	3294
870.58	3367
870.71	3454
870.84	3424
870.97	3275
871.1	3272
871.23	3435
871.36	3431
871.489	3355
871.619	3405
871.749	3389
871.879	3443
872.008	3443
872.138	3370
872.267	3298
872.397	3154
872.526	3047
872.656	3009
872.785	3077
872.915	3222
873.044	3294
873.173	3218
873.303	3245
873.432	3237
873.561	3233
873.69	3154
873.819	3119
873.948	3207
874.077	3138
874.206	3081
874.335	3074
874.464	3218
874.593	3336
874.722	3256
874.851	3409
874.979	3332
875.108	3317
875.237	3165
875.365	3161
875.494	3131
875.623	3275
875.751	3085
875.88	3108
876.008	3165
876.136	3180
876.265	3298
876.393	3530
876.521	3428
876.65	3370
876.778	3348
876.906	3230
877.034	3203
877.162	3241
877.29	3161
877.418	3253
877.546	3241
877.674	3226
877.802	3279
877.93	3264
878.058	3161
878.185	3077
878.313	3180
878.441	3214
878.568	3013
878.696	3169
878.824	3249
878.951	3310
879.079	3431
879.206	3660
879.333	3424
879.461	3310
879.588	3378
879.715	3515
879.842	3599
879.97	3359
880.097	3154
880.224	3104
880.351	3176
880.478	3195
880.605	3192
880.732	3203
880.859	3515
880.986	3329
881.112	3283
881.239	3199
881.366	3097
881.493	3032
881.619	2979
881.746	3074
881.872	3100
881.999	3089
882.125	3146
882.252	3237
882.378	3283
882.505	3428
882.631	3325
882.757	3207
882.883	3211
883.01	3199
883.136	3131
883.262	3093
883.388	3058
883.514	3329
883.64	3348
883.766	3298
883.892	3180
884.018	3241
884.143	3397
884.269	3523
884.395	3188
884.52	3150
884.646	3123
884.772	3119
884.897	3131
885.023	3184
885.148	3283
885.274	3416
885.399	3348
885.524	3272
885.65	3230
885.775	3351
885.9	3268
886.025	3477
886.15	3397
886.275	3329
886.4	3264
886.525	3306
886.65	3275
886.775	3283
886.9	3458
887.025	3637
887.149	3428
887.274	3260
887.399	3203
887.523	3192
887.648	3165
887.773	3173
887.897	3363
888.021	3409
888.146	3291
888.27	3450
888.395	3542
888.519	3420
888.643	3435
888.767	3458
888.891	3291
889.015	3245
889.139	3287
889.263	3222
889.387	3401
889.511	3526
889.635	3458
889.759	3310
889.883	3294
890.006	3374
890.13	3473
890.254	3253
890.377	3351
890.501	3203
890.624	3184
890.748	3306
890.871	3154
890.995	3119
891.118	3051
891.241	3199
891.364	3211
891.488	3287
891.611	3142
891.734	3275
891.857	3321
891.98	3214
892.103	3351
892.226	3253
892.349	3195
892.471	3097
892.594	3230
892.717	3268
892.839	3245
892.962	3279
893.085	3351
893.207	3283
893.33	3180
893.452	3199
893.575	3332
893.697	3241
893.819	3431
893.941	3477
894.064	3454
894.186	3260
894.308	3317
894.43	3424
894.552	3530
894.674	3481
894.796	3317
894.918	3306
895.04	3249
895.161	3439
895.283	3405
895.405	3291
895.526	3317
895.648	3454
895.769	3473
895.891	3469
896.012	3485
896.134	3439
896.255	3393
896.376	3374
896.498	3336
896.619	3412
896.74	3367
896.861	3389
896.982	3679
897.103	3823
897.224	3603
897.345	3515
897.466	3458
897.587	3469
897.708	3606
897.828	3542
897.949	3473
898.07	3306
898.19	3370
898.311	3603
898.431	3389
898.552	3500
898.672	3622
898.792	3572
898.913	3568
899.033	3393
899.153	3294
899.273	3241
899.393	3287
899.513	3298
899.633	3336
899.753	3348
899.873	3306
899.993	3370
900.113	3340
900.232	3416
900.352	3329
900.472	3283
900.591	3230
900.711	3298
900.83	3260
900.95	3389
901.069	3523
901.189	3351
901.308	3203
901.427	3131
901.546	3169
901.665	3272
901.784	3336
901.904	3165
902.023	3146
902.141	2986
902.26	2967
902.379	3123
902.498	3036
902.617	3093
902.735	3192
902.854	3230
902.973	3199
903.091	3062
903.21	3077
903.328	3150
903.446	3127
903.565	3112
903.683	3165
903.801	3112
903.919	3222
904.038	3283
904.156	3176
904.274	3294
904.392	3268
904.51	3264
904.627	3363
904.745	3450
904.863	3504
904.981	3272
905.098	3184
905.216	3199
905.334	3321
905.451	3321
905.569	3325
905.686	3401
905.803	3428
905.921	3321
906.038	3443
906.155	3340
906.272	3241
906.389	3325
906.506	3233
906.623	3272
906.74	3241
906.857	3195
906.974	3260
907.091	3409
907.208	3553
907.324	3431
907.441	3389
907.557	3241
907.674	3222
907.79	3233
907.907	3298
908.023	3367
908.139	3363
908.256	3313
908.372	3359
908.488	3351
908.604	3249
908.72	3222
908.836	3260
908.952	3283
909.068	3302
909.184	3469
909.3	3370
909.415	3477
909.531	3477
909.647	3298
909.762	3291
909.878	3256
909.993	3367
910.108	3298
910.224	3321
910.339	3412
910.454	3294
910.57	3291
910.685	3256
910.8	3553
910.915	3549
911.03	3466
911.145	3260
911.259	3256
911.374	3321
911.489	3222
911.604	3222
911.718	3127
911.833	3138
911.947	2994
912.062	3009
912.176	3123
912.291	3218
912.405	3214
912.519	3412
912.633	3439
912.748	3344
912.862	3279
912.976	3184
913.09	3043
913.204	3116
913.318	3211
913.431	3351
913.545	3340
913.659	3431
913.772	3355
913.886	3169
914	3176
914.113	3367
914.226	3389
914.34	3359
914.453	3218
914.566	3416
914.68	3275
914.793	3298
914.906	3157
915.019	3142
915.132	3070
915.245	3180
915.358	3195
915.47	3188
915.583	3291
915.696	3306
915.809	3389
915.921	3409
916.034	3275
916.146	3249
916.259	3241
916.371	3389
916.483	3386
916.595	3275
916.708	3329
916.82	3325
916.932	3332
917.044	3340
917.156	3332
917.268	3245
917.38	3256
917.491	3283
917.603	3351
917.715	3435
917.826	3458
917.938	3363
918.049	3249
918.161	3424
918.272	3553
918.384	3564
918.495	3450
918.606	3332
918.717	3249
918.828	3351
918.939	3378
919.05	3313
919.161	3393
919.272	3161
919.383	3272
919.494	3515
919.604	3660
919.715	3439
919.826	3424
919.936	3492
920.047	3557
920.157	3523
920.267	3774
920.378	3606
920.488	3507
920.598	3778
920.708	3907
920.818	3812
920.928	3869
921.038	4013
921.148	3960
921.258	3720
921.368	3622
921.477	3572
921.587	3534
921.697	3496
921.806	3610
921.916	3492
922.025	3321
922.134	3378
922.244	3313
922.353	3401
922.462	3253
922.571	3233
922.68	3104
922.789	3074
922.898	3138
923.007	3135
923.116	3241
923.224	3176
923.333	3180
923.442	3097
923.55	3093
923.659	3131
923.767	3230
923.876	3131
923.984	3173
924.092	3119
924.201	3192
924.309	3195
924.417	3241
924.525	3154
924.633	3245
924.741	4200
924.849	3039
924.956	3279
925.064	3116
925.172	3058
925.279	3074
925.387	3199
925.494	3184
925.602	3378
925.709	3348
925.816	3176
925.924	3287
926.031	3374
926.138	3317
926.245	3344
926.352	3241
926.459	3397
926.566	3481
926.673	3306
926.779	3237
926.886	3245
926.993	3089
927.099	3157
927.206	3051
927.312	3127
927.419	3203
927.525	3233
927.631	3272
927.737	3135
927.843	3116
927.95	3013
928.056	3093
928.162	3161
928.267	3264
928.373	3854
928.479	3306
928.585	3074
928.69	3214
928.796	3279
928.901	3157
929.007	3062
929.112	3226
929.218	3157
929.323	3165
929.428	3165
929.533	3313
929.638	3108
929.743	3150
929.848	3272
929.953	3241
930.058	3165
930.163	2986
930.267	3036
930.372	3173
930.477	3017
930.581	3279
930.685	3169
930.79	3066
930.894	3108
930.998	3089
931.103	3302
931.207	2975
931.311	2914
931.415	2914
931.519	2766
931.623	2800
