Data from test_V78500241_752.txt Node
Date: Fri Mar 25 16:20:24 CST 2022
User: usil
Spectrometer: V785-0024
Trigger mode: 0
Integration Time (sec): 4.000000E-1
Scans to average: 1
Nonlinearity correction enabled: false
Boxcar width: 0
Storing dark spectrum: false
XAxis mode: Wavelengths
Number of Pixels in Spectrum: 1024
>>>>>Begin Spectral Data<<<<<
801.071	2971
801.214	2937
801.356	2887
801.499	2910
801.641	2902
801.783	2982
801.926	3108
802.068	3024
802.211	3024
802.353	3066
802.496	2998
802.638	3043
802.78	3039
802.923	3093
803.065	3005
803.208	2922
803.35	2941
803.492	2971
803.635	2922
803.777	2746
803.919	2872
804.061	3214
804.204	2941
804.346	2933
804.488	2845
804.63	3028
804.773	2918
804.915	2929
805.057	3081
805.199	2948
805.341	2994
805.483	3089
805.626	3043
805.768	3005
805.91	3100
806.052	3119
806.194	3055
806.336	3233
806.478	3047
806.62	2975
806.762	2975
806.904	3081
807.046	3207
807.188	3047
807.33	2971
807.472	3032
807.614	2937
807.756	3009
807.898	2941
808.04	2918
808.182	2994
808.324	2994
808.465	2891
808.607	2876
808.749	2807
808.891	2868
809.033	3013
809.174	2979
809.316	2902
809.458	2906
809.6	2788
809.741	2769
809.883	2773
810.025	2849
810.166	2891
810.308	2872
810.45	2849
810.591	2811
810.733	2758
810.875	2842
811.016	2804
811.158	2785
811.299	2838
811.441	2925
811.582	2883
811.724	2830
811.865	2842
812.007	2925
812.148	2872
812.29	2891
812.431	2902
812.573	2975
812.714	2967
812.855	3070
812.997	3100
813.138	3104
813.279	3005
813.421	3005
813.562	2948
813.703	2849
813.845	2891
813.986	2800
814.127	2796
814.268	2857
814.41	2880
814.551	2796
814.692	2899
814.833	2823
814.974	2902
815.115	2960
815.256	2857
815.397	2819
815.539	2861
815.68	2792
815.821	2826
815.962	2963
816.103	2941
816.244	2876
816.385	2861
816.526	2967
816.666	2918
816.807	2750
816.948	2872
817.089	2918
817.23	2883
817.371	2785
817.512	2857
817.653	2845
817.793	2830
817.934	2883
818.075	2986
818.216	3009
818.356	3020
818.497	2861
818.638	2766
818.778	2819
818.919	2838
819.06	2796
819.2	2887
819.341	2830
819.481	2792
819.622	2925
819.762	3089
819.903	3009
820.043	2967
820.184	2922
820.324	2929
820.465	3047
820.605	3028
820.746	3047
820.886	2960
821.026	3100
821.167	3161
821.307	3237
821.447	3272
821.588	3218
821.728	3203
821.868	3211
822.008	3108
822.149	3222
822.289	3207
822.429	3116
822.569	3135
822.709	3226
822.849	3039
822.99	3104
823.13	3169
823.27	3218
823.41	3169
823.55	3184
823.69	3161
823.83	3214
823.97	3112
824.11	2998
824.25	3032
824.389	3127
824.529	3112
824.669	3089
824.809	3176
824.949	3283
825.089	3253
825.228	3123
825.368	2986
825.508	2986
825.648	2979
825.787	3055
825.927	3051
826.067	2952
826.206	2956
826.346	3066
826.485	3066
826.625	3104
826.765	3291
826.904	3256
827.044	2956
827.183	2975
827.323	2910
827.462	2994
827.601	2918
827.741	2937
827.88	2937
828.02	2823
828.159	2994
828.298	3058
828.437	3116
828.577	3077
828.716	3249
828.855	3093
828.994	2952
829.134	2845
829.273	2956
829.412	2910
829.551	2883
829.69	2906
829.829	3009
829.968	3161
830.107	3013
830.246	3032
830.385	2895
830.524	2899
830.663	2830
830.802	2750
830.941	2678
831.08	2655
831.219	2792
831.357	2796
831.496	2960
831.635	2724
831.774	2667
831.913	2670
832.051	2560
832.19	2606
832.329	2708
832.467	2530
832.606	2495
832.744	2602
832.883	2606
833.022	2575
833.16	2663
833.299	2708
833.437	2720
833.576	2716
833.714	2708
833.852	2777
833.991	2785
834.129	2853
834.267	2868
834.406	2823
834.544	2922
834.682	2876
834.821	2868
834.959	3093
835.097	2918
835.235	3066
835.373	3001
835.511	3032
835.65	3005
835.788	2963
835.926	2823
836.064	2834
836.202	2872
836.34	3100
836.478	3218
836.615	3047
836.753	3150
836.891	3233
837.029	3176
837.167	3131
837.305	3089
837.443	3070
837.58	2971
837.718	3135
837.856	3104
837.993	3066
838.131	3142
838.269	3077
838.406	3127
838.544	3081
838.681	2986
838.819	2925
838.956	2830
839.094	2842
839.231	2906
839.369	3017
839.506	3397
839.643	3245
839.781	3032
839.918	2986
840.055	3020
840.193	3047
840.33	3085
840.467	3108
840.604	3150
840.742	3405
840.879	3062
841.016	3055
841.153	3112
841.29	3355
841.427	3317
841.564	3306
841.701	3351
841.838	3226
841.975	3173
842.112	3222
842.249	3074
842.385	3081
842.522	3249
842.659	3116
842.796	3089
842.933	3093
843.069	3043
843.206	3074
843.343	3199
843.479	3093
843.616	3173
843.752	2937
843.889	2868
844.025	3066
844.162	2914
844.298	3097
844.435	2963
844.571	2937
844.708	3119
844.844	3218
844.98	3268
845.117	3203
845.253	3036
845.389	3039
845.525	3074
845.661	3131
845.798	2994
845.934	3142
846.07	3081
846.206	3253
846.342	3313
846.478	3211
846.614	3077
846.75	3051
846.886	3020
847.022	3245
847.158	3195
847.294	3226
847.429	3283
847.565	3188
847.701	3485
847.837	2990
847.972	3032
848.108	3169
848.244	3169
848.379	3009
848.515	2937
848.65	2944
848.786	2944
848.921	3001
849.057	3097
849.192	3138
849.328	3066
849.463	3135
849.598	3043
849.734	2998
849.869	2956
850.004	2925
850.14	2986
850.275	2933
850.41	2849
850.545	2876
850.68	2937
850.815	2948
850.95	3009
851.085	3203
851.22	3131
851.355	3024
851.49	2982
851.625	3005
851.76	3020
851.895	2979
852.03	2933
852.165	3043
852.299	3104
852.434	3180
852.569	3146
852.703	3180
852.838	3260
852.973	3332
853.107	3348
853.242	3138
853.376	3085
853.511	2967
853.645	3039
853.78	3241
853.914	3123
854.048	3119
854.183	3077
854.317	3131
854.451	3306
854.585	3104
854.72	3058
854.854	3226
854.988	3062
855.122	3127
855.256	2990
855.39	3070
855.524	3241
855.658	3150
855.792	3157
855.926	3180
856.06	3241
856.194	3302
856.327	3180
856.461	3097
856.595	3116
856.729	3085
856.862	3233
856.996	3176
857.13	3184
857.263	3249
857.397	3283
857.53	3131
857.664	3199
857.797	3249
857.931	3260
858.064	3192
858.197	3264
858.331	3161
858.464	3104
858.597	3024
858.731	3119
858.864	3161
858.997	3093
859.13	3203
859.263	3165
859.396	3226
859.529	3081
859.662	3074
859.795	3036
859.928	3131
860.061	3291
860.194	3279
860.327	3138
860.46	3112
860.592	3222
860.725	3230
860.858	3298
860.99	3131
861.123	3066
861.256	3039
861.388	3131
861.521	3918
861.653	3017
861.786	2975
861.918	3024
862.05	3036
862.183	3077
862.315	3131
862.447	3222
862.58	3097
862.712	2956
862.844	2883
862.976	3039
863.108	3001
863.24	3454
863.372	2929
863.504	2994
863.636	2963
863.768	3024
863.9	2986
864.032	2929
864.164	2990
864.296	3032
864.428	3058
864.559	3116
864.691	3119
864.823	3074
864.954	3047
865.086	3074
865.217	2986
865.349	2948
865.48	2960
865.612	3055
865.743	3138
865.875	3009
866.006	2937
866.137	2952
866.269	2937
866.4	2899
866.531	2944
866.662	2895
866.793	2872
866.924	2906
867.055	2990
867.186	2918
867.317	2853
867.448	2864
867.579	2849
867.71	2872
867.841	2807
867.972	2906
868.103	2883
868.233	2876
868.364	2876
868.495	2899
868.625	3062
868.756	3176
868.886	2948
869.017	3039
869.147	3150
869.278	3161
869.408	3036
869.539	3036
869.669	3074
869.799	3051
869.929	3150
870.06	3116
870.19	3302
870.32	3283
870.45	3279
870.58	3355
870.71	3435
870.84	3458
870.97	3233
871.1	3195
871.23	3504
871.36	3435
871.489	3313
871.619	3386
871.749	3382
871.879	3435
872.008	3454
872.138	3393
872.267	3211
872.397	3142
872.526	3070
872.656	3017
872.785	3085
872.915	3233
873.044	3287
873.173	3199
873.303	3264
873.432	3268
873.561	3230
873.69	3180
873.819	3150
873.948	3203
874.077	3108
874.206	3017
874.335	3085
874.464	3207
874.593	3355
874.722	3222
874.851	3397
874.979	3313
875.108	3325
875.237	3218
875.365	3116
875.494	3131
875.623	3291
875.751	3093
875.88	3077
876.008	3192
876.136	3203
876.265	3329
876.393	3523
876.521	3416
876.65	3367
876.778	3294
876.906	3233
877.034	3222
877.162	3237
877.29	3188
877.418	3264
877.546	3245
877.674	3241
877.802	3218
877.93	3207
878.058	3169
878.185	3100
878.313	3192
878.441	3211
878.568	3070
878.696	3154
878.824	3272
878.951	3272
879.079	3447
879.206	3622
879.333	3412
879.461	3336
879.588	3393
879.715	3481
879.842	3545
879.97	3401
880.097	3146
880.224	3127
880.351	3211
880.478	3218
880.605	3199
880.732	3176
880.859	3477
880.986	3306
881.112	3298
881.239	3207
881.366	3097
881.493	3017
881.619	3017
881.746	3089
881.872	3077
881.999	3085
882.125	3157
882.252	3230
882.378	3298
882.505	3401
882.631	3260
882.757	3135
882.883	3214
883.01	3161
883.136	3146
883.262	3051
883.388	3116
883.514	3302
883.64	3389
883.766	3329
883.892	3142
884.018	3245
884.143	3424
884.269	3549
884.395	3203
884.52	3142
884.646	3184
884.772	3104
884.897	3142
885.023	3253
885.148	3317
885.274	3378
885.399	3389
885.524	3272
885.65	3272
885.775	3313
885.9	3291
886.025	3405
886.15	3351
886.275	3264
886.4	3264
886.525	3272
886.65	3264
886.775	3268
886.9	3469
887.025	3675
887.149	3386
887.274	3253
887.399	3203
887.523	3214
887.648	3157
887.773	3195
887.897	3401
888.021	3344
888.146	3313
888.27	3393
888.395	3477
888.519	3424
888.643	3431
888.767	3466
888.891	3325
889.015	3245
889.139	3302
889.263	3279
889.387	3374
889.511	3477
889.635	3431
889.759	3268
889.883	3283
890.006	3389
890.13	3454
890.254	3245
890.377	3332
890.501	3211
890.624	3142
890.748	3268
890.871	3135
890.995	3066
891.118	3047
891.241	3188
891.364	3207
891.488	3298
891.611	3180
891.734	3218
891.857	3279
891.98	3230
892.103	3332
892.226	3294
892.349	3211
892.471	3116
892.594	3230
892.717	3279
892.839	3275
892.962	3298
893.085	3348
893.207	3279
893.33	3138
893.452	3203
893.575	3306
893.697	3260
893.819	3424
893.941	3507
894.064	3443
894.186	3272
894.308	3253
894.43	3466
894.552	3526
894.674	3469
894.796	3253
894.918	3348
895.04	3283
895.161	3447
895.283	3374
895.405	3325
895.526	3386
895.648	3424
895.769	3428
895.891	3500
896.012	3450
896.134	3496
896.255	3424
896.376	3386
896.498	3351
896.619	3450
896.74	3336
896.861	3435
896.982	3667
897.103	3857
897.224	3591
897.345	3526
897.466	3409
897.587	3462
897.708	3667
897.828	3530
897.949	3435
898.07	3321
898.19	3401
898.311	3580
898.431	3401
898.552	3515
898.672	3572
898.792	3599
898.913	3507
899.033	3359
899.153	3268
899.273	3195
899.393	3287
899.513	3306
899.633	3294
899.753	3348
899.873	3344
899.993	3378
900.113	3332
900.232	3382
900.352	3355
900.472	3291
900.591	3245
900.711	3313
900.83	3226
900.95	3420
901.069	3496
901.189	3355
901.308	3173
901.427	3150
901.546	3207
901.665	3272
901.784	3298
901.904	3226
902.023	3180
902.141	3005
902.26	3009
902.379	3184
902.498	3089
902.617	3093
902.735	3230
902.854	3207
902.973	3188
903.091	3043
903.21	3070
903.328	3150
903.446	3150
903.565	3100
903.683	3199
903.801	3116
903.919	3237
904.038	3310
904.156	3188
904.274	3249
904.392	3233
904.51	3253
904.627	3329
904.745	3370
904.863	3477
904.981	3268
905.098	3157
905.216	3241
905.334	3306
905.451	3279
905.569	3298
905.686	3450
905.803	3428
905.921	3272
906.038	3412
906.155	3340
906.272	3302
906.389	3332
906.506	3211
906.623	3249
906.74	3279
906.857	3146
906.974	3230
907.091	3458
907.208	3534
907.324	3481
907.441	3382
907.557	3256
907.674	3195
907.79	3214
907.907	3264
908.023	3386
908.139	3382
908.256	3313
908.372	3374
908.488	3344
908.604	3256
908.72	3184
908.836	3283
908.952	3325
909.068	3310
909.184	3424
909.3	3389
909.415	3458
909.531	3454
909.647	3283
909.762	3268
909.878	3245
909.993	3355
910.108	3351
910.224	3325
910.339	3420
910.454	3336
910.57	3287
910.685	3230
910.8	3606
910.915	3519
911.03	3454
911.145	3241
911.259	3272
911.374	3268
911.489	3218
911.604	3188
911.718	3093
911.833	3169
911.947	3032
912.062	2960
912.176	3169
912.291	3176
912.405	3237
912.519	3420
912.633	3439
912.748	3317
912.862	3264
912.976	3154
913.09	3039
913.204	3150
913.318	3165
913.431	3340
913.545	3340
913.659	3378
913.772	3336
913.886	3184
914	3203
914.113	3344
914.226	3401
914.34	3329
914.453	3222
914.566	3439
914.68	3329
914.793	3359
914.906	3131
915.019	3100
915.132	3047
915.245	3195
915.358	3184
915.47	3241
915.583	3283
915.696	3302
915.809	3386
915.921	3405
916.034	3291
916.146	3222
916.259	3237
916.371	3397
916.483	3340
916.595	3214
916.708	3336
916.82	3340
916.932	3336
917.044	3336
917.156	3336
917.268	3260
917.38	3291
917.491	3287
917.603	3367
917.715	3443
917.826	3443
917.938	3351
918.049	3268
918.161	3405
918.272	3595
918.384	3530
918.495	3488
918.606	3306
918.717	3275
918.828	3355
918.939	3431
919.05	3306
919.161	3374
919.272	3154
919.383	3245
919.494	3481
919.604	3675
919.715	3477
919.826	3378
919.936	3428
920.047	3595
920.157	3523
920.267	3778
920.378	3591
920.488	3618
920.598	3781
920.708	3956
920.818	3812
920.928	3831
921.038	4010
921.148	3956
921.258	3720
921.368	3610
921.477	3576
921.587	3568
921.697	3458
921.806	3610
921.916	3481
922.025	3336
922.134	3359
922.244	3310
922.353	3420
922.462	3264
922.571	3222
922.68	3100
922.789	3112
922.898	3142
923.007	3093
923.116	3192
923.224	3150
923.333	3211
923.442	3093
923.55	3131
923.659	3157
923.767	3222
923.876	3116
923.984	3241
924.092	3093
924.201	3199
924.309	3245
924.417	3218
924.525	3176
924.633	3233
924.741	4105
924.849	3024
924.956	3279
925.064	3104
925.172	3058
925.279	3093
925.387	3192
925.494	3169
925.602	3340
925.709	3378
925.816	3176
925.924	3272
926.031	3355
926.138	3321
926.245	3367
926.352	3230
926.459	3424
926.566	3496
926.673	3310
926.779	3260
926.886	3237
926.993	3176
927.099	3112
927.206	3097
927.312	3081
927.419	3214
927.525	3195
927.631	3298
927.737	3131
927.843	3131
927.95	3074
928.056	3150
928.162	3142
928.267	3233
928.373	3884
928.479	3298
928.585	3070
928.69	3142
928.796	3275
928.901	3173
929.007	3013
929.112	3207
929.218	3161
929.323	3135
929.428	3142
929.533	3302
929.638	3127
929.743	3142
929.848	3245
929.953	3207
930.058	3135
930.163	2986
930.267	3062
930.372	3218
930.477	3081
930.581	3287
930.685	3192
930.79	3047
930.894	3093
930.998	3074
931.103	3249
931.207	2929
931.311	2960
931.415	2944
931.519	2769
931.623	2811
