Data from test_V78500241_1872.txt Node
Date: Fri Mar 25 16:28:10 CST 2022
User: usil
Spectrometer: V785-0024
Trigger mode: 0
Integration Time (sec): 4.000000E-1
Scans to average: 1
Nonlinearity correction enabled: false
Boxcar width: 0
Storing dark spectrum: false
XAxis mode: Wavelengths
Number of Pixels in Spectrum: 1024
>>>>>Begin Spectral Data<<<<<
801.071	2922
801.214	2937
801.356	2872
801.499	2902
801.641	2857
801.783	2956
801.926	3047
802.068	3001
802.211	3017
802.353	3036
802.496	2998
802.638	3028
802.78	3089
802.923	3116
803.065	3062
803.208	2891
803.35	2925
803.492	2948
803.635	2929
803.777	2766
803.919	2902
804.061	3211
804.204	2971
804.346	2910
804.488	2838
804.63	2994
804.773	2861
804.915	2914
805.057	3116
805.199	2922
805.341	2979
805.483	3066
805.626	3005
805.768	2998
805.91	3081
806.052	3123
806.194	3051
806.336	3256
806.478	3058
806.62	2990
806.762	2990
806.904	3043
807.046	3173
807.188	3009
807.33	2929
807.472	3017
807.614	2941
807.756	3013
807.898	2944
808.04	2906
808.182	2994
808.324	2887
808.465	2868
808.607	2876
808.749	2792
808.891	2868
809.033	2979
809.174	2998
809.316	2887
809.458	2899
809.6	2800
809.741	2758
809.883	2804
810.025	2845
810.166	2868
810.308	2838
810.45	2823
810.591	2773
810.733	2762
810.875	2868
811.016	2777
811.158	2781
811.299	2811
811.441	2906
811.582	2914
811.724	2811
811.865	2792
812.007	2929
812.148	2868
812.29	2872
812.431	2868
812.573	2956
812.714	2971
812.855	3043
812.997	3024
813.138	3127
813.279	2998
813.421	3005
813.562	2941
813.703	2906
813.845	2895
813.986	2781
814.127	2766
814.268	2823
814.41	2845
814.551	2830
814.692	2895
814.833	2849
814.974	2914
815.115	2979
815.256	2838
815.397	2811
815.539	2864
815.68	2777
815.821	2800
815.962	2967
816.103	2910
816.244	2853
816.385	2868
816.526	2960
816.666	2914
816.807	2750
816.948	2918
817.089	2929
817.23	2861
817.371	2762
817.512	2796
817.653	2864
817.793	2834
817.934	2883
818.075	2960
818.216	3032
818.356	3005
818.497	2902
818.638	2807
818.778	2853
818.919	2823
819.06	2762
819.2	2883
819.341	2823
819.481	2819
819.622	2967
819.762	3097
819.903	3055
820.043	2944
820.184	2925
820.324	2899
820.465	3017
820.605	2994
820.746	3055
820.886	2933
821.026	3131
821.167	3180
821.307	3245
821.447	3268
821.588	3264
821.728	3233
821.868	3230
822.008	3108
822.149	3207
822.289	3237
822.429	3055
822.569	3085
822.709	3222
822.849	3028
822.99	3116
823.13	3146
823.27	3203
823.41	3116
823.55	3142
823.69	3131
823.83	3195
823.97	3097
824.11	3028
824.25	2982
824.389	3070
824.529	3093
824.669	3074
824.809	3237
824.949	3260
825.089	3230
825.228	3203
825.368	3043
825.508	2960
825.648	2990
825.787	3017
825.927	3024
826.067	3005
826.206	3005
826.346	3051
826.485	3108
826.625	3074
826.765	3256
826.904	3241
827.044	3017
827.183	2922
827.323	2887
827.462	2963
827.601	2952
827.741	2941
827.88	2948
828.02	2880
828.159	3005
828.298	3017
828.437	3119
828.577	3081
828.716	3249
828.855	3070
828.994	2906
829.134	2891
829.273	2971
829.412	2895
829.551	2868
829.69	2914
829.829	2982
829.968	3135
830.107	3009
830.246	3013
830.385	2922
830.524	2891
830.663	2830
830.802	2750
830.941	2648
831.08	2621
831.219	2785
831.357	2766
831.496	2994
831.635	2693
831.774	2640
831.913	2670
832.051	2552
832.19	2610
832.329	2682
832.467	2564
832.606	2511
832.744	2583
832.883	2602
833.022	2610
833.16	2670
833.299	2678
833.437	2670
833.576	2689
833.714	2724
833.852	2727
833.991	2739
834.129	2811
834.267	2823
834.406	2788
834.544	2861
834.682	2834
834.821	2861
834.959	3085
835.097	2937
835.235	3051
835.373	3009
835.511	3017
835.65	2952
835.788	2998
835.926	2842
836.064	2838
836.202	2849
836.34	3093
836.478	3127
836.615	3047
836.753	3138
836.891	3195
837.029	3161
837.167	3150
837.305	3058
837.443	3058
837.58	2967
837.718	3135
837.856	3058
837.993	3074
838.131	3127
838.269	3112
838.406	3138
838.544	3062
838.681	2941
838.819	2899
838.956	2815
839.094	2853
839.231	2922
839.369	3020
839.506	3386
839.643	3203
839.781	3009
839.918	2979
840.055	3055
840.193	3051
840.33	3070
840.467	3097
840.604	3138
840.742	3393
840.879	3036
841.016	3074
841.153	3119
841.29	3351
841.427	3287
841.564	3264
841.701	3283
841.838	3222
841.975	3161
842.112	3199
842.249	3058
842.385	3062
842.522	3222
842.659	3062
842.796	3039
842.933	3089
843.069	3043
843.206	3013
843.343	3180
843.479	3097
843.616	3150
843.752	2868
843.889	2861
844.025	3085
844.162	2883
844.298	3074
844.435	2982
844.571	2944
844.708	3085
844.844	3188
844.98	3253
845.117	3188
845.253	3036
845.389	3024
845.525	3116
845.661	3119
845.798	3032
845.934	3146
846.07	3085
846.206	3211
846.342	3313
846.478	3230
846.614	3100
846.75	3093
846.886	3028
847.022	3249
847.158	3135
847.294	3192
847.429	3245
847.565	3180
847.701	3538
847.837	2998
847.972	3024
848.108	3154
848.244	3154
848.379	2998
848.515	2925
848.65	2956
848.786	2979
848.921	2990
849.057	3135
849.192	3138
849.328	3058
849.463	3119
849.598	3039
849.734	3009
849.869	2967
850.004	2922
850.14	2952
850.275	2918
850.41	2830
850.545	2868
850.68	2937
850.815	2975
850.95	2948
851.085	3180
851.22	3131
851.355	3047
851.49	2956
851.625	2998
851.76	2998
851.895	2922
852.03	2948
852.165	3028
852.299	3138
852.434	3214
852.569	3180
852.703	3192
852.838	3237
852.973	3332
853.107	3298
853.242	3176
853.376	3077
853.511	2944
853.645	3051
853.78	3211
853.914	3123
854.048	3112
854.183	3058
854.317	3165
854.451	3302
854.585	3154
854.72	3081
854.854	3188
854.988	3055
855.122	3077
855.256	2975
855.39	3077
855.524	3233
855.658	3176
855.792	3157
855.926	3192
856.06	3199
856.194	3226
856.327	3127
856.461	3051
856.595	3081
856.729	3058
856.862	3233
856.996	3173
857.13	3211
857.263	3241
857.397	3298
857.53	3074
857.664	3199
857.797	3218
857.931	3264
858.064	3157
858.197	3211
858.331	3123
858.464	3097
858.597	3020
858.731	3165
858.864	3116
858.997	3093
859.13	3116
859.263	3188
859.396	3157
859.529	3062
859.662	3074
859.795	3070
859.928	3127
860.061	3283
860.194	3264
860.327	3146
860.46	3077
860.592	3253
860.725	3233
860.858	3272
860.99	3108
861.123	3036
861.256	3074
861.388	3154
861.521	3793
861.653	3047
861.786	2971
861.918	2979
862.05	3047
862.183	3127
862.315	3097
862.447	3222
862.58	3062
862.712	2986
862.844	2933
862.976	3036
863.108	2982
863.24	3313
863.372	2887
863.504	2971
863.636	2944
863.768	3036
863.9	3001
864.032	2918
864.164	2944
864.296	3043
864.428	3097
864.559	3116
864.691	3093
864.823	3039
864.954	3043
865.086	3017
865.217	2963
865.349	2910
865.48	2994
865.612	3017
865.743	3169
865.875	2990
866.006	2948
866.137	2994
866.269	2952
866.4	2937
866.531	2914
866.662	2883
866.793	2853
866.924	2914
867.055	2960
867.186	2925
867.317	2895
867.448	2834
867.579	2823
867.71	2826
867.841	2834
867.972	2891
868.103	2937
868.233	2895
868.364	2842
868.495	2891
868.625	3070
868.756	3119
868.886	2963
869.017	3001
869.147	3142
869.278	3142
869.408	3020
869.539	3043
869.669	3116
869.799	3032
869.929	3112
870.06	3108
870.19	3306
870.32	3253
870.45	3291
870.58	3340
870.71	3405
870.84	3420
870.97	3317
871.1	3222
871.23	3504
871.36	3416
871.489	3363
871.619	3367
871.749	3447
871.879	3405
872.008	3488
872.138	3340
872.267	3287
872.397	3135
872.526	3081
872.656	3005
872.785	3028
872.915	3249
873.044	3332
873.173	3226
873.303	3233
873.432	3241
873.561	3214
873.69	3154
873.819	3089
873.948	3226
874.077	3127
874.206	3051
874.335	3074
874.464	3218
874.593	3348
874.722	3272
874.851	3382
874.979	3363
875.108	3329
875.237	3169
875.365	3142
875.494	3165
875.623	3245
875.751	3093
875.88	3112
876.008	3157
876.136	3283
876.265	3363
876.393	3458
876.521	3382
876.65	3405
876.778	3283
876.906	3233
877.034	3195
877.162	3188
877.29	3142
877.418	3230
877.546	3241
877.674	3287
877.802	3241
877.93	3233
878.058	3142
878.185	3081
878.313	3207
878.441	3195
878.568	3070
878.696	3154
878.824	3256
878.951	3272
879.079	3454
879.206	3595
879.333	3424
879.461	3321
879.588	3325
879.715	3477
879.842	3572
879.97	3386
880.097	3173
880.224	3131
880.351	3169
880.478	3211
880.605	3165
880.732	3184
880.859	3492
880.986	3291
881.112	3275
881.239	3165
881.366	3104
881.493	3032
881.619	3009
881.746	3097
881.872	3074
881.999	3108
882.125	3154
882.252	3230
882.378	3310
882.505	3439
882.631	3260
882.757	3112
882.883	3203
883.01	3184
883.136	3150
883.262	3104
883.388	3112
883.514	3317
883.64	3367
883.766	3279
883.892	3199
884.018	3222
884.143	3405
884.269	3504
884.395	3176
884.52	3146
884.646	3176
884.772	3123
884.897	3146
885.023	3211
885.148	3332
885.274	3393
885.399	3424
885.524	3283
885.65	3256
885.775	3275
885.9	3237
886.025	3462
886.15	3344
886.275	3268
886.4	3207
886.525	3302
886.65	3283
886.775	3302
886.9	3538
887.025	3606
887.149	3428
887.274	3241
887.399	3150
887.523	3222
887.648	3203
887.773	3241
887.897	3382
888.021	3351
888.146	3321
888.27	3412
888.395	3526
888.519	3439
888.643	3431
888.767	3485
888.891	3287
889.015	3253
889.139	3298
889.263	3233
889.387	3382
889.511	3526
889.635	3428
889.759	3268
889.883	3298
890.006	3367
890.13	3496
890.254	3298
890.377	3298
890.501	3203
890.624	3184
890.748	3302
890.871	3184
890.995	3127
891.118	3058
891.241	3154
891.364	3226
891.488	3332
891.611	3180
891.734	3233
891.857	3264
891.98	3233
892.103	3321
892.226	3264
892.349	3207
892.471	3104
892.594	3233
892.717	3268
892.839	3279
892.962	3306
893.085	3306
893.207	3272
893.33	3169
893.452	3233
893.575	3340
893.697	3233
893.819	3450
893.941	3488
894.064	3454
894.186	3249
894.308	3272
894.43	3393
894.552	3500
894.674	3401
894.796	3256
894.918	3298
895.04	3313
895.161	3439
895.283	3397
895.405	3317
895.526	3378
895.648	3466
895.769	3443
895.891	3454
896.012	3473
896.134	3481
896.255	3405
896.376	3389
896.498	3386
896.619	3367
896.74	3401
896.861	3386
896.982	3671
897.103	3850
897.224	3584
897.345	3488
897.466	3450
897.587	3492
897.708	3629
897.828	3564
897.949	3439
898.07	3340
898.19	3409
898.311	3572
898.431	3450
898.552	3526
898.672	3606
898.792	3553
898.913	3504
899.033	3389
899.153	3275
899.273	3226
899.393	3249
899.513	3336
899.633	3351
899.753	3313
899.873	3283
899.993	3351
900.113	3313
900.232	3370
900.352	3367
900.472	3298
900.591	3222
900.711	3272
900.83	3241
900.95	3424
901.069	3447
901.189	3332
901.308	3146
901.427	3180
901.546	3199
901.665	3256
901.784	3340
901.904	3199
902.023	3142
902.141	2998
902.26	2975
902.379	3119
902.498	3062
902.617	3066
902.735	3233
902.854	3214
902.973	3184
903.091	3036
903.21	3062
903.328	3150
903.446	3119
903.565	3081
903.683	3195
903.801	3119
903.919	3188
904.038	3283
904.156	3138
904.274	3264
904.392	3268
904.51	3260
904.627	3317
904.745	3439
904.863	3469
904.981	3272
905.098	3192
905.216	3188
905.334	3272
905.451	3291
905.569	3317
905.686	3420
905.803	3458
905.921	3287
906.038	3428
906.155	3321
906.272	3272
906.389	3294
906.506	3256
906.623	3241
906.74	3241
906.857	3169
906.974	3230
907.091	3450
907.208	3606
907.324	3469
907.441	3340
907.557	3230
907.674	3226
907.79	3199
907.907	3279
908.023	3393
908.139	3359
908.256	3336
908.372	3363
908.488	3340
908.604	3241
908.72	3237
908.836	3294
908.952	3279
909.068	3340
909.184	3496
909.3	3401
909.415	3515
909.531	3431
909.647	3302
909.762	3294
909.878	3233
909.993	3336
910.108	3306
910.224	3302
910.339	3393
910.454	3306
910.57	3298
910.685	3256
910.8	3603
910.915	3519
911.03	3416
911.145	3233
911.259	3253
911.374	3310
911.489	3260
911.604	3226
911.718	3142
911.833	3173
911.947	3017
912.062	2994
912.176	3195
912.291	3173
912.405	3214
912.519	3374
912.633	3439
912.748	3344
912.862	3253
912.976	3165
913.09	3055
913.204	3097
913.318	3192
913.431	3283
913.545	3294
913.659	3386
913.772	3313
913.886	3245
914	3207
914.113	3325
914.226	3428
914.34	3359
914.453	3245
914.566	3447
914.68	3287
914.793	3336
914.906	3176
915.019	3108
915.132	3051
915.245	3211
915.358	3184
915.47	3203
915.583	3291
915.696	3256
915.809	3431
915.921	3416
916.034	3249
916.146	3260
916.259	3192
916.371	3344
916.483	3389
916.595	3272
916.708	3344
916.82	3363
916.932	3329
917.044	3351
917.156	3348
917.268	3245
917.38	3275
917.491	3291
917.603	3389
917.715	3435
917.826	3477
917.938	3393
918.049	3283
918.161	3401
918.272	3519
918.384	3553
918.495	3477
918.606	3329
918.717	3283
918.828	3367
918.939	3401
919.05	3294
919.161	3374
919.272	3180
919.383	3268
919.494	3515
919.604	3663
919.715	3504
919.826	3409
919.936	3473
920.047	3576
920.157	3538
920.267	3755
920.378	3587
920.488	3561
920.598	3766
920.708	3926
920.818	3812
920.928	3808
921.038	4010
921.148	3972
921.258	3709
921.368	3644
921.477	3576
921.587	3507
921.697	3469
921.806	3667
921.916	3515
922.025	3321
922.134	3313
922.244	3302
922.353	3431
922.462	3256
922.571	3241
922.68	3070
922.789	3089
922.898	3131
923.007	3100
923.116	3184
923.224	3161
923.333	3161
923.442	3131
923.55	3112
923.659	3138
923.767	3199
923.876	3157
923.984	3230
924.092	3085
924.201	3222
924.309	3157
924.417	3233
924.525	3176
924.633	3241
924.741	4013
924.849	3070
924.956	3287
925.064	3081
925.172	2986
925.279	3070
925.387	3165
925.494	3199
925.602	3397
925.709	3355
925.816	3188
925.924	3233
926.031	3363
926.138	3329
926.245	3340
926.352	3272
926.459	3389
926.566	3485
926.673	3302
926.779	3249
926.886	3256
926.993	3161
927.099	3138
927.206	3100
927.312	3123
927.419	3237
927.525	3180
927.631	3249
927.737	3157
927.843	3138
927.95	3001
928.056	3108
928.162	3176
928.267	3291
928.373	3682
928.479	3325
928.585	3055
928.69	3184
928.796	3272
928.901	3123
929.007	3039
929.112	3180
929.218	3169
929.323	3146
929.428	3165
929.533	3325
929.638	3119
929.743	3131
929.848	3230
929.953	3222
930.058	3154
930.163	3005
930.267	3043
930.372	3245
930.477	3047
930.581	3313
930.685	3195
930.79	3020
930.894	3104
930.998	3085
931.103	3272
931.207	2967
931.311	2944
931.415	2922
931.519	2781
931.623	2823
