Data from test_V78500241_33.txt Node
Date: Fri Mar 25 16:15:25 CST 2022
User: usil
Spectrometer: V785-0024
Trigger mode: 0
Integration Time (sec): 4.000000E-1
Scans to average: 1
Nonlinearity correction enabled: false
Boxcar width: 0
Storing dark spectrum: false
XAxis mode: Wavelengths
Number of Pixels in Spectrum: 1024
>>>>>Begin Spectral Data<<<<<
801.071	2948
801.214	2975
801.356	2910
801.499	2929
801.641	2914
801.783	2925
801.926	3066
802.068	3043
802.211	3070
802.353	3108
802.496	3001
802.638	3036
802.78	3070
802.923	3138
803.065	3039
803.208	2883
803.35	2948
803.492	2982
803.635	2952
803.777	2807
803.919	2918
804.061	3264
804.204	2967
804.346	2925
804.488	2910
804.63	3028
804.773	2918
804.915	2963
805.057	3127
805.199	2967
805.341	3005
805.483	3077
805.626	3039
805.768	2994
805.91	3123
806.052	3119
806.194	3074
806.336	3291
806.478	3062
806.62	3001
806.762	2998
806.904	3108
807.046	3184
807.188	3017
807.33	2960
807.472	3039
807.614	2933
807.756	3028
807.898	2963
808.04	2944
808.182	3005
808.324	2971
808.465	2891
808.607	2918
808.749	2788
808.891	2864
809.033	3001
809.174	2979
809.316	2925
809.458	2906
809.6	2796
809.741	2796
809.883	2792
810.025	2864
810.166	2895
810.308	2880
810.45	2891
810.591	2792
810.733	2796
810.875	2906
811.016	2830
811.158	2830
811.299	2845
811.441	2941
811.582	2937
811.724	2853
811.865	2880
812.007	2941
812.148	2918
812.29	2902
812.431	2910
812.573	2998
812.714	3024
812.855	3055
812.997	3081
813.138	3161
813.279	3001
813.421	3028
813.562	2986
813.703	2914
813.845	2963
813.986	2819
814.127	2762
814.268	2864
814.41	2864
814.551	2834
814.692	2922
814.833	2902
814.974	2956
815.115	2975
815.256	2849
815.397	2864
815.539	2902
815.68	2823
815.821	2842
815.962	2960
816.103	3009
816.244	2933
816.385	2899
816.526	3017
816.666	2944
816.807	2766
816.948	2899
817.089	2933
817.23	2895
817.371	2804
817.512	2826
817.653	2902
817.793	2819
817.934	2895
818.075	2986
818.216	3020
818.356	3093
818.497	2891
818.638	2804
818.778	2876
818.919	2830
819.06	2796
819.2	2902
819.341	2861
819.481	2792
819.622	2960
819.762	3119
819.903	3108
820.043	2944
820.184	2929
820.324	2956
820.465	3066
820.605	3058
820.746	3077
820.886	2952
821.026	3127
821.167	3195
821.307	3313
821.447	3355
821.588	3291
821.728	3180
821.868	3264
822.008	3119
822.149	3199
822.289	3264
822.429	3112
822.569	3127
822.709	3230
822.849	3108
822.99	3093
823.13	3226
823.27	3226
823.41	3157
823.55	3165
823.69	3192
823.83	3279
823.97	3112
824.11	3047
824.25	3051
824.389	3123
824.529	3146
824.669	3127
824.809	3230
824.949	3310
825.089	3279
825.228	3253
825.368	3051
825.508	2998
825.648	3024
825.787	3047
825.927	3070
826.067	3001
826.206	2998
826.346	3058
826.485	3089
826.625	3119
826.765	3294
826.904	3237
827.044	3085
827.183	2967
827.323	2899
827.462	3032
827.601	2944
827.741	2963
827.88	3005
828.02	2906
828.159	2990
828.298	3119
828.437	3135
828.577	3081
828.716	3275
828.855	3142
828.994	2982
829.134	2902
829.273	2929
829.412	2902
829.551	2910
829.69	2914
829.829	3028
829.968	3169
830.107	3017
830.246	3051
830.385	2929
830.524	2937
830.663	2845
830.802	2750
830.941	2674
831.08	2674
831.219	2800
831.357	2781
831.496	2986
831.635	2811
831.774	2686
831.913	2674
832.051	2568
832.19	2560
832.329	2705
832.467	2541
832.606	2533
832.744	2636
832.883	2575
833.022	2598
833.16	2655
833.299	2693
833.437	2727
833.576	2727
833.714	2746
833.852	2785
833.991	2792
834.129	2891
834.267	2864
834.406	2830
834.544	2906
834.682	2941
834.821	2914
834.959	3108
835.097	2941
835.235	3123
835.373	3043
835.511	3036
835.65	3017
835.788	2971
835.926	2861
836.064	2838
836.202	2857
836.34	3142
836.478	3176
836.615	3097
836.753	3127
836.891	3272
837.029	3214
837.167	3119
837.305	3112
837.443	3085
837.58	3036
837.718	3188
837.856	3077
837.993	3055
838.131	3173
838.269	3123
838.406	3100
838.544	3135
838.681	2986
838.819	2979
838.956	2857
839.094	2876
839.231	2937
839.369	3062
839.506	3412
839.643	3268
839.781	3062
839.918	2986
840.055	3077
840.193	3043
840.33	3104
840.467	3142
840.604	3180
840.742	3469
840.879	3100
841.016	3093
841.153	3116
841.29	3351
841.427	3321
841.564	3348
841.701	3351
841.838	3260
841.975	3233
842.112	3233
842.249	3112
842.385	3070
842.522	3291
842.659	3104
842.796	3085
842.933	3116
843.069	3108
843.206	3055
843.343	3230
843.479	3150
843.616	3173
843.752	2922
843.889	2910
844.025	3108
844.162	2918
844.298	3108
844.435	2986
844.571	2914
844.708	3119
844.844	3253
844.98	3245
845.117	3230
845.253	3074
845.389	3062
845.525	3127
845.661	3116
845.798	3055
845.934	3165
846.07	3077
846.206	3230
846.342	3363
846.478	3291
846.614	3127
846.75	3116
846.886	3089
847.022	3321
847.158	3180
847.294	3222
847.429	3287
847.565	3272
847.701	3576
847.837	3058
847.972	3020
848.108	3173
848.244	3192
848.379	3013
848.515	2979
848.65	2990
848.786	2998
848.921	3036
849.057	3097
849.192	3195
849.328	3070
849.463	3142
849.598	3062
849.734	3074
849.869	2979
850.004	2979
850.14	2963
850.275	2963
850.41	2899
850.545	2925
850.68	2906
850.815	3009
850.95	2994
851.085	3245
851.22	3154
851.355	3108
851.49	3043
851.625	3047
851.76	3055
851.895	2960
852.03	2944
852.165	3028
852.299	3150
852.434	3237
852.569	3192
852.703	3203
852.838	3310
852.973	3397
853.107	3355
853.242	3195
853.376	3104
853.511	3001
853.645	3089
853.78	3245
853.914	3108
854.048	3138
854.183	3123
854.317	3157
854.451	3340
854.585	3146
854.72	3112
854.854	3253
854.988	3100
855.122	3123
855.256	2979
855.39	3157
855.524	3272
855.658	3203
855.792	3199
855.926	3203
856.06	3279
856.194	3298
856.327	3192
856.461	3127
856.595	3093
856.729	3161
856.862	3279
856.996	3203
857.13	3222
857.263	3268
857.397	3302
857.53	3157
857.664	3222
857.797	3298
857.931	3294
858.064	3211
858.197	3264
858.331	3157
858.464	3116
858.597	3047
858.731	3165
858.864	3188
858.997	3116
859.13	3188
859.263	3207
859.396	3249
859.529	3135
859.662	3138
859.795	3108
859.928	3169
860.061	3317
860.194	3306
860.327	3211
860.46	3131
860.592	3256
860.725	3275
860.858	3279
860.99	3108
861.123	3074
861.256	3077
861.388	3199
861.521	3922
861.653	3043
861.786	3017
861.918	3043
862.05	3066
862.183	3146
862.315	3188
862.447	3222
862.58	3112
862.712	2994
862.844	2906
862.976	3043
863.108	3051
863.24	3412
863.372	2914
863.504	3028
863.636	3009
863.768	3043
863.9	3017
864.032	2967
864.164	2941
864.296	3070
864.428	3108
864.559	3146
864.691	3127
864.823	3104
864.954	3058
865.086	3070
865.217	3001
865.349	2986
865.48	3009
865.612	3024
865.743	3203
865.875	3013
866.006	2914
866.137	3017
866.269	2952
866.4	2990
866.531	2918
866.662	2922
866.793	2906
866.924	2967
867.055	3017
867.186	2952
867.317	2922
867.448	2880
867.579	2842
867.71	2861
867.841	2853
867.972	2922
868.103	2922
868.233	2891
868.364	2918
868.495	2902
868.625	3123
868.756	3214
868.886	2990
869.017	3024
869.147	3188
869.278	3233
869.408	3123
869.539	3055
869.669	3142
869.799	3074
869.929	3161
870.06	3169
870.19	3367
870.32	3340
870.45	3359
870.58	3401
870.71	3488
870.84	3519
870.97	3363
871.1	3283
871.23	3519
871.36	3481
871.489	3397
871.619	3431
871.749	3443
871.879	3462
872.008	3545
872.138	3405
872.267	3325
872.397	3188
872.526	3150
872.656	3036
872.785	3135
872.915	3264
873.044	3332
873.173	3268
873.303	3294
873.432	3310
873.561	3291
873.69	3188
873.819	3218
873.948	3222
874.077	3146
874.206	3055
874.335	3089
874.464	3279
874.593	3348
874.722	3268
874.851	3439
874.979	3416
875.108	3355
875.237	3230
875.365	3184
875.494	3173
875.623	3310
875.751	3104
875.88	3138
876.008	3207
876.136	3230
876.265	3428
876.393	3568
876.521	3462
876.65	3420
876.778	3389
876.906	3256
877.034	3245
877.162	3291
877.29	3233
877.418	3260
877.546	3275
877.674	3298
877.802	3272
877.93	3237
878.058	3199
878.185	3154
878.313	3237
878.441	3237
878.568	3074
878.696	3154
878.824	3291
878.951	3351
879.079	3504
879.206	3675
879.333	3454
879.461	3393
879.588	3382
879.715	3564
879.842	3618
879.97	3447
880.097	3218
880.224	3165
880.351	3226
880.478	3230
880.605	3222
880.732	3237
880.859	3557
880.986	3332
881.112	3306
881.239	3249
881.366	3154
881.493	3043
881.619	3028
881.746	3104
881.872	3138
881.999	3146
882.125	3203
882.252	3249
882.378	3321
882.505	3447
882.631	3313
882.757	3173
882.883	3222
883.01	3207
883.136	3173
883.262	3104
883.388	3146
883.514	3367
883.64	3409
883.766	3317
883.892	3245
884.018	3291
884.143	3462
884.269	3580
884.395	3237
884.52	3180
884.646	3230
884.772	3150
884.897	3131
885.023	3249
885.148	3359
885.274	3382
885.399	3443
885.524	3294
885.65	3283
885.775	3397
885.9	3283
886.025	3435
886.15	3416
886.275	3340
886.4	3245
886.525	3332
886.65	3363
886.775	3336
886.9	3549
887.025	3667
887.149	3511
887.274	3272
887.399	3260
887.523	3245
887.648	3218
887.773	3241
887.897	3401
888.021	3469
888.146	3416
888.27	3523
888.395	3633
888.519	3485
888.643	3523
888.767	3542
888.891	3378
889.015	3306
889.139	3351
889.263	3321
889.387	3523
889.511	3553
889.635	3545
889.759	3348
889.883	3359
890.006	3466
890.13	3561
890.254	3370
890.377	3393
890.501	3241
890.624	3279
890.748	3359
890.871	3272
890.995	3169
891.118	3142
891.241	3272
891.364	3321
891.488	3447
891.611	3233
891.734	3313
891.857	3393
891.98	3325
892.103	3412
892.226	3351
892.349	3321
892.471	3165
892.594	3351
892.717	3405
892.839	3340
892.962	3374
893.085	3412
893.207	3405
893.33	3203
893.452	3291
893.575	3424
893.697	3374
893.819	3530
893.941	3606
894.064	3542
894.186	3336
894.308	3382
894.43	3526
894.552	3610
894.674	3545
894.796	3310
894.918	3397
895.04	3401
895.161	3488
895.283	3488
895.405	3420
895.526	3443
895.648	3523
895.769	3492
895.891	3526
896.012	3614
896.134	3534
896.255	3500
896.376	3481
896.498	3477
896.619	3538
896.74	3454
896.861	3534
896.982	3740
897.103	3953
897.224	3656
897.345	3625
897.466	3534
897.587	3568
897.708	3740
897.828	3625
897.949	3515
898.07	3405
898.19	3481
898.311	3728
898.431	3530
898.552	3622
898.672	3682
898.792	3682
898.913	3622
899.033	3515
899.153	3405
899.273	3294
899.393	3374
899.513	3409
899.633	3386
899.753	3454
899.873	3355
899.993	3424
900.113	3420
900.232	3428
900.352	3378
900.472	3363
900.591	3321
900.711	3359
900.83	3344
900.95	3496
901.069	3625
901.189	3443
901.308	3287
901.427	3199
901.546	3287
901.665	3355
901.784	3359
901.904	3264
902.023	3203
902.141	3070
902.26	3066
902.379	3272
902.498	3142
902.617	3138
902.735	3310
902.854	3321
902.973	3291
903.091	3097
903.21	3119
903.328	3199
903.446	3184
903.565	3188
903.683	3268
903.801	3199
903.919	3344
904.038	3363
904.156	3241
904.274	3397
904.392	3317
904.51	3393
904.627	3435
904.745	3496
904.863	3587
904.981	3336
905.098	3222
905.216	3287
905.334	3382
905.451	3374
905.569	3378
905.686	3492
905.803	3542
905.921	3401
906.038	3519
906.155	3428
906.272	3355
906.389	3450
906.506	3279
906.623	3313
906.74	3363
906.857	3264
906.974	3321
907.091	3488
907.208	3641
907.324	3553
907.441	3450
907.557	3249
907.674	3268
907.79	3291
907.907	3348
908.023	3439
908.139	3420
908.256	3397
908.372	3435
908.488	3462
908.604	3355
908.72	3325
908.836	3386
908.952	3336
909.068	3378
909.184	3564
909.3	3462
909.415	3599
909.531	3584
909.647	3374
909.762	3340
909.878	3325
909.993	3458
910.108	3382
910.224	3405
910.339	3519
910.454	3424
910.57	3363
910.685	3325
910.8	3686
910.915	3644
911.03	3572
911.145	3378
911.259	3359
911.374	3382
911.489	3325
911.604	3317
911.718	3211
911.833	3237
911.947	3112
912.062	3089
912.176	3233
912.291	3302
912.405	3306
912.519	3523
912.633	3591
912.748	3412
912.862	3302
912.976	3283
913.09	3112
913.204	3249
913.318	3275
913.431	3443
913.545	3409
913.659	3504
913.772	3435
913.886	3287
914	3302
914.113	3439
914.226	3523
914.34	3428
914.453	3317
914.566	3500
914.68	3340
914.793	3382
914.906	3233
915.019	3180
915.132	3184
915.245	3249
915.358	3287
915.47	3298
915.583	3298
915.696	3405
915.809	3466
915.921	3492
916.034	3336
916.146	3355
916.259	3298
916.371	3458
916.483	3431
916.595	3344
916.708	3447
916.82	3405
916.932	3443
917.044	3431
917.156	3439
917.268	3321
917.38	3397
917.491	3351
917.603	3443
917.715	3572
917.826	3568
917.938	3420
918.049	3313
918.161	3507
918.272	3663
918.384	3667
918.495	3618
918.606	3428
918.717	3378
918.828	3428
918.939	3530
919.05	3389
919.161	3447
919.272	3253
919.383	3367
919.494	3549
919.604	3755
919.715	3534
919.826	3488
919.936	3561
920.047	3679
920.157	3618
920.267	3861
920.378	3694
920.488	3682
920.598	3884
920.708	4051
920.818	3907
920.928	3907
921.038	4120
921.148	4124
921.258	3781
921.368	3709
921.477	3660
921.587	3622
921.697	3545
921.806	3720
921.916	3606
922.025	3405
922.134	3424
922.244	3393
922.353	3450
922.462	3310
922.571	3268
922.68	3165
922.789	3169
922.898	3249
923.007	3165
923.116	3264
923.224	3287
923.333	3272
923.442	3176
923.55	3207
923.659	3211
923.767	3218
923.876	3188
923.984	3317
924.092	3161
924.201	3275
924.309	3291
924.417	3355
924.525	3268
924.633	3291
924.741	4295
924.849	3112
924.956	3363
925.064	3161
925.172	3108
925.279	3165
925.387	3294
925.494	3237
925.602	3458
925.709	3397
925.816	3279
925.924	3370
926.031	3488
926.138	3405
926.245	3428
926.352	3302
926.459	3469
926.566	3549
926.673	3374
926.779	3321
926.886	3344
926.993	3207
927.099	3173
927.206	3150
927.312	3241
927.419	3272
927.525	3260
927.631	3374
927.737	3192
927.843	3180
927.95	3085
928.056	3214
928.162	3249
928.267	3329
928.373	3831
928.479	3382
928.585	3150
928.69	3279
928.796	3363
928.901	3195
929.007	3131
929.112	3302
929.218	3218
929.323	3211
929.428	3157
929.533	3351
929.638	3211
929.743	3249
929.848	3313
929.953	3253
930.058	3173
930.163	3089
930.267	3119
930.372	3291
930.477	3104
930.581	3374
930.685	3245
930.79	3085
930.894	3150
930.998	3173
931.103	3355
931.207	3051
931.311	3024
931.415	2971
931.519	2853
931.623	2864
