Data from test_V78500241_1672.txt Node
Date: Fri Mar 25 16:26:47 CST 2022
User: usil
Spectrometer: V785-0024
Trigger mode: 0
Integration Time (sec): 4.000000E-1
Scans to average: 1
Nonlinearity correction enabled: false
Boxcar width: 0
Storing dark spectrum: false
XAxis mode: Wavelengths
Number of Pixels in Spectrum: 1024
>>>>>Begin Spectral Data<<<<<
801.071	2914
801.214	2933
801.356	2895
801.499	2845
801.641	2872
801.783	2895
801.926	3074
802.068	2952
802.211	2967
802.353	3009
802.496	2944
802.638	3005
802.78	2982
802.923	3020
803.065	3009
803.208	2872
803.35	2880
803.492	2956
803.635	2925
803.777	2777
803.919	2872
804.061	3195
804.204	2933
804.346	2910
804.488	2815
804.63	2944
804.773	2883
804.915	2933
805.057	3066
805.199	2944
805.341	2986
805.483	3043
805.626	3013
805.768	2948
805.91	3112
806.052	3112
806.194	3043
806.336	3214
806.478	3017
806.62	2922
806.762	2952
806.904	3081
807.046	3161
807.188	2986
807.33	2883
807.472	2986
807.614	2880
807.756	2941
807.898	2922
808.04	2845
808.182	2990
808.324	2937
808.465	2891
808.607	2849
808.749	2769
808.891	2842
809.033	2933
809.174	2952
809.316	2861
809.458	2906
809.6	2758
809.741	2750
809.883	2785
810.025	2853
810.166	2842
810.308	2823
810.45	2853
810.591	2762
810.733	2731
810.875	2811
811.016	2750
811.158	2746
811.299	2826
811.441	2933
811.582	2883
811.724	2781
811.865	2830
812.007	2922
812.148	2883
812.29	2823
812.431	2864
812.573	2948
812.714	2937
812.855	3036
812.997	3028
813.138	3108
813.279	3001
813.421	2944
813.562	2922
813.703	2880
813.845	2922
813.986	2754
814.127	2731
814.268	2849
814.41	2838
814.551	2788
814.692	2925
814.833	2842
814.974	2891
815.115	2922
815.256	2838
815.397	2800
815.539	2853
815.68	2750
815.821	2777
815.962	2918
816.103	2937
816.244	2857
816.385	2823
816.526	2975
816.666	2899
816.807	2762
816.948	2876
817.089	2925
817.23	2845
817.371	2796
817.512	2785
817.653	2842
817.793	2842
817.934	2849
818.075	2944
818.216	2986
818.356	2990
818.497	2910
818.638	2746
818.778	2773
818.919	2781
819.06	2743
819.2	2880
819.341	2811
819.481	2758
819.622	2925
819.762	3085
819.903	3039
820.043	2891
820.184	2891
820.324	2910
820.465	2998
820.605	2990
820.746	3017
820.886	2937
821.026	3077
821.167	3131
821.307	3256
821.447	3268
821.588	3241
821.728	3199
821.868	3184
822.008	3062
822.149	3146
822.289	3237
822.429	3104
822.569	3097
822.709	3161
822.849	3017
822.99	3032
823.13	3119
823.27	3241
823.41	3131
823.55	3157
823.69	3131
823.83	3165
823.97	3089
824.11	2971
824.25	3024
824.389	3081
824.529	3104
824.669	3070
824.809	3154
824.949	3249
825.089	3268
825.228	3180
825.368	3032
825.508	2963
825.648	2956
825.787	3036
825.927	3020
826.067	2994
826.206	2948
826.346	3032
826.485	3062
826.625	3116
826.765	3256
826.904	3245
827.044	2971
827.183	2952
827.323	2861
827.462	2975
827.601	2933
827.741	2925
827.88	2944
828.02	2849
828.159	2990
828.298	3020
828.437	3093
828.577	3013
828.716	3233
828.855	3097
828.994	2918
829.134	2887
829.273	2933
829.412	2864
829.551	2857
829.69	2849
829.829	2975
829.968	3112
830.107	2990
830.246	2994
830.385	2918
830.524	2849
830.663	2796
830.802	2750
830.941	2629
831.08	2636
831.219	2758
831.357	2750
831.496	2967
831.635	2708
831.774	2644
831.913	2663
832.051	2549
832.19	2579
832.329	2682
832.467	2514
832.606	2507
832.744	2594
832.883	2568
833.022	2594
833.16	2663
833.299	2682
833.437	2739
833.576	2678
833.714	2720
833.852	2712
833.991	2712
834.129	2815
834.267	2842
834.406	2796
834.544	2861
834.682	2857
834.821	2834
834.959	3077
835.097	2880
835.235	3024
835.373	2975
835.511	3032
835.65	2941
835.788	2933
835.926	2804
836.064	2792
836.202	2830
836.34	3066
836.478	3169
836.615	3020
836.753	3119
836.891	3192
837.029	3123
837.167	3089
837.305	3036
837.443	3051
837.58	2952
837.718	3142
837.856	3028
837.993	3043
838.131	3112
838.269	3089
838.406	3062
838.544	3081
838.681	2948
838.819	2880
838.956	2807
839.094	2815
839.231	2895
839.369	3009
839.506	3332
839.643	3195
839.781	2994
839.918	2960
840.055	3074
840.193	3104
840.33	3039
840.467	3112
840.604	3112
840.742	3374
840.879	3009
841.016	3009
841.153	3146
841.29	3306
841.427	3260
841.564	3268
841.701	3317
841.838	3195
841.975	3161
842.112	3230
842.249	3058
842.385	3043
842.522	3256
842.659	3070
842.796	3039
842.933	3062
843.069	3047
843.206	3036
843.343	3165
843.479	3055
843.616	3150
843.752	2902
843.889	2876
844.025	3047
844.162	2880
844.298	3043
844.435	2952
844.571	2883
844.708	3077
844.844	3150
844.98	3218
845.117	3150
845.253	3074
845.389	3017
845.525	3066
845.661	3085
845.798	2967
845.934	3135
846.07	3100
846.206	3214
846.342	3283
846.478	3218
846.614	3062
846.75	3100
846.886	3013
847.022	3260
847.158	3135
847.294	3214
847.429	3180
847.565	3199
847.701	3454
847.837	3009
847.972	2937
848.108	3173
848.244	3119
848.379	2982
848.515	2975
848.65	2914
848.786	2971
848.921	3009
849.057	3074
849.192	3131
849.328	3058
849.463	3066
849.598	3058
849.734	3017
849.869	2952
850.004	2891
850.14	2967
850.275	2868
850.41	2853
850.545	2899
850.68	2952
850.815	2948
850.95	2979
851.085	3195
851.22	3066
851.355	2982
851.49	2941
851.625	2994
851.76	3017
851.895	2929
852.03	2929
852.165	3028
852.299	3081
852.434	3180
852.569	3104
852.703	3161
852.838	3207
852.973	3306
853.107	3302
853.242	3085
853.376	3081
853.511	2956
853.645	3020
853.78	3199
853.914	3127
854.048	3055
854.183	3051
854.317	3146
854.451	3294
854.585	3112
854.72	3070
854.854	3184
854.988	3032
855.122	3070
855.256	2933
855.39	3116
855.524	3222
855.658	3138
855.792	3116
855.926	3203
856.06	3233
856.194	3283
856.327	3142
856.461	3112
856.595	3077
856.729	3070
856.862	3214
856.996	3184
857.13	3176
857.263	3218
857.397	3256
857.53	3150
857.664	3173
857.797	3195
857.931	3199
858.064	3161
858.197	3245
858.331	3100
858.464	3077
858.597	2990
858.731	3085
858.864	3127
858.997	3074
859.13	3173
859.263	3161
859.396	3169
859.529	3100
859.662	2990
859.795	3039
859.928	3131
860.061	3241
860.194	3291
860.327	3127
860.46	3070
860.592	3222
860.725	3256
860.858	3283
860.99	3077
861.123	3039
861.256	3005
861.388	3127
861.521	3865
861.653	3005
861.786	3001
861.918	2956
862.05	3074
862.183	3081
862.315	3161
862.447	3222
862.58	3047
862.712	2948
862.844	2853
862.976	3051
863.108	2990
863.24	3386
863.372	2857
863.504	2929
863.636	2971
863.768	3028
863.9	2986
864.032	2952
864.164	2918
864.296	3039
864.428	3051
864.559	3104
864.691	3051
864.823	3036
864.954	3039
865.086	3020
865.217	2982
865.349	2922
865.48	3009
865.612	2990
865.743	3131
865.875	2967
866.006	2937
866.137	2960
866.269	2925
866.4	2922
866.531	2910
866.662	2891
866.793	2872
866.924	2876
867.055	2952
867.186	2899
867.317	2883
867.448	2838
867.579	2826
867.71	2842
867.841	2788
867.972	2864
868.103	2857
868.233	2872
868.364	2842
868.495	2868
868.625	3077
868.756	3195
868.886	2925
869.017	2994
869.147	3138
869.278	3157
869.408	3036
869.539	3005
869.669	3112
869.799	3017
869.929	3100
870.06	3077
870.19	3310
870.32	3291
870.45	3275
870.58	3348
870.71	3458
870.84	3428
870.97	3287
871.1	3222
871.23	3458
871.36	3393
871.489	3317
871.619	3393
871.749	3412
871.879	3393
872.008	3439
872.138	3325
872.267	3268
872.397	3150
872.526	3093
872.656	2986
872.785	3112
872.915	3237
873.044	3283
873.173	3176
873.303	3245
873.432	3249
873.561	3211
873.69	3169
873.819	3203
873.948	3161
874.077	3081
874.206	3024
874.335	3047
874.464	3176
874.593	3336
874.722	3256
874.851	3386
874.979	3340
875.108	3321
875.237	3154
875.365	3142
875.494	3108
875.623	3203
875.751	3047
875.88	3081
876.008	3123
876.136	3222
876.265	3336
876.393	3488
876.521	3401
876.65	3367
876.778	3291
876.906	3226
877.034	3131
877.162	3226
877.29	3169
877.418	3214
877.546	3249
877.674	3207
877.802	3222
877.93	3184
878.058	3138
878.185	3108
878.313	3195
878.441	3184
878.568	3097
878.696	3131
878.824	3207
878.951	3272
879.079	3420
879.206	3599
879.333	3393
879.461	3291
879.588	3336
879.715	3488
879.842	3568
879.97	3393
880.097	3154
880.224	3089
880.351	3176
880.478	3211
880.605	3203
880.732	3165
880.859	3473
880.986	3291
881.112	3344
881.239	3218
881.366	3070
881.493	3055
881.619	3017
881.746	3074
881.872	3081
881.999	3097
882.125	3127
882.252	3226
882.378	3325
882.505	3450
882.631	3306
882.757	3173
882.883	3233
883.01	3256
883.136	3188
883.262	3131
883.388	3131
883.514	3340
883.64	3389
883.766	3329
883.892	3211
884.018	3302
884.143	3428
884.269	3549
884.395	3226
884.52	3199
884.646	3192
884.772	3169
884.897	3119
885.023	3222
885.148	3378
885.274	3428
885.399	3378
885.524	3306
885.65	3321
885.775	3370
885.9	3317
886.025	3454
886.15	3409
886.275	3355
886.4	3264
886.525	3336
886.65	3321
886.775	3298
886.9	3530
887.025	3690
887.149	3447
887.274	3294
887.399	3207
887.523	3279
887.648	3256
887.773	3203
887.897	3409
888.021	3462
888.146	3351
888.27	3504
888.395	3580
888.519	3469
888.643	3511
888.767	3466
888.891	3348
889.015	3275
889.139	3367
889.263	3287
889.387	3450
889.511	3515
889.635	3523
889.759	3332
889.883	3306
890.006	3409
890.13	3534
890.254	3279
890.377	3401
890.501	3222
890.624	3214
890.748	3359
890.871	3214
890.995	3119
891.118	3104
891.241	3214
891.364	3233
891.488	3317
891.611	3218
891.734	3275
891.857	3325
891.98	3268
892.103	3409
892.226	3302
892.349	3249
892.471	3150
892.594	3256
892.717	3317
892.839	3325
892.962	3344
893.085	3409
893.207	3344
893.33	3211
893.452	3237
893.575	3386
893.697	3275
893.819	3492
893.941	3538
894.064	3511
894.186	3294
894.308	3272
894.43	3481
894.552	3614
894.674	3511
894.796	3279
894.918	3344
895.04	3344
895.161	3435
895.283	3393
895.405	3348
895.526	3428
895.648	3450
895.769	3420
895.891	3496
896.012	3542
896.134	3473
896.255	3416
896.376	3389
896.498	3397
896.619	3420
896.74	3397
896.861	3462
896.982	3694
897.103	3857
897.224	3622
897.345	3530
897.466	3519
897.587	3538
897.708	3633
897.828	3564
897.949	3515
898.07	3359
898.19	3450
898.311	3584
898.431	3473
898.552	3564
898.672	3633
898.792	3591
898.913	3526
899.033	3469
899.153	3348
899.273	3245
899.393	3294
899.513	3332
899.633	3321
899.753	3424
899.873	3348
899.993	3397
900.113	3378
900.232	3393
900.352	3367
900.472	3332
900.591	3245
900.711	3336
900.83	3283
900.95	3439
901.069	3530
901.189	3344
901.308	3226
901.427	3169
901.546	3241
901.665	3298
901.784	3382
901.904	3214
902.023	3165
902.141	3020
902.26	2994
902.379	3135
902.498	3066
902.617	3089
902.735	3218
902.854	3256
902.973	3249
903.091	3123
903.21	3100
903.328	3195
903.446	3108
903.565	3097
903.683	3211
903.801	3161
903.919	3260
904.038	3321
904.156	3211
904.274	3283
904.392	3302
904.51	3275
904.627	3382
904.745	3500
904.863	3511
904.981	3260
905.098	3214
905.216	3279
905.334	3348
905.451	3359
905.569	3310
905.686	3450
905.803	3431
905.921	3294
906.038	3473
906.155	3405
906.272	3313
906.389	3344
906.506	3260
906.623	3275
906.74	3313
906.857	3199
906.974	3268
907.091	3469
907.208	3599
907.324	3477
907.441	3409
907.557	3275
907.674	3272
907.79	3268
907.907	3302
908.023	3435
908.139	3428
908.256	3336
908.372	3401
908.488	3389
908.604	3249
908.72	3260
908.836	3294
908.952	3340
909.068	3348
909.184	3538
909.3	3393
909.415	3519
909.531	3458
909.647	3298
909.762	3340
909.878	3302
909.993	3382
910.108	3336
910.224	3355
910.339	3443
910.454	3359
910.57	3321
910.685	3245
910.8	3652
910.915	3568
911.03	3450
911.145	3272
911.259	3302
911.374	3340
911.489	3298
911.604	3241
911.718	3157
911.833	3176
911.947	3039
912.062	3017
912.176	3192
912.291	3184
912.405	3241
912.519	3405
912.633	3485
912.748	3325
912.862	3287
912.976	3195
913.09	3123
913.204	3169
913.318	3253
913.431	3367
913.545	3340
913.659	3386
913.772	3359
913.886	3241
914	3241
914.113	3405
914.226	3454
914.34	3367
914.453	3260
914.566	3409
914.68	3317
914.793	3329
914.906	3157
915.019	3146
915.132	3097
915.245	3203
915.358	3264
915.47	3260
915.583	3302
915.696	3302
915.809	3439
915.921	3481
916.034	3256
916.146	3291
916.259	3222
916.371	3397
916.483	3359
916.595	3283
916.708	3302
916.82	3340
916.932	3340
917.044	3378
917.156	3336
917.268	3253
917.38	3348
917.491	3329
917.603	3409
917.715	3454
917.826	3500
917.938	3420
918.049	3302
918.161	3447
918.272	3591
918.384	3599
918.495	3507
918.606	3329
918.717	3317
918.828	3386
918.939	3409
919.05	3351
919.161	3382
919.272	3199
919.383	3279
919.494	3534
919.604	3675
919.715	3488
919.826	3393
919.936	3477
920.047	3641
920.157	3576
920.267	3808
920.378	3595
920.488	3587
920.598	3793
920.708	3987
920.818	3846
920.928	3865
921.038	4048
921.148	4032
921.258	3717
921.368	3682
921.477	3629
921.587	3564
921.697	3481
921.806	3652
921.916	3557
922.025	3363
922.134	3344
922.244	3336
922.353	3443
922.462	3279
922.571	3222
922.68	3138
922.789	3097
922.898	3211
923.007	3112
923.116	3207
923.224	3237
923.333	3195
923.442	3123
923.55	3131
923.659	3165
923.767	3249
923.876	3138
923.984	3245
924.092	3089
924.201	3195
924.309	3245
924.417	3264
924.525	3211
924.633	3268
924.741	4181
924.849	3100
924.956	3291
925.064	3135
925.172	3097
925.279	3161
925.387	3233
925.494	3207
925.602	3367
925.709	3374
925.816	3233
925.924	3302
926.031	3359
926.138	3344
926.245	3393
926.352	3222
926.459	3447
926.566	3496
926.673	3336
926.779	3253
926.886	3283
926.993	3150
927.099	3131
927.206	3119
927.312	3116
927.419	3268
927.525	3207
927.631	3264
927.737	3199
927.843	3165
927.95	3062
928.056	3165
928.162	3180
928.267	3291
928.373	3903
928.479	3313
928.585	3100
928.69	3195
928.796	3283
928.901	3157
929.007	3074
929.112	3226
929.218	3218
929.323	3184
929.428	3161
929.533	3317
929.638	3135
929.743	3203
929.848	3279
929.953	3241
930.058	3195
930.163	3017
930.267	3062
930.372	3214
930.477	3062
930.581	3325
930.685	3222
930.79	3028
930.894	3127
930.998	3081
931.103	3279
931.207	2979
931.311	2967
931.415	2990
931.519	2792
931.623	2826
