Data from test_V78500241_1841.txt Node
Date: Fri Mar 25 16:27:57 CST 2022
User: usil
Spectrometer: V785-0024
Trigger mode: 0
Integration Time (sec): 4.000000E-1
Scans to average: 1
Nonlinearity correction enabled: false
Boxcar width: 0
Storing dark spectrum: false
XAxis mode: Wavelengths
Number of Pixels in Spectrum: 1024
>>>>>Begin Spectral Data<<<<<
801.071	2944
801.214	2990
801.356	2902
801.499	2937
801.641	2883
801.783	2902
801.926	3070
802.068	3013
802.211	3028
802.353	3055
802.496	2960
802.638	3028
802.78	3047
802.923	3100
803.065	3039
803.208	2895
803.35	2952
803.492	2929
803.635	2979
803.777	2800
803.919	2891
804.061	3199
804.204	2948
804.346	2963
804.488	2845
804.63	2994
804.773	2861
804.915	2922
805.057	3104
805.199	2937
805.341	3039
805.483	3051
805.626	3013
805.768	2994
805.91	3138
806.052	3104
806.194	3093
806.336	3283
806.478	3051
806.62	2967
806.762	2960
806.904	3062
807.046	3195
807.188	2994
807.33	2967
807.472	3005
807.614	2925
807.756	2986
807.898	2944
808.04	2929
808.182	2982
808.324	2979
808.465	2891
808.607	2910
808.749	2788
808.891	2899
809.033	2975
809.174	2933
809.316	2887
809.458	2937
809.6	2819
809.741	2777
809.883	2788
810.025	2857
810.166	2857
810.308	2830
810.45	2883
810.591	2781
810.733	2819
810.875	2834
811.016	2815
811.158	2754
811.299	2826
811.441	2941
811.582	2914
811.724	2823
811.865	2861
812.007	2922
812.148	2872
812.29	2826
812.431	2906
812.573	2948
812.714	2986
812.855	3028
812.997	3039
813.138	3150
813.279	3013
813.421	2979
813.562	2975
813.703	2883
813.845	2906
813.986	2796
814.127	2727
814.268	2864
814.41	2880
814.551	2834
814.692	2887
814.833	2804
814.974	2914
815.115	2929
815.256	2842
815.397	2823
815.539	2876
815.68	2796
815.821	2788
815.962	2952
816.103	2929
816.244	2849
816.385	2883
816.526	2948
816.666	2933
816.807	2731
816.948	2948
817.089	2933
817.23	2887
817.371	2796
817.512	2773
817.653	2853
817.793	2826
817.934	2918
818.075	2971
818.216	2986
818.356	3074
818.497	2925
818.638	2800
818.778	2823
818.919	2819
819.06	2769
819.2	2929
819.341	2815
819.481	2792
819.622	2906
819.762	3085
819.903	3039
820.043	2899
820.184	2933
820.324	2910
820.465	3017
820.605	3058
820.746	3024
820.886	2941
821.026	3097
821.167	3184
821.307	3306
821.447	3302
821.588	3260
821.728	3203
821.868	3199
822.008	3104
822.149	3237
822.289	3268
822.429	3104
822.569	3097
822.709	3150
822.849	3074
822.99	3089
823.13	3199
823.27	3237
823.41	3112
823.55	3157
823.69	3165
823.83	3199
823.97	3119
824.11	3001
824.25	3020
824.389	3077
824.529	3116
824.669	3062
824.809	3222
824.949	3275
825.089	3241
825.228	3157
825.368	3020
825.508	2982
825.648	2937
825.787	3039
825.927	2982
826.067	2986
826.206	2960
826.346	3020
826.485	3093
826.625	3112
826.765	3256
826.904	3214
827.044	2982
827.183	2967
827.323	2883
827.462	2986
827.601	2925
827.741	2944
827.88	2975
828.02	2864
828.159	2967
828.298	3024
828.437	3123
828.577	3043
828.716	3253
828.855	3077
828.994	2906
829.134	2891
829.273	2933
829.412	2861
829.551	2880
829.69	2918
829.829	2990
829.968	3104
830.107	3043
830.246	3017
830.385	2895
830.524	2883
830.663	2838
830.802	2724
830.941	2686
831.08	2667
831.219	2785
831.357	2766
831.496	2979
831.635	2720
831.774	2663
831.913	2686
832.051	2533
832.19	2629
832.329	2693
832.467	2556
832.606	2537
832.744	2568
832.883	2587
833.022	2568
833.16	2659
833.299	2651
833.437	2670
833.576	2716
833.714	2708
833.852	2724
833.991	2781
834.129	2861
834.267	2838
834.406	2777
834.544	2883
834.682	2872
834.821	2857
834.959	3043
835.097	2918
835.235	3074
835.373	2998
835.511	3028
835.65	2971
835.788	2937
835.926	2849
836.064	2781
836.202	2849
836.34	3077
836.478	3138
836.615	3047
836.753	3108
836.891	3188
837.029	3192
837.167	3119
837.305	3074
837.443	3055
837.58	2967
837.718	3119
837.856	3062
837.993	3036
838.131	3108
838.269	3116
838.406	3085
838.544	3089
838.681	2941
838.819	2941
838.956	2807
839.094	2861
839.231	2925
839.369	3028
839.506	3340
839.643	3203
839.781	3081
839.918	2990
840.055	3047
840.193	3112
840.33	3070
840.467	3116
840.604	3157
840.742	3378
840.879	3085
841.016	3058
841.153	3150
841.29	3332
841.427	3287
841.564	3249
841.701	3291
841.838	3218
841.975	3157
842.112	3241
842.249	3058
842.385	3070
842.522	3249
842.659	3123
842.796	3051
842.933	3116
843.069	3043
843.206	3062
843.343	3165
843.479	3108
843.616	3138
843.752	2944
843.889	2868
844.025	3039
844.162	2864
844.298	3093
844.435	2944
844.571	2933
844.708	3077
844.844	3173
844.98	3241
845.117	3180
845.253	3055
845.389	3009
845.525	3081
845.661	3097
845.798	3013
845.934	3135
846.07	3047
846.206	3214
846.342	3355
846.478	3199
846.614	3074
846.75	3066
846.886	3047
847.022	3230
847.158	3116
847.294	3230
847.429	3241
847.565	3180
847.701	3473
847.837	3024
847.972	3001
848.108	3169
848.244	3173
848.379	3001
848.515	2922
848.65	2952
848.786	2982
848.921	3009
849.057	3077
849.192	3161
849.328	3047
849.463	3089
849.598	3066
849.734	3066
849.869	2967
850.004	2899
850.14	2944
850.275	2899
850.41	2838
850.545	2899
850.68	2960
850.815	2944
850.95	2963
851.085	3222
851.22	3093
851.355	3009
851.49	2979
851.625	2982
851.76	3036
851.895	2937
852.03	2933
852.165	3032
852.299	3142
852.434	3211
852.569	3142
852.703	3150
852.838	3253
852.973	3329
853.107	3329
853.242	3146
853.376	3112
853.511	2979
853.645	3024
853.78	3256
853.914	3119
854.048	3123
854.183	3108
854.317	3173
854.451	3310
854.585	3127
854.72	3123
854.854	3226
854.988	3081
855.122	3089
855.256	2971
855.39	3112
855.524	3199
855.658	3157
855.792	3142
855.926	3165
856.06	3203
856.194	3233
856.327	3165
856.461	3036
856.595	3062
856.729	3127
856.862	3214
856.996	3180
857.13	3176
857.263	3245
857.397	3283
857.53	3123
857.664	3230
857.797	3241
857.931	3287
858.064	3188
858.197	3237
858.331	3138
858.464	3085
858.597	3024
858.731	3131
858.864	3123
858.997	3112
859.13	3169
859.263	3127
859.396	3184
859.529	3093
859.662	3043
859.795	3039
859.928	3154
860.061	3264
860.194	3272
860.327	3150
860.46	3089
860.592	3233
860.725	3230
860.858	3249
860.99	3131
861.123	3043
861.256	3051
861.388	3180
861.521	3797
861.653	3013
861.786	2948
861.918	2998
862.05	3032
862.183	3112
862.315	3116
862.447	3203
862.58	3100
862.712	2952
862.844	2895
862.976	3039
863.108	3005
863.24	3420
863.372	2857
863.504	2963
863.636	2960
863.768	3066
863.9	2967
864.032	2880
864.164	2944
864.296	3047
864.428	3100
864.559	3100
864.691	3097
864.823	3058
864.954	3005
865.086	3020
865.217	2990
865.349	2986
865.48	2979
865.612	3001
865.743	3192
865.875	2979
866.006	2929
866.137	2956
866.269	2948
866.4	2937
866.531	2933
866.662	2895
866.793	2906
866.924	2895
867.055	2971
867.186	2944
867.317	2906
867.448	2823
867.579	2853
867.71	2823
867.841	2800
867.972	2895
868.103	2872
868.233	2880
868.364	2883
868.495	2899
868.625	3058
868.756	3180
868.886	2986
869.017	3043
869.147	3165
869.278	3176
869.408	3039
869.539	3032
869.669	3085
869.799	3028
869.929	3142
870.06	3097
870.19	3287
870.32	3260
870.45	3272
870.58	3348
870.71	3435
870.84	3469
870.97	3291
871.1	3226
871.23	3477
871.36	3416
871.489	3332
871.619	3382
871.749	3409
871.879	3439
872.008	3481
872.138	3389
872.267	3275
872.397	3127
872.526	3058
872.656	3005
872.785	3074
872.915	3226
873.044	3298
873.173	3211
873.303	3214
873.432	3230
873.561	3211
873.69	3188
873.819	3116
873.948	3199
874.077	3093
874.206	3009
874.335	3100
874.464	3241
874.593	3367
874.722	3222
874.851	3378
874.979	3340
875.108	3279
875.237	3192
875.365	3150
875.494	3154
875.623	3226
875.751	3093
875.88	3112
876.008	3184
876.136	3226
876.265	3336
876.393	3496
876.521	3416
876.65	3344
876.778	3317
876.906	3253
877.034	3226
877.162	3211
877.29	3157
877.418	3230
877.546	3222
877.674	3253
877.802	3264
877.93	3184
878.058	3100
878.185	3089
878.313	3180
878.441	3188
878.568	3051
878.696	3138
878.824	3253
878.951	3287
879.079	3454
879.206	3595
879.333	3412
879.461	3325
879.588	3348
879.715	3545
879.842	3580
879.97	3363
880.097	3176
880.224	3104
880.351	3214
880.478	3195
880.605	3211
880.732	3192
880.859	3454
880.986	3294
881.112	3287
881.239	3184
881.366	3097
881.493	3032
881.619	3036
881.746	3077
881.872	3055
881.999	3097
882.125	3169
882.252	3253
882.378	3283
882.505	3469
882.631	3287
882.757	3131
882.883	3195
883.01	3253
883.136	3165
883.262	3093
883.388	3135
883.514	3313
883.64	3401
883.766	3279
883.892	3176
884.018	3211
884.143	3374
884.269	3542
884.395	3207
884.52	3176
884.646	3154
884.772	3116
884.897	3089
885.023	3184
885.148	3363
885.274	3431
885.399	3355
885.524	3264
885.65	3256
885.775	3332
885.9	3283
886.025	3473
886.15	3363
886.275	3321
886.4	3245
886.525	3287
886.65	3245
886.775	3287
886.9	3507
887.025	3652
887.149	3389
887.274	3233
887.399	3199
887.523	3180
887.648	3173
887.773	3192
887.897	3363
888.021	3367
888.146	3291
888.27	3424
888.395	3534
888.519	3409
888.643	3431
888.767	3462
888.891	3298
889.015	3279
889.139	3321
889.263	3233
889.387	3405
889.511	3481
889.635	3439
889.759	3279
889.883	3253
890.006	3386
890.13	3450
890.254	3253
890.377	3370
890.501	3192
890.624	3180
890.748	3306
890.871	3192
890.995	3104
891.118	3070
891.241	3199
891.364	3188
891.488	3310
891.611	3165
891.734	3218
891.857	3272
891.98	3237
892.103	3317
892.226	3268
892.349	3195
892.471	3085
892.594	3256
892.717	3275
892.839	3291
892.962	3264
893.085	3370
893.207	3294
893.33	3146
893.452	3218
893.575	3283
893.697	3222
893.819	3428
893.941	3477
894.064	3428
894.186	3287
894.308	3256
894.43	3462
894.552	3561
894.674	3519
894.796	3283
894.918	3275
895.04	3279
895.161	3443
895.283	3397
895.405	3287
895.526	3336
895.648	3412
895.769	3420
895.891	3466
896.012	3481
896.134	3462
896.255	3412
896.376	3397
896.498	3355
896.619	3431
896.74	3348
896.861	3412
896.982	3713
897.103	3827
897.224	3557
897.345	3485
897.466	3450
897.587	3511
897.708	3622
897.828	3568
897.949	3443
898.07	3336
898.19	3428
898.311	3599
898.431	3405
898.552	3485
898.672	3561
898.792	3561
898.913	3534
899.033	3435
899.153	3226
899.273	3218
899.393	3287
899.513	3332
899.633	3321
899.753	3306
899.873	3321
899.993	3389
900.113	3310
900.232	3374
900.352	3363
900.472	3260
900.591	3218
900.711	3313
900.83	3245
900.95	3412
901.069	3515
901.189	3355
901.308	3180
901.427	3119
901.546	3195
901.665	3272
901.784	3294
901.904	3233
902.023	3173
902.141	3028
902.26	2998
902.379	3123
902.498	3062
902.617	3009
902.735	3188
902.854	3199
902.973	3207
903.091	3024
903.21	3058
903.328	3116
903.446	3100
903.565	3074
903.683	3211
903.801	3085
903.919	3245
904.038	3275
904.156	3150
904.274	3298
904.392	3253
904.51	3268
904.627	3348
904.745	3431
904.863	3481
904.981	3264
905.098	3165
905.216	3184
905.334	3287
905.451	3325
905.569	3325
905.686	3416
905.803	3405
905.921	3275
906.038	3405
906.155	3325
906.272	3279
906.389	3367
906.506	3199
906.623	3253
906.74	3253
906.857	3199
906.974	3256
907.091	3431
907.208	3526
907.324	3450
907.441	3351
907.557	3233
907.674	3233
907.79	3218
907.907	3256
908.023	3359
908.139	3401
908.256	3355
908.372	3378
908.488	3370
908.604	3272
908.72	3214
908.836	3264
908.952	3272
909.068	3336
909.184	3473
909.3	3370
909.415	3473
909.531	3485
909.647	3272
909.762	3260
909.878	3279
909.993	3351
910.108	3325
910.224	3332
910.339	3428
910.454	3302
910.57	3287
910.685	3207
910.8	3614
910.915	3538
911.03	3439
911.145	3287
911.259	3264
911.374	3298
911.489	3222
911.604	3237
911.718	3112
911.833	3146
911.947	3020
912.062	2982
912.176	3127
912.291	3207
912.405	3245
912.519	3393
912.633	3435
912.748	3336
912.862	3272
912.976	3161
913.09	3062
913.204	3131
913.318	3230
913.431	3294
913.545	3313
913.659	3382
913.772	3355
913.886	3233
914	3249
914.113	3336
914.226	3416
914.34	3359
914.453	3192
914.566	3431
914.68	3256
914.793	3329
914.906	3127
915.019	3108
915.132	3070
915.245	3157
915.358	3211
915.47	3245
915.583	3291
915.696	3264
915.809	3397
915.921	3435
916.034	3272
916.146	3237
916.259	3203
916.371	3348
916.483	3351
916.595	3272
916.708	3332
916.82	3355
916.932	3321
917.044	3340
917.156	3332
917.268	3264
917.38	3253
917.491	3317
917.603	3382
917.715	3469
917.826	3454
917.938	3389
918.049	3253
918.161	3409
918.272	3564
918.384	3576
918.495	3485
918.606	3283
918.717	3302
918.828	3332
918.939	3397
919.05	3306
919.161	3370
919.272	3169
919.383	3272
919.494	3458
919.604	3667
919.715	3496
919.826	3428
919.936	3466
920.047	3523
920.157	3530
920.267	3793
920.378	3641
920.488	3542
920.598	3808
920.708	3964
920.818	3819
920.928	3800
921.038	4036
921.148	4025
921.258	3671
921.368	3667
921.477	3572
921.587	3519
921.697	3477
921.806	3603
921.916	3462
922.025	3359
922.134	3344
922.244	3336
922.353	3443
922.462	3237
922.571	3184
922.68	3089
922.789	3077
922.898	3127
923.007	3077
923.116	3184
923.224	3165
923.333	3161
923.442	3131
923.55	3104
923.659	3123
923.767	3218
923.876	3058
923.984	3268
924.092	3108
924.201	3180
924.309	3222
924.417	3264
924.525	3184
924.633	3214
924.741	4147
924.849	3051
924.956	3245
925.064	3108
925.172	3047
925.279	3116
925.387	3230
925.494	3188
925.602	3332
925.709	3332
925.816	3184
925.924	3268
926.031	3405
926.138	3313
926.245	3363
926.352	3283
926.459	3393
926.566	3420
926.673	3256
926.779	3214
926.886	3241
926.993	3142
927.099	3123
927.206	3089
927.312	3081
927.419	3214
927.525	3233
927.631	3268
927.737	3154
927.843	3085
927.95	3039
928.056	3119
928.162	3131
928.267	3233
928.373	3781
928.479	3291
928.585	3070
928.69	3218
928.796	3275
928.901	3199
929.007	3070
929.112	3211
929.218	3203
929.323	3173
929.428	3146
929.533	3313
929.638	3127
929.743	3180
929.848	3283
929.953	3218
930.058	3165
930.163	2967
930.267	3077
930.372	3195
930.477	3047
930.581	3298
930.685	3176
930.79	3032
930.894	3123
930.998	3112
931.103	3253
931.207	2975
931.311	2941
931.415	2929
931.519	2758
931.623	2796
