Data from test_V78500241_1923.txt Node
Date: Fri Mar 25 16:28:31 CST 2022
User: usil
Spectrometer: V785-0024
Trigger mode: 0
Integration Time (sec): 4.000000E-1
Scans to average: 1
Nonlinearity correction enabled: false
Boxcar width: 0
Storing dark spectrum: false
XAxis mode: Wavelengths
Number of Pixels in Spectrum: 1024
>>>>>Begin Spectral Data<<<<<
801.071	2906
801.214	2971
801.356	2864
801.499	2880
801.641	2895
801.783	2952
801.926	3074
802.068	3013
802.211	3005
802.353	3066
802.496	2971
802.638	2998
802.78	3039
802.923	3066
803.065	3009
803.208	2891
803.35	2918
803.492	2941
803.635	2910
803.777	2769
803.919	2842
804.061	3211
804.204	2944
804.346	2899
804.488	2876
804.63	2971
804.773	2872
804.915	2910
805.057	3051
805.199	2948
805.341	2952
805.483	3036
805.626	2967
805.768	2998
805.91	3100
806.052	3097
806.194	3047
806.336	3222
806.478	3005
806.62	2941
806.762	3013
806.904	3051
807.046	3188
807.188	2982
807.33	2967
807.472	2975
807.614	2925
807.756	3032
807.898	2918
808.04	2922
808.182	2975
808.324	2948
808.465	2895
808.607	2880
808.749	2807
808.891	2853
809.033	2944
809.174	2998
809.316	2857
809.458	2883
809.6	2792
809.741	2750
809.883	2781
810.025	2872
810.166	2880
810.308	2838
810.45	2883
810.591	2781
810.733	2785
810.875	2826
811.016	2769
811.158	2785
811.299	2815
811.441	2922
811.582	2891
811.724	2838
811.865	2853
812.007	2929
812.148	2861
812.29	2823
812.431	2864
812.573	2948
812.714	2971
812.855	3077
812.997	3062
813.138	3116
813.279	3009
813.421	3005
813.562	2963
813.703	2891
813.845	2864
813.986	2788
814.127	2746
814.268	2800
814.41	2830
814.551	2826
814.692	2914
814.833	2838
814.974	2906
815.115	2963
815.256	2800
815.397	2811
815.539	2864
815.68	2777
815.821	2815
815.962	2944
816.103	2925
816.244	2937
816.385	2853
816.526	2952
816.666	2895
816.807	2762
816.948	2906
817.089	2910
817.23	2826
817.371	2785
817.512	2785
817.653	2845
817.793	2842
817.934	2876
818.075	2933
818.216	3001
818.356	2986
818.497	2933
818.638	2758
818.778	2819
818.919	2792
819.06	2777
819.2	2876
819.341	2766
819.481	2815
819.622	2941
819.762	3119
819.903	3070
820.043	2963
820.184	2910
820.324	2899
820.465	3032
820.605	2998
820.746	3013
820.886	2929
821.026	3062
821.167	3116
821.307	3264
821.447	3317
821.588	3241
821.728	3222
821.868	3207
822.008	3055
822.149	3211
822.289	3218
822.429	3074
822.569	3081
822.709	3192
822.849	2998
822.99	3116
823.13	3199
823.27	3195
823.41	3093
823.55	3142
823.69	3173
823.83	3165
823.97	3116
824.11	3001
824.25	3001
824.389	3028
824.529	3093
824.669	3081
824.809	3188
824.949	3245
825.089	3211
825.228	3173
825.368	2963
825.508	2933
825.648	2982
825.787	3005
825.927	3032
826.067	2986
826.206	2937
826.346	3047
826.485	3085
826.625	3089
826.765	3233
826.904	3230
827.044	2994
827.183	2922
827.323	2880
827.462	2944
827.601	2929
827.741	2944
827.88	2941
828.02	2857
828.159	2979
828.298	3039
828.437	3131
828.577	3028
828.716	3222
828.855	3062
828.994	2891
829.134	2857
829.273	2883
829.412	2849
829.551	2883
829.69	2883
829.829	2952
829.968	3154
830.107	2998
830.246	3024
830.385	2941
830.524	2899
830.663	2804
830.802	2716
830.941	2670
831.08	2629
831.219	2766
831.357	2739
831.496	2960
831.635	2708
831.774	2636
831.913	2655
832.051	2507
832.19	2594
832.329	2667
832.467	2537
832.606	2457
832.744	2564
832.883	2594
833.022	2594
833.16	2655
833.299	2655
833.437	2705
833.576	2724
833.714	2697
833.852	2750
833.991	2727
834.129	2807
834.267	2807
834.406	2800
834.544	2864
834.682	2868
834.821	2891
834.959	3051
835.097	2891
835.235	3047
835.373	2986
835.511	3039
835.65	2967
835.788	2979
835.926	2815
836.064	2849
836.202	2845
836.34	3070
836.478	3104
836.615	3024
836.753	3097
836.891	3180
837.029	3169
837.167	3138
837.305	3070
837.443	3039
837.58	2960
837.718	3116
837.856	3112
837.993	3036
838.131	3127
838.269	3104
838.406	3062
838.544	3100
838.681	2918
838.819	2967
838.956	2785
839.094	2830
839.231	2918
839.369	3028
839.506	3359
839.643	3203
839.781	2990
839.918	2963
840.055	3062
840.193	3070
840.33	3032
840.467	3112
840.604	3150
840.742	3397
840.879	3043
841.016	3058
841.153	3123
841.29	3317
841.427	3313
841.564	3256
841.701	3294
841.838	3195
841.975	3165
842.112	3199
842.249	3097
842.385	3039
842.522	3256
842.659	3081
842.796	3077
842.933	3116
843.069	3036
843.206	3020
843.343	3127
843.479	3108
843.616	3154
843.752	2922
843.889	2838
844.025	3062
844.162	2857
844.298	3028
844.435	2975
844.571	2883
844.708	3074
844.844	3207
844.98	3249
845.117	3188
845.253	3047
845.389	3020
845.525	3100
845.661	3058
845.798	3028
845.934	3138
846.07	3051
846.206	3253
846.342	3321
846.478	3230
846.614	3116
846.75	3058
846.886	3005
847.022	3237
847.158	3131
847.294	3195
847.429	3233
847.565	3195
847.701	3500
847.837	2963
847.972	3032
848.108	3150
848.244	3123
848.379	2975
848.515	2944
848.65	2941
848.786	2982
848.921	2982
849.057	3070
849.192	3150
849.328	3116
849.463	3127
849.598	3074
849.734	3047
849.869	2986
850.004	2929
850.14	2975
850.275	2937
850.41	2819
850.545	2887
850.68	2933
850.815	2922
850.95	2986
851.085	3150
851.22	3089
851.355	2998
851.49	2998
851.625	3013
851.76	2998
851.895	2933
852.03	2895
852.165	3032
852.299	3112
852.434	3207
852.569	3108
852.703	3161
852.838	3230
852.973	3332
853.107	3317
853.242	3131
853.376	3077
853.511	2963
853.645	3020
853.78	3237
853.914	3081
854.048	3089
854.183	3119
854.317	3161
854.451	3287
854.585	3138
854.72	3097
854.854	3180
854.988	3043
855.122	3062
855.256	2956
855.39	3135
855.524	3268
855.658	3180
855.792	3150
855.926	3199
856.06	3211
856.194	3233
856.327	3142
856.461	3108
856.595	3062
856.729	3089
856.862	3211
856.996	3176
857.13	3150
857.263	3203
857.397	3287
857.53	3085
857.664	3176
857.797	3226
857.931	3241
858.064	3173
858.197	3245
858.331	3100
858.464	3077
858.597	3024
858.731	3085
858.864	3100
858.997	3066
859.13	3169
859.263	3157
859.396	3192
859.529	3055
859.662	3066
859.795	3043
859.928	3142
860.061	3287
860.194	3287
860.327	3142
860.46	3131
860.592	3253
860.725	3222
860.858	3226
860.99	3135
861.123	3024
861.256	3066
861.388	3135
861.521	3819
861.653	3028
861.786	2979
861.918	2990
862.05	3028
862.183	3074
862.315	3116
862.447	3169
862.58	3104
862.712	2910
862.844	2891
862.976	3062
863.108	3009
863.24	3344
863.372	2872
863.504	2906
863.636	2944
863.768	3001
863.9	2956
864.032	2941
864.164	2910
864.296	3017
864.428	3100
864.559	3093
864.691	3036
864.823	3051
864.954	3028
865.086	3020
865.217	2994
865.349	2960
865.48	2994
865.612	3032
865.743	3180
865.875	2963
866.006	2933
866.137	2941
866.269	2933
866.4	2910
866.531	2937
866.662	2864
866.793	2902
866.924	2918
867.055	2952
867.186	2895
867.317	2914
867.448	2857
867.579	2864
867.71	2872
867.841	2826
867.972	2895
868.103	2883
868.233	2830
868.364	2895
868.495	2914
868.625	3089
868.756	3173
868.886	2963
869.017	3043
869.147	3154
869.278	3157
869.408	3024
869.539	3005
869.669	3131
869.799	3020
869.929	3123
870.06	3119
870.19	3329
870.32	3264
870.45	3294
870.58	3332
870.71	3458
870.84	3428
870.97	3241
871.1	3222
871.23	3488
871.36	3412
871.489	3370
871.619	3401
871.749	3412
871.879	3424
872.008	3473
872.138	3382
872.267	3260
872.397	3131
872.526	3077
872.656	2986
872.785	3089
872.915	3268
873.044	3294
873.173	3237
873.303	3233
873.432	3253
873.561	3237
873.69	3138
873.819	3119
873.948	3226
874.077	3108
874.206	3032
874.335	3066
874.464	3199
874.593	3329
874.722	3195
874.851	3378
874.979	3355
875.108	3302
875.237	3199
875.365	3180
875.494	3176
875.623	3264
875.751	3089
875.88	3097
876.008	3176
876.136	3207
876.265	3389
876.393	3500
876.521	3393
876.65	3401
876.778	3325
876.906	3275
877.034	3237
877.162	3218
877.29	3165
877.418	3245
877.546	3256
877.674	3256
877.802	3264
877.93	3199
878.058	3165
878.185	3100
878.313	3184
878.441	3222
878.568	3093
878.696	3135
878.824	3230
878.951	3302
879.079	3386
879.206	3614
879.333	3428
879.461	3317
879.588	3367
879.715	3450
879.842	3587
879.97	3363
880.097	3173
880.224	3135
880.351	3195
880.478	3218
880.605	3230
880.732	3169
880.859	3488
880.986	3272
881.112	3351
881.239	3192
881.366	3043
881.493	3043
881.619	3017
881.746	3066
881.872	3112
881.999	3085
882.125	3135
882.252	3249
882.378	3291
882.505	3450
882.631	3291
882.757	3157
882.883	3226
883.01	3203
883.136	3150
883.262	3131
883.388	3127
883.514	3329
883.64	3329
883.766	3332
883.892	3207
884.018	3253
884.143	3401
884.269	3500
884.395	3237
884.52	3157
884.646	3142
884.772	3097
884.897	3112
885.023	3203
885.148	3313
885.274	3405
885.399	3344
885.524	3268
885.65	3264
885.775	3329
885.9	3260
886.025	3409
886.15	3336
886.275	3279
886.4	3218
886.525	3283
886.65	3253
886.775	3272
886.9	3500
887.025	3633
887.149	3359
887.274	3268
887.399	3184
887.523	3184
887.648	3180
887.773	3222
887.897	3374
888.021	3389
888.146	3298
888.27	3409
888.395	3515
888.519	3401
888.643	3420
888.767	3454
888.891	3283
889.015	3218
889.139	3279
889.263	3249
889.387	3374
889.511	3530
889.635	3428
889.759	3275
889.883	3272
890.006	3367
890.13	3462
890.254	3310
890.377	3336
890.501	3211
890.624	3203
890.748	3302
890.871	3180
890.995	3112
891.118	3039
891.241	3173
891.364	3195
891.488	3348
891.611	3165
891.734	3203
891.857	3233
891.98	3230
892.103	3401
892.226	3302
892.349	3203
892.471	3104
892.594	3264
892.717	3268
892.839	3241
892.962	3287
893.085	3374
893.207	3279
893.33	3138
893.452	3195
893.575	3355
893.697	3233
893.819	3458
893.941	3511
894.064	3420
894.186	3260
894.308	3268
894.43	3458
894.552	3538
894.674	3485
894.796	3268
894.918	3294
895.04	3256
895.161	3435
895.283	3370
895.405	3313
895.526	3332
895.648	3447
895.769	3424
895.891	3462
896.012	3439
896.134	3473
896.255	3378
896.376	3378
896.498	3367
896.619	3420
896.74	3340
896.861	3401
896.982	3698
897.103	3831
897.224	3584
897.345	3511
897.466	3454
897.587	3526
897.708	3656
897.828	3542
897.949	3420
898.07	3313
898.19	3409
898.311	3618
898.431	3454
898.552	3530
898.672	3591
898.792	3576
898.913	3523
899.033	3435
899.153	3256
899.273	3245
899.393	3241
899.513	3310
899.633	3325
899.753	3329
899.873	3321
899.993	3401
900.113	3313
900.232	3359
900.352	3348
900.472	3256
900.591	3214
900.711	3325
900.83	3245
900.95	3401
901.069	3496
901.189	3370
901.308	3142
901.427	3135
901.546	3192
901.665	3287
901.784	3310
901.904	3207
902.023	3104
902.141	2982
902.26	2986
902.379	3104
902.498	3058
902.617	3047
902.735	3184
902.854	3264
902.973	3211
903.091	3058
903.21	3051
903.328	3119
903.446	3135
903.565	3119
903.683	3218
903.801	3131
903.919	3230
904.038	3279
904.156	3161
904.274	3329
904.392	3230
904.51	3237
904.627	3313
904.745	3454
904.863	3443
904.981	3294
905.098	3184
905.216	3218
905.334	3313
905.451	3317
905.569	3264
905.686	3386
905.803	3458
905.921	3321
906.038	3439
906.155	3389
906.272	3256
906.389	3344
906.506	3207
906.623	3268
906.74	3245
906.857	3211
906.974	3237
907.091	3439
907.208	3549
907.324	3450
907.441	3420
907.557	3237
907.674	3226
907.79	3203
907.907	3260
908.023	3370
908.139	3359
908.256	3321
908.372	3374
908.488	3329
908.604	3256
908.72	3222
908.836	3279
908.952	3306
909.068	3313
909.184	3454
909.3	3409
909.415	3481
909.531	3458
909.647	3291
909.762	3298
909.878	3264
909.993	3351
910.108	3389
910.224	3370
910.339	3416
910.454	3370
910.57	3268
910.685	3260
910.8	3629
910.915	3515
911.03	3431
911.145	3287
911.259	3287
911.374	3321
911.489	3264
911.604	3199
911.718	3108
911.833	3154
911.947	3032
912.062	2979
912.176	3142
912.291	3184
912.405	3222
912.519	3409
912.633	3481
912.748	3329
912.862	3291
912.976	3203
913.09	3047
913.204	3123
913.318	3222
913.431	3367
913.545	3321
913.659	3386
913.772	3340
913.886	3218
914	3214
914.113	3370
914.226	3420
914.34	3389
914.453	3218
914.566	3382
914.68	3264
914.793	3313
914.906	3135
915.019	3097
915.132	3036
915.245	3127
915.358	3203
915.47	3245
915.583	3302
915.696	3279
915.809	3382
915.921	3389
916.034	3230
916.146	3256
916.259	3214
916.371	3412
916.483	3355
916.595	3249
916.708	3351
916.82	3378
916.932	3351
917.044	3374
917.156	3325
917.268	3249
917.38	3317
917.491	3313
917.603	3325
917.715	3458
917.826	3443
917.938	3359
918.049	3272
918.161	3409
918.272	3572
918.384	3549
918.495	3523
918.606	3348
918.717	3264
918.828	3378
918.939	3416
919.05	3302
919.161	3382
919.272	3169
919.383	3298
919.494	3534
919.604	3682
919.715	3466
919.826	3405
919.936	3450
920.047	3595
920.157	3553
920.267	3755
920.378	3576
920.488	3549
920.598	3759
920.708	3937
920.818	3823
920.928	3838
921.038	4006
921.148	3956
921.258	3679
921.368	3656
921.477	3584
921.587	3538
921.697	3428
921.806	3622
921.916	3534
922.025	3370
922.134	3382
922.244	3287
922.353	3405
922.462	3241
922.571	3203
922.68	3123
922.789	3070
922.898	3116
923.007	3093
923.116	3241
923.224	3165
923.333	3154
923.442	3112
923.55	3093
923.659	3135
923.767	3237
923.876	3108
923.984	3199
924.092	3123
924.201	3173
924.309	3241
924.417	3237
924.525	3253
924.633	3256
924.741	4223
924.849	3047
924.956	3268
925.064	3074
925.172	3039
925.279	3089
925.387	3173
925.494	3203
925.602	3401
925.709	3336
925.816	3192
925.924	3283
926.031	3397
926.138	3298
926.245	3344
926.352	3245
926.459	3450
926.566	3450
926.673	3355
926.779	3268
926.886	3256
926.993	3165
927.099	3123
927.206	3104
927.312	3119
927.419	3260
927.525	3154
927.631	3275
927.737	3138
927.843	3097
927.95	3051
928.056	3180
928.162	3176
928.267	3245
928.373	3835
928.479	3294
928.585	3077
928.69	3211
928.796	3264
928.901	3154
929.007	3047
929.112	3165
929.218	3192
929.323	3150
929.428	3138
929.533	3348
929.638	3089
929.743	3161
929.848	3253
929.953	3180
930.058	3127
930.163	3020
930.267	3047
930.372	3173
930.477	3020
930.581	3294
930.685	3188
930.79	3036
930.894	3154
930.998	3123
931.103	3287
931.207	2979
931.311	2895
931.415	2929
931.519	2781
931.623	2807
