Data from test_V78500241_777.txt Node
Date: Fri Mar 25 16:20:35 CST 2022
User: usil
Spectrometer: V785-0024
Trigger mode: 0
Integration Time (sec): 4.000000E-1
Scans to average: 1
Nonlinearity correction enabled: false
Boxcar width: 0
Storing dark spectrum: false
XAxis mode: Wavelengths
Number of Pixels in Spectrum: 1024
>>>>>Begin Spectral Data<<<<<
801.071	2918
801.214	2960
801.356	2910
801.499	2937
801.641	2902
801.783	2922
801.926	3085
802.068	3013
802.211	3055
802.353	3055
802.496	2982
802.638	3058
802.78	3043
802.923	3070
803.065	3062
803.208	2937
803.35	2990
803.492	2948
803.635	2967
803.777	2788
803.919	2895
804.061	3249
804.204	2967
804.346	2895
804.488	2876
804.63	3013
804.773	2914
804.915	2956
805.057	3093
805.199	2960
805.341	2998
805.483	3074
805.626	3047
805.768	2975
805.91	3108
806.052	3165
806.194	3058
806.336	3264
806.478	3074
806.62	3009
806.762	2998
806.904	3074
807.046	3214
807.188	3009
807.33	2948
807.472	2994
807.614	2925
807.756	3047
807.898	2933
808.04	2918
808.182	3017
808.324	2982
808.465	2910
808.607	2933
808.749	2834
808.891	2902
809.033	3001
809.174	3009
809.316	2933
809.458	2933
809.6	2834
809.741	2785
809.883	2773
810.025	2876
810.166	2906
810.308	2895
810.45	2883
810.591	2804
810.733	2819
810.875	2868
811.016	2796
811.158	2807
811.299	2845
811.441	2941
811.582	2910
811.724	2811
811.865	2838
812.007	2933
812.148	2906
812.29	2899
812.431	2933
812.573	2960
812.714	3013
812.855	3074
812.997	3085
813.138	3135
813.279	3032
813.421	3032
813.562	2963
813.703	2906
813.845	2933
813.986	2815
814.127	2788
814.268	2834
814.41	2861
814.551	2819
814.692	2929
814.833	2853
814.974	2948
815.115	2998
815.256	2895
815.397	2906
815.539	2868
815.68	2815
815.821	2800
815.962	2979
816.103	2956
816.244	2944
816.385	2883
816.526	3024
816.666	2922
816.807	2811
816.948	2895
817.089	2933
817.23	2902
817.371	2785
817.512	2861
817.653	2849
817.793	2807
817.934	2910
818.075	2998
818.216	3009
818.356	3024
818.497	2891
818.638	2823
818.778	2853
818.919	2819
819.06	2804
819.2	2883
819.341	2811
819.481	2830
819.622	2929
819.762	3070
819.903	3039
820.043	2952
820.184	2948
820.324	2941
820.465	3039
820.605	3047
820.746	3039
820.886	2944
821.026	3119
821.167	3199
821.307	3294
821.447	3306
821.588	3283
821.728	3218
821.868	3245
822.008	3077
822.149	3195
822.289	3268
822.429	3127
822.569	3100
822.709	3199
822.849	3062
822.99	3081
823.13	3214
823.27	3218
823.41	3131
823.55	3184
823.69	3184
823.83	3207
823.97	3138
824.11	3024
824.25	3017
824.389	3100
824.529	3119
824.669	3085
824.809	3203
824.949	3256
825.089	3226
825.228	3169
825.368	3001
825.508	3028
825.648	2994
825.787	3036
825.927	3043
826.067	2982
826.206	3017
826.346	3077
826.485	3127
826.625	3119
826.765	3237
826.904	3268
827.044	3020
827.183	2967
827.323	2876
827.462	3032
827.601	2914
827.741	2941
827.88	3009
828.02	2845
828.159	2998
828.298	3039
828.437	3108
828.577	3077
828.716	3294
828.855	3097
828.994	2956
829.134	2902
829.273	2963
829.412	2880
829.551	2883
829.69	2937
829.829	3005
829.968	3161
830.107	3043
830.246	3074
830.385	2971
830.524	2906
830.663	2830
830.802	2800
830.941	2663
831.08	2693
831.219	2781
831.357	2788
831.496	3013
831.635	2739
831.774	2663
831.913	2693
832.051	2579
832.19	2610
832.329	2678
832.467	2575
832.606	2511
832.744	2598
832.883	2602
833.022	2594
833.16	2678
833.299	2712
833.437	2708
833.576	2716
833.714	2739
833.852	2750
833.991	2781
834.129	2834
834.267	2842
834.406	2838
834.544	2876
834.682	2899
834.821	2864
834.959	3085
835.097	2929
835.235	3085
835.373	2979
835.511	3036
835.65	3005
835.788	2982
835.926	2857
836.064	2826
836.202	2868
836.34	3116
836.478	3173
836.615	3062
836.753	3123
836.891	3241
837.029	3203
837.167	3154
837.305	3077
837.443	3051
837.58	3001
837.718	3150
837.856	3081
837.993	3070
838.131	3138
838.269	3116
838.406	3131
838.544	3097
838.681	2963
838.819	2960
838.956	2796
839.094	2830
839.231	2956
839.369	3047
839.506	3374
839.643	3226
839.781	3017
839.918	2998
840.055	3055
840.193	3077
840.33	3097
840.467	3108
840.604	3150
840.742	3420
840.879	3047
841.016	3058
841.153	3104
841.29	3367
841.427	3329
841.564	3264
841.701	3317
841.838	3237
841.975	3214
842.112	3207
842.249	3138
842.385	3081
842.522	3302
842.659	3112
842.796	3108
842.933	3154
843.069	3062
843.206	3047
843.343	3203
843.479	3119
843.616	3135
843.752	2918
843.889	2876
844.025	3123
844.162	2880
844.298	3093
844.435	2937
844.571	2933
844.708	3100
844.844	3169
844.98	3249
845.117	3192
845.253	3020
845.389	3009
845.525	3104
845.661	3123
845.798	3005
845.934	3192
846.07	3081
846.206	3203
846.342	3291
846.478	3237
846.614	3108
846.75	3074
846.886	3066
847.022	3256
847.158	3192
847.294	3245
847.429	3272
847.565	3195
847.701	3492
847.837	3058
847.972	3020
848.108	3184
848.244	3173
848.379	3036
848.515	2967
848.65	2963
848.786	3039
848.921	3009
849.057	3085
849.192	3157
849.328	3077
849.463	3108
849.598	3066
849.734	3081
849.869	2963
850.004	2960
850.14	2994
850.275	2902
850.41	2857
850.545	2899
850.68	2963
850.815	2982
850.95	2990
851.085	3207
851.22	3116
851.355	3066
851.49	2982
851.625	3036
851.76	3028
851.895	2956
852.03	2880
852.165	3097
852.299	3123
852.434	3180
852.569	3131
852.703	3195
852.838	3298
852.973	3359
853.107	3329
853.242	3161
853.376	3100
853.511	2994
853.645	3081
853.78	3268
853.914	3123
854.048	3089
854.183	3081
854.317	3161
854.451	3310
854.585	3116
854.72	3127
854.854	3249
854.988	3036
855.122	3138
855.256	2979
855.39	3089
855.524	3230
855.658	3188
855.792	3154
855.926	3207
856.06	3211
856.194	3245
856.327	3180
856.461	3062
856.595	3074
856.729	3062
856.862	3256
856.996	3203
857.13	3230
857.263	3195
857.397	3287
857.53	3173
857.664	3161
857.797	3249
857.931	3253
858.064	3184
858.197	3253
858.331	3150
858.464	3123
858.597	3017
858.731	3157
858.864	3131
858.997	3100
859.13	3154
859.263	3188
859.396	3203
859.529	3112
859.662	3077
859.795	3043
859.928	3112
860.061	3298
860.194	3268
860.327	3104
860.46	3100
860.592	3272
860.725	3249
860.858	3256
860.99	3116
861.123	3013
861.256	3017
861.388	3161
861.521	3949
861.653	3017
861.786	3005
861.918	3028
862.05	3093
862.183	3085
862.315	3165
862.447	3195
862.58	3123
862.712	2944
862.844	2872
862.976	3058
863.108	3005
863.24	3447
863.372	2891
863.504	3005
863.636	2933
863.768	3020
863.9	2975
864.032	2925
864.164	2933
864.296	3055
864.428	3104
864.559	3116
864.691	3097
864.823	3089
864.954	3070
865.086	3074
865.217	2971
865.349	2963
865.48	2941
865.612	3020
865.743	3176
865.875	2975
866.006	2960
866.137	3009
866.269	2979
866.4	2941
866.531	2895
866.662	2876
866.793	2914
866.924	2899
867.055	2967
867.186	2918
867.317	2899
867.448	2868
867.579	2891
867.71	2834
867.841	2819
867.972	2868
868.103	2910
868.233	2887
868.364	2861
868.495	2933
868.625	3104
868.756	3138
868.886	2979
869.017	3001
869.147	3157
869.278	3165
869.408	3074
869.539	3055
869.669	3131
869.799	3028
869.929	3131
870.06	3108
870.19	3336
870.32	3287
870.45	3306
870.58	3336
870.71	3454
870.84	3462
870.97	3283
871.1	3203
871.23	3500
871.36	3439
871.489	3359
871.619	3405
871.749	3435
871.879	3424
872.008	3469
872.138	3397
872.267	3298
872.397	3135
872.526	3108
872.656	3017
872.785	3108
872.915	3226
873.044	3313
873.173	3222
873.303	3268
873.432	3226
873.561	3260
873.69	3138
873.819	3154
873.948	3180
874.077	3123
874.206	3020
874.335	3097
874.464	3218
874.593	3329
874.722	3249
874.851	3386
874.979	3363
875.108	3310
875.237	3207
875.365	3188
875.494	3127
875.623	3199
875.751	3070
875.88	3138
876.008	3192
876.136	3218
876.265	3389
876.393	3458
876.521	3450
876.65	3393
876.778	3340
876.906	3256
877.034	3180
877.162	3249
877.29	3154
877.418	3283
877.546	3272
877.674	3237
877.802	3226
877.93	3222
878.058	3154
878.185	3116
878.313	3199
878.441	3199
878.568	3032
878.696	3195
878.824	3253
878.951	3268
879.079	3420
879.206	3637
879.333	3447
879.461	3329
879.588	3321
879.715	3454
879.842	3553
879.97	3393
880.097	3195
880.224	3138
880.351	3176
880.478	3245
880.605	3214
880.732	3211
880.859	3496
880.986	3298
881.112	3310
881.239	3195
881.366	3108
881.493	3085
881.619	3005
881.746	3058
881.872	3074
881.999	3097
882.125	3131
882.252	3222
882.378	3268
882.505	3428
882.631	3298
882.757	3165
882.883	3207
883.01	3249
883.136	3146
883.262	3104
883.388	3142
883.514	3302
883.64	3351
883.766	3325
883.892	3195
884.018	3241
884.143	3420
884.269	3561
884.395	3222
884.52	3146
884.646	3180
884.772	3127
884.897	3100
885.023	3211
885.148	3329
885.274	3428
885.399	3389
885.524	3294
885.65	3264
885.775	3313
885.9	3279
886.025	3412
886.15	3336
886.275	3329
886.4	3237
886.525	3298
886.65	3275
886.775	3287
886.9	3500
887.025	3637
887.149	3409
887.274	3264
887.399	3161
887.523	3199
887.648	3211
887.773	3226
887.897	3397
888.021	3428
888.146	3306
888.27	3428
888.395	3519
888.519	3428
888.643	3435
888.767	3458
888.891	3302
889.015	3218
889.139	3249
889.263	3256
889.387	3424
889.511	3526
889.635	3447
889.759	3313
889.883	3317
890.006	3367
890.13	3500
890.254	3253
890.377	3325
890.501	3253
890.624	3195
890.748	3302
890.871	3195
890.995	3112
891.118	3070
891.241	3192
891.364	3230
891.488	3306
891.611	3173
891.734	3241
891.857	3279
891.98	3264
892.103	3329
892.226	3275
892.349	3218
892.471	3112
892.594	3241
892.717	3306
892.839	3241
892.962	3291
893.085	3332
893.207	3332
893.33	3146
893.452	3199
893.575	3313
893.697	3237
893.819	3466
893.941	3526
894.064	3447
894.186	3313
894.308	3256
894.43	3443
894.552	3557
894.674	3424
894.796	3253
894.918	3302
895.04	3279
895.161	3416
895.283	3370
895.405	3302
895.526	3397
895.648	3443
895.769	3397
895.891	3477
896.012	3515
896.134	3450
896.255	3412
896.376	3378
896.498	3351
896.619	3416
896.74	3355
896.861	3443
896.982	3652
897.103	3880
897.224	3538
897.345	3538
897.466	3409
897.587	3466
897.708	3652
897.828	3553
897.949	3481
898.07	3291
898.19	3367
898.311	3633
898.431	3439
898.552	3496
898.672	3584
898.792	3576
898.913	3496
899.033	3424
899.153	3279
899.273	3184
899.393	3253
899.513	3275
899.633	3336
899.753	3340
899.873	3313
899.993	3378
900.113	3332
900.232	3428
900.352	3325
900.472	3264
900.591	3211
900.711	3306
900.83	3294
900.95	3370
901.069	3526
901.189	3332
901.308	3195
901.427	3127
901.546	3180
901.665	3321
901.784	3298
901.904	3207
902.023	3161
902.141	3020
902.26	3005
902.379	3150
902.498	3093
902.617	3062
902.735	3203
902.854	3218
902.973	3195
903.091	3047
903.21	3058
903.328	3154
903.446	3127
903.565	3066
903.683	3203
903.801	3116
903.919	3253
904.038	3287
904.156	3157
904.274	3272
904.392	3275
904.51	3294
904.627	3325
904.745	3443
904.863	3481
904.981	3253
905.098	3131
905.216	3203
905.334	3283
905.451	3283
905.569	3298
905.686	3416
905.803	3435
905.921	3302
906.038	3469
906.155	3367
906.272	3260
906.389	3279
906.506	3260
906.623	3245
906.74	3302
906.857	3184
906.974	3260
907.091	3412
907.208	3538
907.324	3450
907.441	3367
907.557	3237
907.674	3207
907.79	3203
907.907	3237
908.023	3355
908.139	3382
908.256	3359
908.372	3344
908.488	3336
908.604	3268
908.72	3203
908.836	3298
908.952	3283
909.068	3332
909.184	3466
909.3	3401
909.415	3507
909.531	3420
909.647	3291
909.762	3283
909.878	3256
909.993	3317
910.108	3332
910.224	3344
910.339	3397
910.454	3329
910.57	3249
910.685	3237
910.8	3637
910.915	3504
911.03	3389
911.145	3275
911.259	3272
911.374	3279
911.489	3241
911.604	3230
911.718	3119
911.833	3165
911.947	3005
912.062	3001
912.176	3154
912.291	3222
912.405	3241
912.519	3389
912.633	3443
912.748	3306
912.862	3256
912.976	3203
913.09	3077
913.204	3135
913.318	3199
913.431	3302
913.545	3359
913.659	3401
913.772	3340
913.886	3203
914	3199
914.113	3344
914.226	3359
914.34	3294
914.453	3214
914.566	3424
914.68	3272
914.793	3260
914.906	3123
915.019	3089
915.132	3058
915.245	3165
915.358	3211
915.47	3237
915.583	3298
915.696	3294
915.809	3378
915.921	3431
916.034	3249
916.146	3256
916.259	3222
916.371	3386
916.483	3351
916.595	3264
916.708	3348
916.82	3317
916.932	3329
917.044	3340
917.156	3344
917.268	3237
917.38	3272
917.491	3306
917.603	3355
917.715	3443
917.826	3447
917.938	3359
918.049	3287
918.161	3462
918.272	3564
918.384	3549
918.495	3462
918.606	3313
918.717	3279
918.828	3378
918.939	3435
919.05	3310
919.161	3374
919.272	3192
919.383	3256
919.494	3492
919.604	3679
919.715	3481
919.826	3401
919.936	3458
920.047	3568
920.157	3519
920.267	3728
920.378	3618
920.488	3568
920.598	3808
920.708	3941
920.818	3838
920.928	3835
921.038	4010
921.148	3983
921.258	3667
921.368	3625
921.477	3587
921.587	3538
921.697	3412
921.806	3637
921.916	3504
922.025	3336
922.134	3355
922.244	3291
922.353	3405
922.462	3264
922.571	3233
922.68	3089
922.789	3093
922.898	3131
923.007	3097
923.116	3195
923.224	3154
923.333	3161
923.442	3077
923.55	3039
923.659	3123
923.767	3211
923.876	3108
923.984	3260
924.092	3112
924.201	3188
924.309	3199
924.417	3275
924.525	3180
924.633	3211
924.741	4207
924.849	3039
924.956	3241
925.064	3089
925.172	3013
925.279	3074
925.387	3165
925.494	3184
925.602	3325
925.709	3268
925.816	3180
925.924	3279
926.031	3367
926.138	3298
926.245	3348
926.352	3214
926.459	3401
926.566	3469
926.673	3302
926.779	3245
926.886	3249
926.993	3142
927.099	3119
927.206	3123
927.312	3097
927.419	3192
927.525	3203
927.631	3272
927.737	3146
927.843	3138
927.95	3017
928.056	3154
928.162	3180
928.267	3237
928.373	3762
928.479	3325
928.585	3066
928.69	3241
928.796	3230
928.901	3195
929.007	3017
929.112	3207
929.218	3165
929.323	3127
929.428	3188
929.533	3321
929.638	3135
929.743	3165
929.848	3260
929.953	3245
930.058	3127
930.163	2998
930.267	3043
930.372	3138
930.477	3013
930.581	3310
930.685	3192
930.79	3047
930.894	3116
930.998	3097
931.103	3249
931.207	2922
931.311	2960
931.415	2910
931.519	2758
931.623	2823
