Data from test_V78500241_1360.txt Node
Date: Fri Mar 25 16:24:37 CST 2022
User: usil
Spectrometer: V785-0024
Trigger mode: 0
Integration Time (sec): 4.000000E-1
Scans to average: 1
Nonlinearity correction enabled: false
Boxcar width: 0
Storing dark spectrum: false
XAxis mode: Wavelengths
Number of Pixels in Spectrum: 1024
>>>>>Begin Spectral Data<<<<<
801.071	2929
801.214	2998
801.356	2880
801.499	2883
801.641	2902
801.783	2956
801.926	3062
802.068	3005
802.211	3028
802.353	3032
802.496	3009
802.638	3005
802.78	3081
802.923	3104
803.065	2967
803.208	2906
803.35	2941
803.492	2971
803.635	2937
803.777	2762
803.919	2861
804.061	3192
804.204	2944
804.346	2963
804.488	2902
804.63	3013
804.773	2891
804.915	2948
805.057	3108
805.199	2937
805.341	2948
805.483	3081
805.626	3009
805.768	2986
805.91	3093
806.052	3138
806.194	3013
806.336	3256
806.478	3024
806.62	3013
806.762	2960
806.904	3085
807.046	3192
807.188	3009
807.33	2929
807.472	3005
807.614	2906
807.756	3020
807.898	2948
808.04	2853
808.182	2986
808.324	2982
808.465	2933
808.607	2906
808.749	2773
808.891	2906
809.033	2979
809.174	2979
809.316	2895
809.458	2895
809.6	2781
809.741	2788
809.883	2796
810.025	2853
810.166	2861
810.308	2880
810.45	2861
810.591	2788
810.733	2804
810.875	2849
811.016	2807
811.158	2773
811.299	2876
811.441	2944
811.582	2925
811.724	2876
811.865	2868
812.007	2937
812.148	2937
812.29	2876
812.431	2925
812.573	2941
812.714	2952
812.855	3085
812.997	3047
813.138	3146
813.279	3043
813.421	2982
813.562	2990
813.703	2842
813.845	2887
813.986	2807
814.127	2739
814.268	2857
814.41	2842
814.551	2902
814.692	2906
814.833	2796
814.974	2929
815.115	2933
815.256	2872
815.397	2819
815.539	2902
815.68	2811
815.821	2781
815.962	2960
816.103	2918
816.244	2880
816.385	2887
816.526	2979
816.666	2941
816.807	2804
816.948	2902
817.089	2933
817.23	2880
817.371	2796
817.512	2815
817.653	2842
817.793	2845
817.934	2868
818.075	2998
818.216	3024
818.356	3062
818.497	2864
818.638	2826
818.778	2834
818.919	2811
819.06	2800
819.2	2887
819.341	2788
819.481	2842
819.622	2948
819.762	3138
819.903	3043
820.043	2933
820.184	2910
820.324	2944
820.465	3047
820.605	3062
820.746	3036
820.886	2975
821.026	3135
821.167	3211
821.307	3313
821.447	3340
821.588	3294
821.728	3211
821.868	3272
822.008	3093
822.149	3233
822.289	3233
822.429	3104
822.569	3119
822.709	3211
822.849	3055
822.99	3077
823.13	3169
823.27	3195
823.41	3138
823.55	3157
823.69	3157
823.83	3211
823.97	3104
824.11	3043
824.25	2998
824.389	3104
824.529	3135
824.669	3104
824.809	3226
824.949	3245
825.089	3245
825.228	3157
825.368	3051
825.508	2952
825.648	3005
825.787	3043
825.927	3036
826.067	2982
826.206	2990
826.346	3024
826.485	3085
826.625	3104
826.765	3287
826.904	3237
827.044	3036
827.183	2967
827.323	2872
827.462	3001
827.601	2906
827.741	2906
827.88	2960
828.02	2880
828.159	3013
828.298	3097
828.437	3116
828.577	3055
828.716	3237
828.855	3062
828.994	2899
829.134	2872
829.273	2922
829.412	2902
829.551	2868
829.69	2933
829.829	2975
829.968	3146
830.107	3020
830.246	3051
830.385	2922
830.524	2880
830.663	2857
830.802	2769
830.941	2686
831.08	2644
831.219	2777
831.357	2754
831.496	2971
831.635	2731
831.774	2648
831.913	2678
832.051	2503
832.19	2590
832.329	2697
832.467	2575
832.606	2465
832.744	2587
832.883	2590
833.022	2613
833.16	2670
833.299	2686
833.437	2686
833.576	2724
833.714	2739
833.852	2735
833.991	2781
834.129	2834
834.267	2853
834.406	2792
834.544	2872
834.682	2891
834.821	2864
834.959	3097
835.097	2902
835.235	3074
835.373	3028
835.511	3043
835.65	3020
835.788	2971
835.926	2845
836.064	2773
836.202	2876
836.34	3135
836.478	3161
836.615	3077
836.753	3165
836.891	3188
837.029	3173
837.167	3112
837.305	3055
837.443	3020
837.58	3005
837.718	3142
837.856	3062
837.993	3032
838.131	3093
838.269	3089
838.406	3135
838.544	3097
838.681	3001
838.819	2933
838.956	2800
839.094	2845
839.231	2956
839.369	3039
839.506	3363
839.643	3249
839.781	3024
839.918	2963
840.055	3051
840.193	3066
840.33	3055
840.467	3100
840.604	3150
840.742	3416
840.879	3097
841.016	3062
841.153	3138
841.29	3325
841.427	3329
841.564	3287
841.701	3351
841.838	3233
841.975	3195
842.112	3203
842.249	3089
842.385	3039
842.522	3268
842.659	3089
842.796	3043
842.933	3116
843.069	3043
843.206	3047
843.343	3207
843.479	3112
843.616	3116
843.752	2902
843.889	2861
844.025	3074
844.162	2861
844.298	3077
844.435	2925
844.571	2937
844.708	3051
844.844	3218
844.98	3222
845.117	3207
845.253	3039
845.389	3028
845.525	3119
845.661	3097
845.798	3043
845.934	3123
846.07	3081
846.206	3203
846.342	3321
846.478	3241
846.614	3077
846.75	3051
846.886	3009
847.022	3253
847.158	3142
847.294	3199
847.429	3222
847.565	3268
847.701	3492
847.837	3024
847.972	3043
848.108	3138
848.244	3112
848.379	2975
848.515	2941
848.65	2910
848.786	2963
848.921	3028
849.057	3154
849.192	3135
849.328	3066
849.463	3108
849.598	3051
849.734	3051
849.869	2941
850.004	2906
850.14	2952
850.275	2914
850.41	2842
850.545	2902
850.68	2948
850.815	2941
850.95	2979
851.085	3207
851.22	3070
851.355	3028
851.49	2990
851.625	3013
851.76	3028
851.895	2925
852.03	2891
852.165	3039
852.299	3138
852.434	3195
852.569	3154
852.703	3199
852.838	3226
852.973	3351
853.107	3382
853.242	3173
853.376	3089
853.511	3020
853.645	3062
853.78	3237
853.914	3146
854.048	3157
854.183	3085
854.317	3165
854.451	3325
854.585	3161
854.72	3169
854.854	3230
854.988	3058
855.122	3119
855.256	3028
855.39	3150
855.524	3260
855.658	3192
855.792	3233
855.926	3184
856.06	3253
856.194	3294
856.327	3199
856.461	3058
856.595	3108
856.729	3112
856.862	3249
856.996	3207
857.13	3230
857.263	3272
857.397	3279
857.53	3138
857.664	3207
857.797	3272
857.931	3313
858.064	3230
858.197	3279
858.331	3176
858.464	3131
858.597	3043
858.731	3119
858.864	3184
858.997	3146
859.13	3218
859.263	3180
859.396	3260
859.529	3146
859.662	3116
859.795	3066
859.928	3154
860.061	3317
860.194	3336
860.327	3135
860.46	3104
860.592	3256
860.725	3310
860.858	3294
860.99	3154
861.123	3074
861.256	3093
861.388	3203
861.521	3740
861.653	3089
861.786	3043
861.918	3058
862.05	3085
862.183	3135
862.315	3173
862.447	3222
862.58	3123
862.712	2960
862.844	2910
862.976	3081
863.108	3058
863.24	3378
863.372	2929
863.504	3005
863.636	3001
863.768	3032
863.9	3020
864.032	2952
864.164	2982
864.296	3017
864.428	3081
864.559	3157
864.691	3097
864.823	3062
864.954	3013
865.086	3058
865.217	3051
865.349	2963
865.48	2994
865.612	3055
865.743	3173
865.875	3043
866.006	2956
866.137	2982
866.269	2986
866.4	3017
866.531	2952
866.662	2918
866.793	2906
866.924	2956
867.055	2998
867.186	2975
867.317	2925
867.448	2880
867.579	2906
867.71	2910
867.841	2861
867.972	2906
868.103	2948
868.233	2948
868.364	2922
868.495	2948
868.625	3100
868.756	3173
868.886	3001
869.017	3013
869.147	3184
869.278	3218
869.408	3081
869.539	3058
869.669	3138
869.799	3062
869.929	3142
870.06	3142
870.19	3348
870.32	3310
870.45	3313
870.58	3393
870.71	3420
870.84	3492
870.97	3317
871.1	3253
871.23	3515
871.36	3500
871.489	3386
871.619	3450
871.749	3428
871.879	3443
872.008	3504
872.138	3409
872.267	3329
872.397	3192
872.526	3146
872.656	3051
872.785	3142
872.915	3264
873.044	3359
873.173	3264
873.303	3313
873.432	3275
873.561	3260
873.69	3199
873.819	3199
873.948	3150
874.077	3138
874.206	3058
874.335	3112
874.464	3253
874.593	3313
874.722	3264
874.851	3382
874.979	3378
875.108	3344
875.237	3203
875.365	3157
875.494	3192
875.623	3275
875.751	3112
875.88	3150
876.008	3230
876.136	3275
876.265	3424
876.393	3507
876.521	3450
876.65	3416
876.778	3382
876.906	3279
877.034	3218
877.162	3237
877.29	3241
877.418	3298
877.546	3260
877.674	3294
877.802	3241
877.93	3272
878.058	3188
878.185	3146
878.313	3245
878.441	3211
878.568	3150
878.696	3195
878.824	3287
878.951	3329
879.079	3473
879.206	3690
879.333	3458
879.461	3370
879.588	3443
879.715	3511
879.842	3663
879.97	3378
880.097	3192
880.224	3161
880.351	3218
880.478	3245
880.605	3211
880.732	3218
880.859	3553
880.986	3310
881.112	3348
881.239	3272
881.366	3119
881.493	3112
881.619	3024
881.746	3100
881.872	3112
881.999	3192
882.125	3188
882.252	3245
882.378	3351
882.505	3466
882.631	3283
882.757	3188
882.883	3237
883.01	3268
883.136	3207
883.262	3138
883.388	3135
883.514	3329
883.64	3393
883.766	3317
883.892	3222
884.018	3329
884.143	3477
884.269	3553
884.395	3203
884.52	3188
884.646	3226
884.772	3135
884.897	3142
885.023	3253
885.148	3378
885.274	3412
885.399	3382
885.524	3291
885.65	3302
885.775	3336
885.9	3287
886.025	3496
886.15	3409
886.275	3325
886.4	3253
886.525	3306
886.65	3287
886.775	3306
886.9	3534
887.025	3656
887.149	3409
887.274	3287
887.399	3222
887.523	3226
887.648	3184
887.773	3226
887.897	3416
888.021	3450
888.146	3283
888.27	3458
888.395	3568
888.519	3481
888.643	3469
888.767	3481
888.891	3329
889.015	3256
889.139	3317
889.263	3275
889.387	3386
889.511	3557
889.635	3473
889.759	3283
889.883	3340
890.006	3397
890.13	3496
890.254	3317
890.377	3355
890.501	3207
890.624	3188
890.748	3329
890.871	3207
890.995	3176
891.118	3074
891.241	3211
891.364	3260
891.488	3389
891.611	3233
891.734	3241
891.857	3340
891.98	3230
892.103	3348
892.226	3283
892.349	3241
892.471	3154
892.594	3279
892.717	3302
892.839	3272
892.962	3310
893.085	3409
893.207	3332
893.33	3180
893.452	3287
893.575	3386
893.697	3283
893.819	3507
893.941	3534
894.064	3466
894.186	3283
894.308	3306
894.43	3469
894.552	3542
894.674	3519
894.796	3264
894.918	3332
895.04	3291
895.161	3439
895.283	3409
895.405	3329
895.526	3431
895.648	3443
895.769	3428
895.891	3447
896.012	3511
896.134	3507
896.255	3409
896.376	3405
896.498	3409
896.619	3458
896.74	3393
896.861	3416
896.982	3679
897.103	3827
897.224	3610
897.345	3530
897.466	3481
897.587	3492
897.708	3633
897.828	3557
897.949	3450
898.07	3363
898.19	3435
898.311	3603
898.431	3469
898.552	3534
898.672	3618
898.792	3622
898.913	3584
899.033	3439
899.153	3355
899.273	3245
899.393	3313
899.513	3344
899.633	3317
899.753	3378
899.873	3336
899.993	3428
900.113	3351
900.232	3401
900.352	3351
900.472	3291
900.591	3253
900.711	3332
900.83	3207
900.95	3428
901.069	3504
901.189	3382
901.308	3180
901.427	3154
901.546	3226
901.665	3272
901.784	3374
901.904	3233
902.023	3188
902.141	3024
902.26	3077
902.379	3157
902.498	3093
902.617	3074
902.735	3253
902.854	3253
902.973	3188
903.091	3077
903.21	3097
903.328	3142
903.446	3150
903.565	3138
903.683	3169
903.801	3165
903.919	3256
904.038	3321
904.156	3176
904.274	3302
904.392	3264
904.51	3275
904.627	3321
904.745	3447
904.863	3523
904.981	3245
905.098	3192
905.216	3260
905.334	3340
905.451	3355
905.569	3291
905.686	3458
905.803	3477
905.921	3283
906.038	3439
906.155	3325
906.272	3279
906.389	3397
906.506	3264
906.623	3279
906.74	3317
906.857	3222
906.974	3264
907.091	3462
907.208	3564
907.324	3496
907.441	3428
907.557	3245
907.674	3249
907.79	3249
907.907	3279
908.023	3393
908.139	3382
908.256	3363
908.372	3367
908.488	3374
908.604	3306
908.72	3222
908.836	3287
908.952	3283
909.068	3363
909.184	3523
909.3	3401
909.415	3538
909.531	3504
909.647	3302
909.762	3321
909.878	3256
909.993	3397
910.108	3378
910.224	3359
910.339	3428
910.454	3363
910.57	3332
910.685	3294
910.8	3606
910.915	3568
911.03	3447
911.145	3279
911.259	3237
911.374	3306
911.489	3249
911.604	3214
911.718	3112
911.833	3142
911.947	3066
912.062	3028
912.176	3176
912.291	3218
912.405	3230
912.519	3439
912.633	3473
912.748	3351
912.862	3298
912.976	3173
913.09	3062
913.204	3131
913.318	3237
913.431	3302
913.545	3332
913.659	3389
913.772	3317
913.886	3249
914	3230
914.113	3329
914.226	3454
914.34	3370
914.453	3253
914.566	3416
914.68	3268
914.793	3340
914.906	3184
915.019	3127
915.132	3070
915.245	3199
915.358	3241
915.47	3256
915.583	3317
915.696	3332
915.809	3389
915.921	3412
916.034	3256
916.146	3241
916.259	3253
916.371	3389
916.483	3367
916.595	3260
916.708	3370
916.82	3348
916.932	3359
917.044	3374
917.156	3367
917.268	3279
917.38	3306
917.491	3325
917.603	3397
917.715	3473
917.826	3485
917.938	3389
918.049	3272
918.161	3416
918.272	3584
918.384	3580
918.495	3530
918.606	3363
918.717	3336
918.828	3420
918.939	3389
919.05	3332
919.161	3382
919.272	3188
919.383	3291
919.494	3511
919.604	3724
919.715	3458
919.826	3439
919.936	3477
920.047	3625
920.157	3568
920.267	3751
920.378	3610
920.488	3580
920.598	3759
920.708	3979
920.818	3808
920.928	3854
921.038	4051
921.148	4029
921.258	3679
921.368	3637
921.477	3606
921.587	3606
921.697	3439
921.806	3633
921.916	3481
922.025	3401
922.134	3348
922.244	3329
922.353	3443
922.462	3294
922.571	3180
922.68	3077
922.789	3058
922.898	3142
923.007	3093
923.116	3214
923.224	3161
923.333	3176
923.442	3085
923.55	3108
923.659	3142
923.767	3222
923.876	3135
923.984	3272
924.092	3108
924.201	3245
924.309	3218
924.417	3272
924.525	3180
924.633	3279
924.741	4071
924.849	3051
924.956	3272
925.064	3100
925.172	3020
925.279	3112
925.387	3214
925.494	3199
925.602	3378
925.709	3321
925.816	3199
925.924	3298
926.031	3420
926.138	3329
926.245	3363
926.352	3256
926.459	3450
926.566	3481
926.673	3344
926.779	3294
926.886	3291
926.993	3150
927.099	3138
927.206	3089
927.312	3104
927.419	3256
927.525	3222
927.631	3275
927.737	3127
927.843	3214
927.95	3047
928.056	3100
928.162	3195
928.267	3264
928.373	3884
928.479	3321
928.585	3077
928.69	3226
928.796	3253
928.901	3203
929.007	3039
929.112	3253
929.218	3195
929.323	3154
929.428	3192
929.533	3298
929.638	3123
929.743	3176
929.848	3253
929.953	3199
930.058	3192
930.163	2971
930.267	3058
930.372	3241
930.477	3032
930.581	3298
930.685	3169
930.79	3020
930.894	3146
930.998	3097
931.103	3275
931.207	2967
931.311	2937
931.415	2910
931.519	2773
931.623	2766
