Data from test_V78500241_414.txt Node
Date: Fri Mar 25 16:18:04 CST 2022
User: usil
Spectrometer: V785-0024
Trigger mode: 0
Integration Time (sec): 4.000000E-1
Scans to average: 1
Nonlinearity correction enabled: false
Boxcar width: 0
Storing dark spectrum: false
XAxis mode: Wavelengths
Number of Pixels in Spectrum: 1024
>>>>>Begin Spectral Data<<<<<
801.071	2910
801.214	2933
801.356	2834
801.499	2880
801.641	2819
801.783	2910
801.926	3066
802.068	2975
802.211	2963
802.353	2994
802.496	2967
802.638	3017
802.78	3020
802.923	3055
803.065	2975
803.208	2895
803.35	2876
803.492	2929
803.635	2937
803.777	2697
803.919	2834
804.061	3184
804.204	2914
804.346	2864
804.488	2815
804.63	2979
804.773	2864
804.915	2880
805.057	3047
805.199	2918
805.341	2948
805.483	3009
805.626	2967
805.768	2956
805.91	3051
806.052	3081
806.194	2998
806.336	3195
806.478	3005
806.62	2941
806.762	2925
806.904	2998
807.046	3127
807.188	2975
807.33	2925
807.472	2994
807.614	2861
807.756	2963
807.898	2914
808.04	2857
808.182	2933
808.324	2948
808.465	2826
808.607	2868
808.749	2746
808.891	2838
809.033	2952
809.174	2922
809.316	2849
809.458	2864
809.6	2743
809.741	2750
809.883	2731
810.025	2830
810.166	2845
810.308	2766
810.45	2830
810.591	2754
810.733	2739
810.875	2792
811.016	2731
811.158	2731
811.299	2762
811.441	2933
811.582	2849
811.724	2819
811.865	2788
812.007	2902
812.148	2845
812.29	2838
812.431	2887
812.573	2925
812.714	2948
812.855	3009
812.997	2998
813.138	3112
813.279	2990
813.421	2956
813.562	2933
813.703	2853
813.845	2857
813.986	2762
814.127	2727
814.268	2834
814.41	2826
814.551	2830
814.692	2876
814.833	2838
814.974	2899
815.115	2986
815.256	2872
815.397	2819
815.539	2838
815.68	2773
815.821	2788
815.962	2944
816.103	2963
816.244	2883
816.385	2902
816.526	2994
816.666	2914
816.807	2754
816.948	2891
817.089	2910
817.23	2891
817.371	2823
817.512	2842
817.653	2872
817.793	2811
817.934	2933
818.075	2979
818.216	3024
818.356	3097
818.497	2956
818.638	2849
818.778	2823
818.919	2823
819.06	2796
819.2	2910
819.341	2883
819.481	2849
819.622	2990
819.762	3157
819.903	3062
820.043	2933
820.184	2960
820.324	2914
820.465	3047
820.605	3039
820.746	3062
820.886	2967
821.026	3157
821.167	3188
821.307	3313
821.447	3310
821.588	3264
821.728	3233
821.868	3218
822.008	3081
822.149	3199
822.289	3222
822.429	3119
822.569	3165
822.709	3218
822.849	3093
822.99	3089
823.13	3207
823.27	3256
823.41	3165
823.55	3199
823.69	3157
823.83	3237
823.97	3116
824.11	3039
824.25	3028
824.389	3093
824.529	3127
824.669	3104
824.809	3199
824.949	3275
825.089	3287
825.228	3169
825.368	3055
825.508	2982
825.648	2990
825.787	3070
825.927	3066
826.067	2990
826.206	2982
826.346	3119
826.485	3112
826.625	3104
826.765	3325
826.904	3241
827.044	3043
827.183	2937
827.323	2880
827.462	3020
827.601	2922
827.741	2971
827.88	3020
828.02	2857
828.159	2948
828.298	3093
828.437	3165
828.577	3085
828.716	3279
828.855	3100
828.994	2960
829.134	2902
829.273	2948
829.412	2918
829.551	2906
829.69	2944
829.829	3009
829.968	3169
830.107	3020
830.246	3058
830.385	2960
830.524	2895
830.663	2857
830.802	2746
830.941	2682
831.08	2716
831.219	2766
831.357	2785
831.496	2990
831.635	2727
831.774	2705
831.913	2724
832.051	2594
832.19	2583
832.329	2735
832.467	2579
832.606	2522
832.744	2594
832.883	2625
833.022	2613
833.16	2663
833.299	2705
833.437	2735
833.576	2731
833.714	2762
833.852	2796
833.991	2815
834.129	2864
834.267	2880
834.406	2815
834.544	2899
834.682	2876
834.821	2925
834.959	3100
835.097	2891
835.235	3100
835.373	3024
835.511	3047
835.65	2986
835.788	2948
835.926	2872
836.064	2861
836.202	2849
836.34	3135
836.478	3161
836.615	3089
836.753	3184
836.891	3226
837.029	3203
837.167	3131
837.305	3108
837.443	3055
837.58	2986
837.718	3135
837.856	3070
837.993	3116
838.131	3161
838.269	3127
838.406	3104
838.544	3077
838.681	2982
838.819	2967
838.956	2838
839.094	2872
839.231	2918
839.369	3047
839.506	3374
839.643	3214
839.781	3020
839.918	2994
840.055	3074
840.193	3043
840.33	3097
840.467	3104
840.604	3184
840.742	3454
840.879	3058
841.016	3055
841.153	3180
841.29	3355
841.427	3291
841.564	3260
841.701	3306
841.838	3237
841.975	3211
842.112	3233
842.249	3104
842.385	3081
842.522	3275
842.659	3123
842.796	3066
842.933	3127
843.069	3062
843.206	3055
843.343	3230
843.479	3142
843.616	3173
843.752	2914
843.889	2891
844.025	3150
844.162	2880
844.298	3131
844.435	2960
844.571	2956
844.708	3089
844.844	3176
844.98	3233
845.117	3226
845.253	3074
845.389	3055
845.525	3131
845.661	3131
845.798	3047
845.934	3123
846.07	3085
846.206	3237
846.342	3340
846.478	3279
846.614	3097
846.75	3055
846.886	3097
847.022	3298
847.158	3112
847.294	3188
847.429	3253
847.565	3249
847.701	3534
847.837	3039
847.972	3024
848.108	3199
848.244	3188
848.379	3017
848.515	2986
848.65	2967
848.786	3020
848.921	3047
849.057	3169
849.192	3161
849.328	3077
849.463	3116
849.598	3081
849.734	3062
849.869	2990
850.004	2971
850.14	2975
850.275	2952
850.41	2876
850.545	2899
850.68	2975
850.815	2990
850.95	2948
851.085	3192
851.22	3116
851.355	3039
851.49	2982
851.625	3032
851.76	3039
851.895	2967
852.03	2925
852.165	3051
852.299	3188
852.434	3176
852.569	3161
852.703	3188
852.838	3268
852.973	3370
853.107	3351
853.242	3157
853.376	3146
853.511	2944
853.645	3077
853.78	3245
853.914	3127
854.048	3116
854.183	3108
854.317	3165
854.451	3340
854.585	3108
854.72	3108
854.854	3249
854.988	3100
855.122	3127
855.256	3013
855.39	3127
855.524	3279
855.658	3241
855.792	3138
855.926	3203
856.06	3211
856.194	3264
856.327	3165
856.461	3085
856.595	3085
856.729	3127
856.862	3214
856.996	3214
857.13	3226
857.263	3272
857.397	3325
857.53	3142
857.664	3226
857.797	3245
857.931	3279
858.064	3207
858.197	3253
858.331	3169
858.464	3097
858.597	3001
858.731	3157
858.864	3142
858.997	3123
859.13	3203
859.263	3192
859.396	3226
859.529	3135
859.662	3097
859.795	3047
859.928	3218
860.061	3310
860.194	3279
860.327	3169
860.46	3138
860.592	3218
860.725	3287
860.858	3222
860.99	3180
861.123	3108
861.256	3058
861.388	3184
861.521	3804
861.653	3043
861.786	3024
861.918	3032
862.05	3039
862.183	3116
862.315	3161
862.447	3214
862.58	3123
862.712	2975
862.844	2887
862.976	3043
863.108	3020
863.24	3435
863.372	2937
863.504	2971
863.636	2998
863.768	3032
863.9	3001
864.032	2956
864.164	2933
864.296	3028
864.428	3108
864.559	3104
864.691	3077
864.823	3077
864.954	3036
865.086	3043
865.217	3036
865.349	2971
865.48	3043
865.612	3058
865.743	3176
865.875	2975
866.006	2971
866.137	2986
866.269	2967
866.4	2941
866.531	2941
866.662	2925
866.793	2918
866.924	2937
867.055	2986
867.186	2941
867.317	2887
867.448	2864
867.579	2849
867.71	2876
867.841	2868
867.972	2918
868.103	2918
868.233	2880
868.364	2895
868.495	2914
868.625	3116
868.756	3173
868.886	2960
869.017	3017
869.147	3176
869.278	3180
869.408	3043
869.539	3009
869.669	3119
869.799	3047
869.929	3150
870.06	3123
870.19	3340
870.32	3291
870.45	3291
870.58	3367
870.71	3443
870.84	3458
870.97	3302
871.1	3256
871.23	3462
871.36	3488
871.489	3374
871.619	3412
871.749	3389
871.879	3466
872.008	3523
872.138	3382
872.267	3298
872.397	3169
872.526	3123
872.656	3017
872.785	3104
872.915	3253
873.044	3306
873.173	3230
873.303	3306
873.432	3218
873.561	3203
873.69	3161
873.819	3169
873.948	3226
874.077	3104
874.206	3058
874.335	3070
874.464	3188
874.593	3370
874.722	3256
874.851	3397
874.979	3355
875.108	3306
875.237	3222
875.365	3180
875.494	3146
875.623	3256
875.751	3104
875.88	3100
876.008	3199
876.136	3230
876.265	3420
876.393	3576
876.521	3450
876.65	3378
876.778	3359
876.906	3264
877.034	3222
877.162	3226
877.29	3192
877.418	3268
877.546	3237
877.674	3256
877.802	3241
877.93	3214
878.058	3207
878.185	3100
878.313	3199
878.441	3256
878.568	3108
878.696	3165
878.824	3256
878.951	3332
879.079	3466
879.206	3603
879.333	3462
879.461	3317
879.588	3367
879.715	3488
879.842	3629
879.97	3405
880.097	3169
880.224	3119
880.351	3207
880.478	3222
880.605	3241
880.732	3218
880.859	3511
880.986	3332
881.112	3355
881.239	3180
881.366	3100
881.493	3039
881.619	3036
881.746	3070
881.872	3081
881.999	3119
882.125	3157
882.252	3260
882.378	3291
882.505	3443
882.631	3321
882.757	3173
882.883	3237
883.01	3214
883.136	3165
883.262	3104
883.388	3104
883.514	3310
883.64	3348
883.766	3306
883.892	3184
884.018	3245
884.143	3420
884.269	3538
884.395	3199
884.52	3154
884.646	3150
884.772	3100
884.897	3100
885.023	3180
885.148	3336
885.274	3439
885.399	3389
885.524	3298
885.65	3275
885.775	3317
885.9	3264
886.025	3416
886.15	3374
886.275	3287
886.4	3218
886.525	3321
886.65	3291
886.775	3272
886.9	3496
887.025	3641
887.149	3424
887.274	3211
887.399	3195
887.523	3226
887.648	3214
887.773	3211
887.897	3386
888.021	3389
888.146	3317
888.27	3458
888.395	3561
888.519	3431
888.643	3462
888.767	3458
888.891	3317
889.015	3230
889.139	3321
889.263	3249
889.387	3378
889.511	3511
889.635	3469
889.759	3268
889.883	3336
890.006	3424
890.13	3466
890.254	3249
890.377	3378
890.501	3233
890.624	3222
890.748	3306
890.871	3192
890.995	3097
891.118	3058
891.241	3199
891.364	3199
891.488	3306
891.611	3142
891.734	3256
891.857	3283
891.98	3272
892.103	3344
892.226	3264
892.349	3207
892.471	3104
892.594	3199
892.717	3321
892.839	3275
892.962	3291
893.085	3386
893.207	3310
893.33	3169
893.452	3173
893.575	3340
893.697	3264
893.819	3473
893.941	3481
894.064	3477
894.186	3256
894.308	3283
894.43	3439
894.552	3549
894.674	3496
894.796	3264
894.918	3306
895.04	3321
895.161	3431
895.283	3420
895.405	3298
895.526	3409
895.648	3454
895.769	3450
895.891	3473
896.012	3477
896.134	3466
896.255	3393
896.376	3359
896.498	3329
896.619	3447
896.74	3397
896.861	3393
896.982	3667
897.103	3842
897.224	3553
897.345	3526
897.466	3405
897.587	3469
897.708	3603
897.828	3538
897.949	3443
898.07	3306
898.19	3424
898.311	3568
898.431	3435
898.552	3515
898.672	3606
898.792	3591
898.913	3523
899.033	3454
899.153	3287
899.273	3226
899.393	3283
899.513	3359
899.633	3310
899.753	3340
899.873	3294
899.993	3389
900.113	3340
900.232	3386
900.352	3340
900.472	3268
900.591	3195
900.711	3348
900.83	3237
900.95	3431
901.069	3492
901.189	3378
901.308	3169
901.427	3116
901.546	3207
901.665	3306
901.784	3329
901.904	3203
902.023	3138
902.141	3039
902.26	2986
902.379	3169
902.498	3066
902.617	3036
902.735	3195
902.854	3237
902.973	3233
903.091	3039
903.21	3085
903.328	3127
903.446	3116
903.565	3116
903.683	3207
903.801	3119
903.919	3283
904.038	3264
904.156	3138
904.274	3291
904.392	3275
904.51	3256
904.627	3310
904.745	3420
904.863	3458
904.981	3272
905.098	3176
905.216	3230
905.334	3310
905.451	3287
905.569	3317
905.686	3466
905.803	3454
905.921	3348
906.038	3439
906.155	3374
906.272	3279
906.389	3321
906.506	3226
906.623	3279
906.74	3272
906.857	3188
906.974	3249
907.091	3428
907.208	3576
907.324	3450
907.441	3416
907.557	3222
907.674	3264
907.79	3214
907.907	3279
908.023	3355
908.139	3389
908.256	3351
908.372	3374
908.488	3355
908.604	3294
908.72	3264
908.836	3325
908.952	3279
909.068	3317
909.184	3469
909.3	3428
909.415	3477
909.531	3504
909.647	3294
909.762	3306
909.878	3264
909.993	3348
910.108	3344
910.224	3321
910.339	3389
910.454	3332
910.57	3329
910.685	3241
910.8	3591
910.915	3549
911.03	3397
911.145	3291
911.259	3275
911.374	3279
911.489	3241
911.604	3214
911.718	3131
911.833	3146
911.947	3047
912.062	2971
912.176	3123
912.291	3195
912.405	3226
912.519	3435
912.633	3443
912.748	3344
912.862	3264
912.976	3195
913.09	3062
913.204	3154
913.318	3214
913.431	3348
913.545	3325
913.659	3416
913.772	3306
913.886	3226
914	3195
914.113	3351
914.226	3450
914.34	3382
914.453	3214
914.566	3412
914.68	3298
914.793	3294
914.906	3154
915.019	3138
915.132	3085
915.245	3195
915.358	3176
915.47	3230
915.583	3260
915.696	3272
915.809	3370
915.921	3428
916.034	3253
916.146	3268
916.259	3260
916.371	3412
916.483	3325
916.595	3275
916.708	3340
916.82	3325
916.932	3344
917.044	3332
917.156	3340
917.268	3237
917.38	3279
917.491	3291
917.603	3367
917.715	3462
917.826	3488
917.938	3351
918.049	3306
918.161	3443
918.272	3587
918.384	3591
918.495	3500
918.606	3367
918.717	3283
918.828	3363
918.939	3416
919.05	3313
919.161	3325
919.272	3169
919.383	3340
919.494	3488
919.604	3701
919.715	3504
919.826	3435
919.936	3462
920.047	3595
920.157	3530
920.267	3778
920.378	3603
920.488	3568
920.598	3736
920.708	3964
920.818	3831
920.928	3838
921.038	4029
921.148	3991
921.258	3698
921.368	3648
921.477	3572
921.587	3526
921.697	3458
921.806	3644
921.916	3561
922.025	3389
922.134	3340
922.244	3306
922.353	3428
922.462	3268
922.571	3253
922.68	3123
922.789	3066
922.898	3150
923.007	3081
923.116	3195
923.224	3165
923.333	3184
923.442	3104
923.55	3108
923.659	3154
923.767	3214
923.876	3116
923.984	3237
924.092	3089
924.201	3233
924.309	3226
924.417	3264
924.525	3199
924.633	3233
924.741	4166
924.849	3047
924.956	3283
925.064	3112
925.172	3017
925.279	3100
925.387	3180
925.494	3188
925.602	3332
925.709	3329
925.816	3169
925.924	3291
926.031	3405
926.138	3329
926.245	3378
926.352	3230
926.459	3370
926.566	3458
926.673	3351
926.779	3230
926.886	3184
926.993	3116
927.099	3131
927.206	3100
927.312	3100
927.419	3226
927.525	3211
927.631	3287
927.737	3157
927.843	3123
927.95	3043
928.056	3081
928.162	3154
928.267	3275
928.373	3850
928.479	3317
928.585	3066
928.69	3218
928.796	3249
928.901	3161
929.007	3047
929.112	3214
929.218	3173
929.323	3123
929.428	3138
929.533	3313
929.638	3123
929.743	3154
929.848	3249
929.953	3188
930.058	3138
930.163	3013
930.267	3039
930.372	3222
930.477	3051
930.581	3313
930.685	3169
930.79	3074
930.894	3119
930.998	3116
931.103	3291
931.207	2925
931.311	2944
931.415	2941
931.519	2781
931.623	2796
