Data from test_V78500241_1514.txt Node
Date: Fri Mar 25 16:25:41 CST 2022
User: usil
Spectrometer: V785-0024
Trigger mode: 0
Integration Time (sec): 4.000000E-1
Scans to average: 1
Nonlinearity correction enabled: false
Boxcar width: 0
Storing dark spectrum: false
XAxis mode: Wavelengths
Number of Pixels in Spectrum: 1024
>>>>>Begin Spectral Data<<<<<
801.071	2895
801.214	2922
801.356	2861
801.499	2876
801.641	2872
801.783	2918
801.926	3047
802.068	2952
802.211	2994
802.353	3013
802.496	2975
802.638	3013
802.78	3001
802.923	3074
803.065	2982
803.208	2891
803.35	2891
803.492	2941
803.635	2918
803.777	2739
803.919	2819
804.061	3161
804.204	2937
804.346	2864
804.488	2826
804.63	3005
804.773	2876
804.915	2880
805.057	3074
805.199	2899
805.341	2944
805.483	3017
805.626	2967
805.768	2941
805.91	3070
806.052	3108
806.194	3017
806.336	3218
806.478	3036
806.62	2956
806.762	2956
806.904	3058
807.046	3150
807.188	2963
807.33	2906
807.472	2979
807.614	2914
807.756	2994
807.898	2933
808.04	2891
808.182	3009
808.324	2918
808.465	2883
808.607	2861
808.749	2796
808.891	2819
809.033	2982
809.174	2971
809.316	2891
809.458	2880
809.6	2773
809.741	2769
809.883	2754
810.025	2849
810.166	2823
810.308	2842
810.45	2864
810.591	2762
810.733	2766
810.875	2815
811.016	2788
811.158	2762
811.299	2804
811.441	2906
811.582	2887
811.724	2842
811.865	2826
812.007	2906
812.148	2902
812.29	2823
812.431	2891
812.573	2914
812.714	2918
812.855	3001
812.997	3028
813.138	3112
813.279	3020
813.421	2986
813.562	2979
813.703	2880
813.845	2849
813.986	2743
814.127	2746
814.268	2796
814.41	2800
814.551	2758
814.692	2887
814.833	2815
814.974	2902
815.115	2929
815.256	2834
815.397	2788
815.539	2857
815.68	2769
815.821	2796
815.962	2960
816.103	2895
816.244	2918
816.385	2823
816.526	2937
816.666	2910
816.807	2716
816.948	2853
817.089	2902
817.23	2826
817.371	2758
817.512	2792
817.653	2819
817.793	2804
817.934	2872
818.075	2948
818.216	2994
818.356	3017
818.497	2861
818.638	2777
818.778	2807
818.919	2811
819.06	2773
819.2	2857
819.341	2785
819.481	2815
819.622	2914
819.762	3089
819.903	3024
820.043	2906
820.184	2887
820.324	2906
820.465	3024
820.605	2990
820.746	3028
820.886	2918
821.026	3089
821.167	3131
821.307	3268
821.447	3275
821.588	3218
821.728	3211
821.868	3169
822.008	3051
822.149	3176
822.289	3264
822.429	3089
822.569	3104
822.709	3184
822.849	3028
822.99	3066
823.13	3138
823.27	3184
823.41	3108
823.55	3108
823.69	3135
823.83	3195
823.97	3150
824.11	3028
824.25	2971
824.389	3058
824.529	3077
824.669	3062
824.809	3195
824.949	3218
825.089	3214
825.228	3150
825.368	3009
825.508	2941
825.648	2933
825.787	3020
825.927	2986
826.067	2971
826.206	2994
826.346	3051
826.485	3058
826.625	3108
826.765	3256
826.904	3203
827.044	3017
827.183	2960
827.323	2872
827.462	2990
827.601	2929
827.741	2941
827.88	2994
828.02	2823
828.159	2998
828.298	3043
828.437	3138
828.577	3036
828.716	3291
828.855	3085
828.994	2925
829.134	2902
829.273	2948
829.412	2887
829.551	2887
829.69	2944
829.829	3013
829.968	3157
830.107	3051
830.246	3062
830.385	2948
830.524	2876
830.663	2861
830.802	2777
830.941	2682
831.08	2682
831.219	2823
831.357	2819
831.496	2956
831.635	2769
831.774	2663
831.913	2663
832.051	2583
832.19	2613
832.329	2746
832.467	2522
832.606	2530
832.744	2617
832.883	2644
833.022	2598
833.16	2720
833.299	2743
833.437	2758
833.576	2731
833.714	2815
833.852	2788
833.991	2796
834.129	2868
834.267	2876
834.406	2845
834.544	2929
834.682	2910
834.821	2902
834.959	3097
835.097	2925
835.235	3093
835.373	3009
835.511	3055
835.65	2994
835.788	2990
835.926	2883
836.064	2861
836.202	2910
836.34	3135
836.478	3180
836.615	3093
836.753	3176
836.891	3256
837.029	3199
837.167	3138
837.305	3055
837.443	3074
837.58	3005
837.718	3127
837.856	3081
837.993	3074
838.131	3169
838.269	3131
838.406	3142
838.544	3100
838.681	2960
838.819	2906
838.956	2864
839.094	2861
839.231	2971
839.369	3097
839.506	3439
839.643	3237
839.781	3020
839.918	3005
840.055	3074
840.193	3066
840.33	3055
840.467	3142
840.604	3214
840.742	3443
840.879	3097
841.016	3077
841.153	3116
841.29	3351
841.427	3287
841.564	3294
841.701	3336
841.838	3306
841.975	3218
842.112	3260
842.249	3100
842.385	3081
842.522	3298
842.659	3142
842.796	3119
842.933	3119
843.069	3077
843.206	3070
843.343	3226
843.479	3123
843.616	3146
843.752	2937
843.889	2868
844.025	3112
844.162	2906
844.298	3127
844.435	2990
844.571	2963
844.708	3077
844.844	3241
844.98	3214
845.117	3230
845.253	3070
845.389	3066
845.525	3116
845.661	3169
845.798	3013
845.934	3135
846.07	3085
846.206	3249
846.342	3340
846.478	3241
846.614	3123
846.75	3104
846.886	3085
847.022	3253
847.158	3146
847.294	3226
847.429	3298
847.565	3214
847.701	3504
847.837	3085
847.972	3028
848.108	3211
848.244	3192
848.379	3005
848.515	3005
848.65	2956
848.786	2998
848.921	3062
849.057	3157
849.192	3192
849.328	3070
849.463	3150
849.598	3089
849.734	3093
849.869	2998
850.004	2948
850.14	2982
850.275	2971
850.41	2872
850.545	2902
850.68	2933
850.815	2971
850.95	3024
851.085	3207
851.22	3146
851.355	3062
851.49	2982
851.625	3039
851.76	3036
851.895	2967
852.03	2960
852.165	3077
852.299	3157
852.434	3214
852.569	3173
852.703	3218
852.838	3272
852.973	3378
853.107	3359
853.242	3199
853.376	3093
853.511	3017
853.645	3089
853.78	3287
853.914	3176
854.048	3081
854.183	3100
854.317	3176
854.451	3374
854.585	3161
854.72	3127
854.854	3184
854.988	3081
855.122	3100
855.256	3013
855.39	3176
855.524	3241
855.658	3207
855.792	3184
855.926	3218
856.06	3264
856.194	3283
856.327	3150
856.461	3108
856.595	3119
856.729	3123
856.862	3268
856.996	3161
857.13	3222
857.263	3249
857.397	3310
857.53	3188
857.664	3226
857.797	3272
857.931	3321
858.064	3161
858.197	3218
858.331	3165
858.464	3127
858.597	3055
858.731	3138
858.864	3161
858.997	3081
859.13	3192
859.263	3195
859.396	3237
859.529	3081
859.662	3135
859.795	3062
859.928	3165
860.061	3268
860.194	3272
860.327	3150
860.46	3127
860.592	3272
860.725	3294
860.858	3287
860.99	3138
861.123	3081
861.256	3081
861.388	3214
861.521	3941
861.653	3032
861.786	3020
861.918	3020
862.05	3077
862.183	3142
862.315	3161
862.447	3256
862.58	3138
862.712	2963
862.844	2891
862.976	3043
863.108	2990
863.24	3332
863.372	2929
863.504	3017
863.636	2994
863.768	3062
863.9	3036
864.032	2922
864.164	2979
864.296	3077
864.428	3142
864.559	3138
864.691	3062
864.823	3070
864.954	3005
865.086	3108
865.217	2998
865.349	2971
865.48	3017
865.612	3058
865.743	3161
865.875	3043
866.006	2944
866.137	2990
866.269	2941
866.4	2944
866.531	2937
866.662	2902
866.793	2922
866.924	2952
867.055	2960
867.186	2952
867.317	2922
867.448	2895
867.579	2857
867.71	2845
867.841	2815
867.972	2952
868.103	2887
868.233	2838
868.364	2883
868.495	2880
868.625	3112
868.756	3188
868.886	3001
869.017	3032
869.147	3199
869.278	3173
869.408	3116
869.539	3036
869.669	3131
869.799	3043
869.929	3127
870.06	3100
870.19	3344
870.32	3294
870.45	3291
870.58	3405
870.71	3435
870.84	3469
870.97	3317
871.1	3298
871.23	3515
871.36	3458
871.489	3416
871.619	3405
871.749	3435
871.879	3443
872.008	3496
872.138	3389
872.267	3283
872.397	3135
872.526	3104
872.656	3020
872.785	3138
872.915	3241
873.044	3359
873.173	3264
873.303	3256
873.432	3260
873.561	3256
873.69	3169
873.819	3154
873.948	3226
874.077	3116
874.206	3055
874.335	3070
874.464	3256
874.593	3355
874.722	3287
874.851	3428
874.979	3389
875.108	3355
875.237	3188
875.365	3169
875.494	3199
875.623	3287
875.751	3104
875.88	3135
876.008	3245
876.136	3264
876.265	3401
876.393	3519
876.521	3439
876.65	3416
876.778	3310
876.906	3233
877.034	3199
877.162	3272
877.29	3161
877.418	3275
877.546	3294
877.674	3241
877.802	3268
877.93	3241
878.058	3135
878.185	3116
878.313	3218
878.441	3203
878.568	3085
878.696	3173
878.824	3237
878.951	3351
879.079	3447
879.206	3663
879.333	3473
879.461	3348
879.588	3382
879.715	3500
879.842	3580
879.97	3416
880.097	3135
880.224	3142
880.351	3218
880.478	3214
880.605	3195
880.732	3226
880.859	3504
880.986	3340
881.112	3359
881.239	3233
881.366	3112
881.493	3039
881.619	3047
881.746	3085
881.872	3123
881.999	3093
882.125	3150
882.252	3226
882.378	3287
882.505	3443
882.631	3313
882.757	3165
882.883	3233
883.01	3237
883.136	3169
883.262	3119
883.388	3123
883.514	3340
883.64	3397
883.766	3336
883.892	3199
884.018	3275
884.143	3439
884.269	3557
884.395	3230
884.52	3169
884.646	3184
884.772	3127
884.897	3108
885.023	3233
885.148	3329
885.274	3496
885.399	3416
885.524	3313
885.65	3249
885.775	3291
885.9	3291
886.025	3416
886.15	3351
886.275	3302
886.4	3275
886.525	3332
886.65	3294
886.775	3283
886.9	3477
887.025	3610
887.149	3428
887.274	3272
887.399	3207
887.523	3241
887.648	3203
887.773	3245
887.897	3401
888.021	3397
888.146	3329
888.27	3481
888.395	3519
888.519	3473
888.643	3447
888.767	3500
888.891	3355
889.015	3279
889.139	3298
889.263	3207
889.387	3409
889.511	3526
889.635	3473
889.759	3306
889.883	3306
890.006	3420
890.13	3481
890.254	3294
890.377	3344
890.501	3203
890.624	3195
890.748	3321
890.871	3203
890.995	3112
891.118	3085
891.241	3211
891.364	3230
891.488	3325
891.611	3184
891.734	3207
891.857	3317
891.98	3222
892.103	3374
892.226	3275
892.349	3199
892.471	3146
892.594	3264
892.717	3291
892.839	3287
892.962	3329
893.085	3363
893.207	3321
893.33	3161
893.452	3222
893.575	3306
893.697	3272
893.819	3496
893.941	3515
894.064	3443
894.186	3264
894.308	3249
894.43	3389
894.552	3523
894.674	3526
894.796	3249
894.918	3291
895.04	3298
895.161	3424
895.283	3370
895.405	3355
895.526	3412
895.648	3466
895.769	3447
895.891	3488
896.012	3496
896.134	3469
896.255	3420
896.376	3447
896.498	3447
896.619	3443
896.74	3355
896.861	3416
896.982	3740
897.103	3854
897.224	3603
897.345	3538
897.466	3450
897.587	3492
897.708	3606
897.828	3564
897.949	3447
898.07	3367
898.19	3420
898.311	3591
898.431	3473
898.552	3485
898.672	3633
898.792	3576
898.913	3534
899.033	3431
899.153	3287
899.273	3226
899.393	3329
899.513	3336
899.633	3332
899.753	3367
899.873	3329
899.993	3382
900.113	3351
900.232	3424
900.352	3382
900.472	3272
900.591	3218
900.711	3294
900.83	3260
900.95	3412
901.069	3523
901.189	3355
901.308	3226
901.427	3142
901.546	3222
901.665	3306
901.784	3340
901.904	3230
902.023	3192
902.141	3017
902.26	3017
902.379	3135
902.498	3077
902.617	3043
902.735	3226
902.854	3245
902.973	3188
903.091	3097
903.21	3074
903.328	3119
903.446	3142
903.565	3093
903.683	3203
903.801	3119
903.919	3237
904.038	3298
904.156	3218
904.274	3348
904.392	3291
904.51	3302
904.627	3367
904.745	3462
904.863	3504
904.981	3264
905.098	3195
905.216	3256
905.334	3332
905.451	3332
905.569	3313
905.686	3416
905.803	3424
905.921	3310
906.038	3481
906.155	3344
906.272	3245
906.389	3355
906.506	3256
906.623	3256
906.74	3268
906.857	3176
906.974	3294
907.091	3450
907.208	3576
907.324	3473
907.441	3409
907.557	3279
907.674	3245
907.79	3253
907.907	3302
908.023	3363
908.139	3378
908.256	3332
908.372	3363
908.488	3336
908.604	3249
908.72	3241
908.836	3287
908.952	3306
909.068	3344
909.184	3450
909.3	3428
909.415	3523
909.531	3458
909.647	3268
909.762	3321
909.878	3264
909.993	3386
910.108	3325
910.224	3351
910.339	3397
910.454	3329
910.57	3272
910.685	3226
910.8	3614
910.915	3530
911.03	3405
911.145	3275
911.259	3268
911.374	3325
911.489	3256
911.604	3214
911.718	3123
911.833	3138
911.947	3081
912.062	2963
912.176	3176
912.291	3249
912.405	3230
912.519	3466
912.633	3507
912.748	3374
912.862	3310
912.976	3173
913.09	3074
913.204	3138
913.318	3184
913.431	3359
913.545	3321
913.659	3405
913.772	3359
913.886	3245
914	3165
914.113	3367
914.226	3409
914.34	3344
914.453	3245
914.566	3431
914.68	3302
914.793	3329
914.906	3142
915.019	3142
915.132	3074
915.245	3138
915.358	3199
915.47	3256
915.583	3287
915.696	3348
915.809	3443
915.921	3431
916.034	3279
916.146	3245
916.259	3230
916.371	3370
916.483	3386
916.595	3275
916.708	3317
916.82	3332
916.932	3355
917.044	3332
917.156	3321
917.268	3272
917.38	3298
917.491	3306
917.603	3355
917.715	3439
917.826	3481
917.938	3386
918.049	3249
918.161	3435
918.272	3538
918.384	3580
918.495	3500
918.606	3336
918.717	3302
918.828	3344
918.939	3420
919.05	3306
919.161	3355
919.272	3135
919.383	3287
919.494	3515
919.604	3713
919.715	3481
919.826	3412
919.936	3473
920.047	3584
920.157	3587
920.267	3781
920.378	3610
920.488	3603
920.598	3770
920.708	3983
920.818	3800
920.928	3823
921.038	4013
921.148	3979
921.258	3724
921.368	3656
921.477	3584
921.587	3576
921.697	3450
921.806	3618
921.916	3511
922.025	3348
922.134	3378
922.244	3336
922.353	3454
922.462	3256
922.571	3230
922.68	3127
922.789	3089
922.898	3142
923.007	3116
923.116	3207
923.224	3203
923.333	3207
923.442	3081
923.55	3100
923.659	3150
923.767	3233
923.876	3112
923.984	3245
924.092	3097
924.201	3192
924.309	3218
924.417	3279
924.525	3199
924.633	3233
924.741	4158
924.849	3032
924.956	3283
925.064	3097
925.172	3062
925.279	3135
925.387	3173
925.494	3211
925.602	3367
925.709	3363
925.816	3176
925.924	3294
926.031	3359
926.138	3367
926.245	3329
926.352	3268
926.459	3409
926.566	3504
926.673	3291
926.779	3214
926.886	3272
926.993	3176
927.099	3127
927.206	3089
927.312	3085
927.419	3226
927.525	3230
927.631	3291
927.737	3157
927.843	3093
927.95	3036
928.056	3146
928.162	3211
928.267	3256
928.373	3823
928.479	3291
928.585	3058
928.69	3199
928.796	3272
928.901	3169
929.007	3077
929.112	3169
929.218	3203
929.323	3154
929.428	3131
929.533	3287
929.638	3165
929.743	3146
929.848	3237
929.953	3184
930.058	3131
930.163	3017
930.267	3039
930.372	3241
930.477	3032
930.581	3283
930.685	3188
930.79	3058
930.894	3154
930.998	3081
931.103	3306
931.207	2960
931.311	2948
931.415	2895
931.519	2750
931.623	2804
