Data from test_V78500241_351.txt Node
Date: Fri Mar 25 16:17:38 CST 2022
User: usil
Spectrometer: V785-0024
Trigger mode: 0
Integration Time (sec): 4.000000E-1
Scans to average: 1
Nonlinearity correction enabled: false
Boxcar width: 0
Storing dark spectrum: false
XAxis mode: Wavelengths
Number of Pixels in Spectrum: 1024
>>>>>Begin Spectral Data<<<<<
801.071	2925
801.214	2990
801.356	2861
801.499	2902
801.641	2918
801.783	2918
801.926	3039
802.068	2994
802.211	3028
802.353	3051
802.496	2979
802.638	2998
802.78	3047
802.923	3066
803.065	2990
803.208	2910
803.35	2941
803.492	2922
803.635	2910
803.777	2746
803.919	2834
804.061	3165
804.204	2922
804.346	2937
804.488	2845
804.63	3032
804.773	2902
804.915	2925
805.057	3112
805.199	2944
805.341	2979
805.483	3047
805.626	2994
805.768	2944
805.91	3100
806.052	3157
806.194	3058
806.336	3253
806.478	3009
806.62	2960
806.762	2975
806.904	3051
807.046	3138
807.188	2963
807.33	2933
807.472	2944
807.614	2922
807.756	3043
807.898	2922
808.04	2864
808.182	2994
808.324	2937
808.465	2876
808.607	2914
808.749	2800
808.891	2834
809.033	2986
809.174	2963
809.316	2872
809.458	2880
809.6	2788
809.741	2762
809.883	2773
810.025	2834
810.166	2887
810.308	2849
810.45	2864
810.591	2773
810.733	2788
810.875	2811
811.016	2769
811.158	2720
811.299	2807
811.441	2937
811.582	2876
811.724	2796
811.865	2834
812.007	2922
812.148	2864
812.29	2861
812.431	2925
812.573	2929
812.714	2956
812.855	3043
812.997	3066
813.138	3112
813.279	3024
813.421	2956
813.562	2918
813.703	2845
813.845	2891
813.986	2769
814.127	2727
814.268	2811
814.41	2826
814.551	2796
814.692	2872
814.833	2819
814.974	2918
815.115	2948
815.256	2815
815.397	2811
815.539	2872
815.68	2785
815.821	2777
815.962	2937
816.103	2922
816.244	2914
816.385	2842
816.526	2967
816.666	2922
816.807	2708
816.948	2880
817.089	2902
817.23	2834
817.371	2766
817.512	2796
817.653	2868
817.793	2849
817.934	2845
818.075	2933
818.216	2998
818.356	2998
818.497	2899
818.638	2773
818.778	2792
818.919	2804
819.06	2777
819.2	2845
819.341	2769
819.481	2819
819.622	2944
819.762	3112
819.903	3017
820.043	2906
820.184	2922
820.324	2910
820.465	2994
820.605	3017
820.746	3032
820.886	2929
821.026	3100
821.167	3169
821.307	3260
821.447	3310
821.588	3260
821.728	3192
821.868	3256
822.008	3104
822.149	3211
822.289	3249
822.429	3112
822.569	3100
822.709	3192
822.849	3066
822.99	3085
823.13	3188
823.27	3230
823.41	3150
823.55	3230
823.69	3199
823.83	3233
823.97	3116
824.11	3062
824.25	3028
824.389	3108
824.529	3176
824.669	3097
824.809	3222
824.949	3279
825.089	3249
825.228	3214
825.368	3081
825.508	3024
825.648	3001
825.787	3081
825.927	3062
826.067	3013
826.206	2994
826.346	3047
826.485	3108
826.625	3180
826.765	3253
826.904	3230
827.044	3051
827.183	3001
827.323	2899
827.462	3036
827.601	2956
827.741	2971
827.88	2990
828.02	2902
828.159	3024
828.298	3036
828.437	3176
828.577	3100
828.716	3291
828.855	3123
828.994	2975
829.134	2891
829.273	2948
829.412	2891
829.551	2910
829.69	2933
829.829	3032
829.968	3176
830.107	3066
830.246	3066
830.385	2952
830.524	2952
830.663	2845
830.802	2762
830.941	2697
831.08	2670
831.219	2838
831.357	2826
831.496	2952
831.635	2788
831.774	2674
831.913	2693
832.051	2602
832.19	2613
832.329	2716
832.467	2617
832.606	2552
832.744	2621
832.883	2598
833.022	2617
833.16	2705
833.299	2674
833.437	2724
833.576	2731
833.714	2781
833.852	2746
833.991	2777
834.129	2883
834.267	2880
834.406	2800
834.544	2937
834.682	2891
834.821	2925
834.959	3100
835.097	2937
835.235	3150
835.373	3043
835.511	3024
835.65	2994
835.788	2982
835.926	2845
836.064	2845
836.202	2857
836.34	3116
836.478	3173
836.615	3066
836.753	3203
836.891	3230
837.029	3165
837.167	3161
837.305	3081
837.443	3074
837.58	2986
837.718	3199
837.856	3089
837.993	3085
838.131	3142
838.269	3119
838.406	3146
838.544	3127
838.681	2967
838.819	2937
838.956	2857
839.094	2864
839.231	2941
839.369	3047
839.506	3401
839.643	3233
839.781	3020
839.918	3001
840.055	3104
840.193	3058
840.33	3123
840.467	3169
840.604	3184
840.742	3450
840.879	3097
841.016	3104
841.153	3161
841.29	3367
841.427	3344
841.564	3283
841.701	3306
841.838	3245
841.975	3241
842.112	3241
842.249	3154
842.385	3055
842.522	3268
842.659	3119
842.796	3108
842.933	3165
843.069	3062
843.206	3104
843.343	3195
843.479	3131
843.616	3173
843.752	2944
843.889	2918
844.025	3123
844.162	2906
844.298	3089
844.435	2998
844.571	2967
844.708	3085
844.844	3211
844.98	3302
845.117	3214
845.253	3097
845.389	3039
845.525	3123
845.661	3138
845.798	3020
845.934	3150
846.07	3089
846.206	3287
846.342	3332
846.478	3279
846.614	3116
846.75	3058
846.886	3055
847.022	3218
847.158	3169
847.294	3218
847.429	3268
847.565	3218
847.701	3458
847.837	3051
847.972	3028
848.108	3180
848.244	3100
848.379	3043
848.515	2944
848.65	2971
848.786	3013
848.921	3039
849.057	3150
849.192	3165
849.328	3081
849.463	3150
849.598	3097
849.734	3055
849.869	2986
850.004	2944
850.14	2979
850.275	2956
850.41	2861
850.545	2899
850.68	3005
850.815	2986
850.95	3001
851.085	3226
851.22	3108
851.355	3070
851.49	3013
851.625	3020
851.76	3039
851.895	2956
852.03	2933
852.165	3077
852.299	3138
852.434	3192
852.569	3157
852.703	3203
852.838	3268
852.973	3370
853.107	3340
853.242	3176
853.376	3116
853.511	3032
853.645	3066
853.78	3283
853.914	3142
854.048	3116
854.183	3154
854.317	3184
854.451	3310
854.585	3135
854.72	3104
854.854	3214
854.988	3039
855.122	3074
855.256	3009
855.39	3119
855.524	3272
855.658	3173
855.792	3192
855.926	3211
856.06	3279
856.194	3283
856.327	3214
856.461	3066
856.595	3089
856.729	3142
856.862	3264
856.996	3180
857.13	3230
857.263	3253
857.397	3294
857.53	3142
857.664	3184
857.797	3253
857.931	3310
858.064	3154
858.197	3249
858.331	3176
858.464	3097
858.597	2998
858.731	3135
858.864	3146
858.997	3127
859.13	3207
859.263	3214
859.396	3245
859.529	3135
859.662	3116
859.795	3077
859.928	3138
860.061	3275
860.194	3340
860.327	3146
860.46	3138
860.592	3253
860.725	3268
860.858	3249
860.99	3100
861.123	3051
861.256	3104
861.388	3161
861.521	3770
861.653	3036
861.786	3009
861.918	3024
862.05	3070
862.183	3119
862.315	3165
862.447	3260
862.58	3097
862.712	2994
862.844	2895
862.976	3070
863.108	3001
863.24	3454
863.372	2925
863.504	2990
863.636	2979
863.768	3058
863.9	2963
864.032	2929
864.164	2971
864.296	3032
864.428	3051
864.559	3150
864.691	3100
864.823	3077
864.954	3062
865.086	3055
865.217	3005
865.349	3009
865.48	3005
865.612	3013
865.743	3165
865.875	2990
866.006	2986
866.137	3001
866.269	2956
866.4	2960
866.531	2975
866.662	2941
866.793	2925
866.924	2902
867.055	3005
867.186	2944
867.317	2899
867.448	2864
867.579	2849
867.71	2853
867.841	2857
867.972	2899
868.103	2925
868.233	2883
868.364	2880
868.495	2891
868.625	3077
868.756	3192
868.886	2952
869.017	3043
869.147	3195
869.278	3142
869.408	3074
869.539	3047
869.669	3135
869.799	3055
869.929	3169
870.06	3100
870.19	3332
870.32	3302
870.45	3306
870.58	3393
870.71	3435
870.84	3428
870.97	3298
871.1	3237
871.23	3488
871.36	3462
871.489	3340
871.619	3416
871.749	3393
871.879	3431
872.008	3496
872.138	3359
872.267	3329
872.397	3157
872.526	3131
872.656	3036
872.785	3173
872.915	3237
873.044	3317
873.173	3230
873.303	3237
873.432	3283
873.561	3237
873.69	3188
873.819	3169
873.948	3195
874.077	3116
874.206	3085
874.335	3097
874.464	3226
874.593	3363
874.722	3264
874.851	3382
874.979	3340
875.108	3340
875.237	3192
875.365	3211
875.494	3203
875.623	3287
875.751	3055
875.88	3135
876.008	3192
876.136	3241
876.265	3409
876.393	3534
876.521	3428
876.65	3431
876.778	3348
876.906	3275
877.034	3214
877.162	3260
877.29	3180
877.418	3260
877.546	3245
877.674	3283
877.802	3195
877.93	3218
878.058	3192
878.185	3135
878.313	3249
878.441	3253
878.568	3077
878.696	3146
878.824	3275
878.951	3317
879.079	3458
879.206	3622
879.333	3458
879.461	3313
879.588	3367
879.715	3458
879.842	3622
879.97	3409
880.097	3173
880.224	3146
880.351	3226
880.478	3241
880.605	3211
880.732	3222
880.859	3485
880.986	3313
881.112	3298
881.239	3241
881.366	3093
881.493	3058
881.619	2994
881.746	3062
881.872	3100
881.999	3131
882.125	3150
882.252	3237
882.378	3283
882.505	3435
882.631	3275
882.757	3180
882.883	3222
883.01	3218
883.136	3150
883.262	3108
883.388	3150
883.514	3287
883.64	3401
883.766	3344
883.892	3211
884.018	3260
884.143	3405
884.269	3545
884.395	3203
884.52	3192
884.646	3192
884.772	3146
884.897	3112
885.023	3222
885.148	3374
885.274	3428
885.399	3416
885.524	3275
885.65	3241
885.775	3332
885.9	3283
886.025	3409
886.15	3424
886.275	3306
886.4	3241
886.525	3302
886.65	3294
886.775	3249
886.9	3496
887.025	3614
887.149	3435
887.274	3245
887.399	3207
887.523	3203
887.648	3214
887.773	3218
887.897	3439
888.021	3405
888.146	3321
888.27	3439
888.395	3538
888.519	3435
888.643	3428
888.767	3473
888.891	3336
889.015	3260
889.139	3317
889.263	3256
889.387	3428
889.511	3526
889.635	3462
889.759	3321
889.883	3329
890.006	3386
890.13	3496
890.254	3253
890.377	3351
890.501	3245
890.624	3188
890.748	3325
890.871	3199
890.995	3142
891.118	3062
891.241	3192
891.364	3207
891.488	3310
891.611	3211
891.734	3253
891.857	3306
891.98	3230
892.103	3359
892.226	3310
892.349	3214
892.471	3100
892.594	3291
892.717	3275
892.839	3302
892.962	3325
893.085	3348
893.207	3306
893.33	3176
893.452	3226
893.575	3329
893.697	3253
893.819	3526
893.941	3515
894.064	3428
894.186	3256
894.308	3264
894.43	3450
894.552	3538
894.674	3488
894.796	3237
894.918	3329
895.04	3302
895.161	3462
895.283	3382
895.405	3291
895.526	3367
895.648	3439
895.769	3439
895.891	3462
896.012	3473
896.134	3500
896.255	3409
896.376	3397
896.498	3382
896.619	3462
896.74	3374
896.861	3428
896.982	3705
897.103	3857
897.224	3591
897.345	3500
897.466	3481
897.587	3492
897.708	3667
897.828	3561
897.949	3424
898.07	3310
898.19	3420
898.311	3572
898.431	3447
898.552	3523
898.672	3606
898.792	3572
898.913	3511
899.033	3393
899.153	3306
899.273	3245
899.393	3306
899.513	3348
899.633	3321
899.753	3329
899.873	3332
899.993	3370
900.113	3321
900.232	3397
900.352	3370
900.472	3321
900.591	3188
900.711	3332
900.83	3241
900.95	3405
901.069	3519
901.189	3378
901.308	3165
901.427	3188
901.546	3199
901.665	3294
901.784	3321
901.904	3237
902.023	3142
902.141	3032
902.26	2986
902.379	3146
902.498	3085
902.617	3039
902.735	3203
902.854	3249
902.973	3180
903.091	3058
903.21	3077
903.328	3123
903.446	3112
903.565	3104
903.683	3222
903.801	3112
903.919	3283
904.038	3287
904.156	3173
904.274	3264
904.392	3272
904.51	3268
904.627	3359
904.745	3431
904.863	3515
904.981	3313
905.098	3123
905.216	3211
905.334	3317
905.451	3283
905.569	3329
905.686	3439
905.803	3405
905.921	3294
906.038	3473
906.155	3336
906.272	3291
906.389	3386
906.506	3226
906.623	3253
906.74	3306
906.857	3199
906.974	3268
907.091	3477
907.208	3542
907.324	3507
907.441	3401
907.557	3211
907.674	3230
907.79	3211
907.907	3268
908.023	3405
908.139	3370
908.256	3321
908.372	3420
908.488	3351
908.604	3279
908.72	3214
908.836	3294
908.952	3260
909.068	3351
909.184	3477
909.3	3397
909.415	3511
909.531	3488
909.647	3298
909.762	3325
909.878	3241
909.993	3340
910.108	3344
910.224	3363
910.339	3401
910.454	3344
910.57	3298
910.685	3214
910.8	3644
910.915	3530
911.03	3458
911.145	3241
911.259	3275
911.374	3302
911.489	3214
911.604	3245
911.718	3135
911.833	3157
911.947	3043
912.062	3036
912.176	3180
912.291	3195
912.405	3226
912.519	3424
912.633	3485
912.748	3367
912.862	3302
912.976	3165
913.09	3081
913.204	3135
913.318	3253
913.431	3370
913.545	3313
913.659	3416
913.772	3325
913.886	3222
914	3245
914.113	3329
914.226	3431
914.34	3332
914.453	3199
914.566	3439
914.68	3294
914.793	3329
914.906	3180
915.019	3108
915.132	3100
915.245	3142
915.358	3184
915.47	3226
915.583	3287
915.696	3313
915.809	3412
915.921	3443
916.034	3241
916.146	3264
916.259	3245
916.371	3378
916.483	3355
916.595	3275
916.708	3332
916.82	3329
916.932	3363
917.044	3329
917.156	3355
917.268	3279
917.38	3317
917.491	3287
917.603	3351
917.715	3416
917.826	3504
917.938	3401
918.049	3256
918.161	3409
918.272	3553
918.384	3576
918.495	3488
918.606	3355
918.717	3279
918.828	3412
918.939	3401
919.05	3283
919.161	3397
919.272	3138
919.383	3279
919.494	3511
919.604	3682
919.715	3488
919.826	3389
919.936	3431
920.047	3591
920.157	3572
920.267	3762
920.378	3625
920.488	3599
920.598	3789
920.708	3991
920.818	3835
920.928	3842
921.038	4017
921.148	4010
921.258	3686
921.368	3622
921.477	3526
921.587	3534
921.697	3447
921.806	3633
921.916	3469
922.025	3332
922.134	3355
922.244	3310
922.353	3431
922.462	3245
922.571	3207
922.68	3100
922.789	3116
922.898	3131
923.007	3100
923.116	3226
923.224	3203
923.333	3203
923.442	3108
923.55	3077
923.659	3173
923.767	3218
923.876	3070
923.984	3211
924.092	3127
924.201	3207
924.309	3260
924.417	3253
924.525	3180
924.633	3214
924.741	4143
924.849	3028
924.956	3283
925.064	3112
925.172	3017
925.279	3097
925.387	3237
925.494	3146
925.602	3332
925.709	3336
925.816	3211
925.924	3264
926.031	3401
926.138	3298
926.245	3340
926.352	3237
926.459	3412
926.566	3477
926.673	3363
926.779	3272
926.886	3260
926.993	3157
927.099	3104
927.206	3100
927.312	3108
927.419	3222
927.525	3188
927.631	3294
927.737	3188
927.843	3119
927.95	3009
928.056	3108
928.162	3203
928.267	3264
928.373	3827
928.479	3291
928.585	3055
928.69	3199
928.796	3291
928.901	3199
929.007	3039
929.112	3211
929.218	3192
929.323	3135
929.428	3138
929.533	3313
929.638	3112
929.743	3142
929.848	3222
929.953	3203
930.058	3161
930.163	2986
930.267	3024
930.372	3195
930.477	3051
930.581	3321
930.685	3161
930.79	3062
930.894	3085
930.998	3093
931.103	3302
931.207	2944
931.311	2948
931.415	2960
931.519	2758
931.623	2800
