Data from test_V78500241_1889.txt Node
Date: Fri Mar 25 16:28:17 CST 2022
User: usil
Spectrometer: V785-0024
Trigger mode: 0
Integration Time (sec): 4.000000E-1
Scans to average: 1
Nonlinearity correction enabled: false
Boxcar width: 0
Storing dark spectrum: false
XAxis mode: Wavelengths
Number of Pixels in Spectrum: 1024
>>>>>Begin Spectral Data<<<<<
801.071	2922
801.214	2967
801.356	2906
801.499	2868
801.641	2872
801.783	2929
801.926	3036
802.068	2960
802.211	2967
802.353	3039
802.496	3005
802.638	3009
802.78	3077
802.923	3085
803.065	2990
803.208	2929
803.35	2925
803.492	2937
803.635	2948
803.777	2762
803.919	2891
804.061	3222
804.204	2941
804.346	2937
804.488	2838
804.63	2975
804.773	2899
804.915	2925
805.057	3116
805.199	2910
805.341	2990
805.483	3032
805.626	3009
805.768	2960
805.91	3089
806.052	3100
806.194	3039
806.336	3230
806.478	3013
806.62	2944
806.762	2956
806.904	3089
807.046	3180
807.188	2971
807.33	2929
807.472	3024
807.614	2914
807.756	3009
807.898	2941
808.04	2929
808.182	2963
808.324	2952
808.465	2906
808.607	2864
808.749	2796
808.891	2830
809.033	2994
809.174	3001
809.316	2902
809.458	2868
809.6	2815
809.741	2781
809.883	2762
810.025	2857
810.166	2876
810.308	2857
810.45	2845
810.591	2781
810.733	2785
810.875	2834
811.016	2811
811.158	2777
811.299	2834
811.441	2925
811.582	2883
811.724	2842
811.865	2861
812.007	2899
812.148	2864
812.29	2864
812.431	2880
812.573	2925
812.714	2979
812.855	3009
812.997	3047
813.138	3154
813.279	3017
813.421	2990
813.562	2994
813.703	2887
813.845	2929
813.986	2735
814.127	2735
814.268	2834
814.41	2826
814.551	2842
814.692	2864
814.833	2800
814.974	2872
815.115	2956
815.256	2823
815.397	2834
815.539	2880
815.68	2788
815.821	2785
815.962	2956
816.103	2948
816.244	2861
816.385	2883
816.526	2979
816.666	2933
816.807	2766
816.948	2895
817.089	2925
817.23	2872
817.371	2777
817.512	2766
817.653	2838
817.793	2857
817.934	2891
818.075	2960
818.216	3024
818.356	3024
818.497	2910
818.638	2788
818.778	2842
818.919	2804
819.06	2773
819.2	2880
819.341	2807
819.481	2762
819.622	2918
819.762	3062
819.903	3039
820.043	2929
820.184	2941
820.324	2922
820.465	2998
820.605	3032
820.746	3005
820.886	2933
821.026	3081
821.167	3157
821.307	3275
821.447	3287
821.588	3203
821.728	3184
821.868	3199
822.008	3119
822.149	3176
822.289	3245
822.429	3097
822.569	3062
822.709	3192
822.849	3047
822.99	3097
823.13	3127
823.27	3192
823.41	3089
823.55	3116
823.69	3154
823.83	3207
823.97	3097
824.11	3001
824.25	3009
824.389	3051
824.529	3085
824.669	3074
824.809	3218
824.949	3233
825.089	3226
825.228	3157
825.368	3013
825.508	2937
825.648	2948
825.787	3001
825.927	2998
826.067	2952
826.206	2979
826.346	3043
826.485	3066
826.625	3081
826.765	3275
826.904	3180
827.044	2994
827.183	2937
827.323	2872
827.462	3001
827.601	2925
827.741	2929
827.88	2975
828.02	2788
828.159	2975
828.298	3077
828.437	3123
828.577	3055
828.716	3222
828.855	3051
828.994	2914
829.134	2887
829.273	2880
829.412	2883
829.551	2864
829.69	2883
829.829	2967
829.968	3100
830.107	2975
830.246	2994
830.385	2910
830.524	2887
830.663	2800
830.802	2708
830.941	2674
831.08	2644
831.219	2754
831.357	2792
831.496	2929
831.635	2724
831.774	2670
831.913	2651
832.051	2549
832.19	2560
832.329	2674
832.467	2518
832.606	2492
832.744	2602
832.883	2613
833.022	2571
833.16	2632
833.299	2693
833.437	2705
833.576	2686
833.714	2705
833.852	2705
833.991	2754
834.129	2872
834.267	2838
834.406	2762
834.544	2845
834.682	2845
834.821	2895
834.959	3043
835.097	2883
835.235	3055
835.373	2994
835.511	3047
835.65	2941
835.788	2944
835.926	2826
836.064	2766
836.202	2853
836.34	3020
836.478	3165
836.615	3051
836.753	3138
836.891	3195
837.029	3195
837.167	3108
837.305	3066
837.443	3028
837.58	2990
837.718	3119
837.856	3058
837.993	3005
838.131	3089
838.269	3108
838.406	3119
838.544	3093
838.681	2933
838.819	2906
838.956	2819
839.094	2807
839.231	2918
839.369	3001
839.506	3389
839.643	3203
839.781	3005
839.918	3020
840.055	3028
840.193	3077
840.33	3100
840.467	3112
840.604	3119
840.742	3382
840.879	3017
841.016	3066
841.153	3127
841.29	3317
841.427	3237
841.564	3241
841.701	3313
841.838	3222
841.975	3157
842.112	3192
842.249	3055
842.385	3013
842.522	3253
842.659	3077
842.796	3028
842.933	3070
843.069	3058
843.206	3066
843.343	3131
843.479	3112
843.616	3100
843.752	2899
843.889	2864
844.025	3081
844.162	2857
844.298	3055
844.435	2914
844.571	2933
844.708	3047
844.844	3199
844.98	3241
845.117	3161
845.253	3036
845.389	2994
845.525	3085
845.661	3142
845.798	3009
845.934	3116
846.07	3051
846.206	3214
846.342	3317
846.478	3218
846.614	3077
846.75	3032
846.886	3032
847.022	3283
847.158	3131
847.294	3192
847.429	3192
847.565	3195
847.701	3466
847.837	3032
847.972	3005
848.108	3150
848.244	3150
848.379	2967
848.515	2925
848.65	2918
848.786	2933
848.921	2982
849.057	3104
849.192	3119
849.328	3070
849.463	3077
849.598	3081
849.734	3028
849.869	2967
850.004	2914
850.14	2952
850.275	2937
850.41	2842
850.545	2906
850.68	2899
850.815	2960
850.95	2998
851.085	3180
851.22	3116
851.355	3001
851.49	2967
851.625	3039
851.76	2990
851.895	2952
852.03	2906
852.165	3032
852.299	3116
852.434	3226
852.569	3169
852.703	3176
852.838	3272
852.973	3363
853.107	3294
853.242	3150
853.376	3085
853.511	2975
853.645	3032
853.78	3222
853.914	3112
854.048	3089
854.183	3081
854.317	3188
854.451	3249
854.585	3104
854.72	3062
854.854	3199
854.988	3074
855.122	3051
855.256	2933
855.39	3123
855.524	3237
855.658	3169
855.792	3142
855.926	3233
856.06	3199
856.194	3249
856.327	3161
856.461	3062
856.595	3104
856.729	3070
856.862	3218
856.996	3165
857.13	3176
857.263	3195
857.397	3249
857.53	3123
857.664	3154
857.797	3214
857.931	3260
858.064	3146
858.197	3245
858.331	3135
858.464	3146
858.597	3013
858.731	3066
858.864	3127
858.997	3051
859.13	3165
859.263	3192
859.396	3188
859.529	3104
859.662	3055
859.795	3028
859.928	3161
860.061	3275
860.194	3279
860.327	3131
860.46	3089
860.592	3214
860.725	3268
860.858	3313
860.99	3085
861.123	3024
861.256	3047
861.388	3131
861.521	3812
861.653	3036
861.786	2982
861.918	2990
862.05	3039
862.183	3100
862.315	3150
862.447	3184
862.58	3081
862.712	2948
862.844	2895
862.976	3024
863.108	2971
863.24	3317
863.372	2899
863.504	2963
863.636	2944
863.768	3032
863.9	2990
864.032	2914
864.164	2925
864.296	3039
864.428	3100
864.559	3070
864.691	3036
864.823	3070
864.954	3070
865.086	3005
865.217	2967
865.349	2967
865.48	2952
865.612	2986
865.743	3146
865.875	2990
866.006	2941
866.137	2979
866.269	2891
866.4	2937
866.531	2914
866.662	2895
866.793	2868
866.924	2918
867.055	2952
867.186	2925
867.317	2891
867.448	2834
867.579	2868
867.71	2849
867.841	2807
867.972	2872
868.103	2902
868.233	2857
868.364	2861
868.495	2906
868.625	3062
868.756	3173
868.886	2982
869.017	2990
869.147	3138
869.278	3146
869.408	3043
869.539	3024
869.669	3123
869.799	3043
869.929	3135
870.06	3119
870.19	3310
870.32	3226
870.45	3291
870.58	3378
870.71	3416
870.84	3435
870.97	3287
871.1	3230
871.23	3492
871.36	3439
871.489	3329
871.619	3401
871.749	3382
871.879	3405
872.008	3492
872.138	3409
872.267	3291
872.397	3150
872.526	3085
872.656	2990
872.785	3123
872.915	3218
873.044	3332
873.173	3222
873.303	3249
873.432	3249
873.561	3211
873.69	3150
873.819	3135
873.948	3192
874.077	3097
874.206	3043
874.335	3093
874.464	3169
874.593	3363
874.722	3241
874.851	3363
874.979	3332
875.108	3291
875.237	3192
875.365	3146
875.494	3127
875.623	3233
875.751	3062
875.88	3028
876.008	3176
876.136	3222
876.265	3348
876.393	3500
876.521	3424
876.65	3393
876.778	3382
876.906	3218
877.034	3226
877.162	3260
877.29	3176
877.418	3222
877.546	3214
877.674	3264
877.802	3222
877.93	3180
878.058	3154
878.185	3093
878.313	3184
878.441	3195
878.568	3089
878.696	3146
878.824	3241
878.951	3310
879.079	3458
879.206	3622
879.333	3420
879.461	3336
879.588	3348
879.715	3477
879.842	3587
879.97	3310
880.097	3199
880.224	3154
880.351	3207
880.478	3176
880.605	3203
880.732	3173
880.859	3523
880.986	3287
881.112	3287
881.239	3237
881.366	3055
881.493	3051
881.619	2982
881.746	3028
881.872	3081
881.999	3066
882.125	3138
882.252	3233
882.378	3272
882.505	3393
882.631	3275
882.757	3157
882.883	3222
883.01	3180
883.136	3154
883.262	3085
883.388	3119
883.514	3279
883.64	3370
883.766	3287
883.892	3184
884.018	3188
884.143	3416
884.269	3500
884.395	3199
884.52	3176
884.646	3180
884.772	3112
884.897	3131
885.023	3165
885.148	3310
885.274	3393
885.399	3355
885.524	3256
885.65	3245
885.775	3336
885.9	3279
886.025	3424
886.15	3382
886.275	3287
886.4	3260
886.525	3302
886.65	3230
886.775	3275
886.9	3473
887.025	3667
887.149	3393
887.274	3214
887.399	3157
887.523	3211
887.648	3150
887.773	3188
887.897	3370
888.021	3378
888.146	3294
888.27	3416
888.395	3488
888.519	3428
888.643	3450
888.767	3439
888.891	3302
889.015	3222
889.139	3268
889.263	3253
889.387	3393
889.511	3523
889.635	3473
889.759	3313
889.883	3317
890.006	3386
890.13	3454
890.254	3253
890.377	3325
890.501	3192
890.624	3188
890.748	3287
890.871	3184
890.995	3097
891.118	3097
891.241	3214
891.364	3233
891.488	3302
891.611	3146
891.734	3245
891.857	3256
891.98	3207
892.103	3336
892.226	3287
892.349	3184
892.471	3127
892.594	3253
892.717	3306
892.839	3264
892.962	3325
893.085	3351
893.207	3287
893.33	3169
893.452	3192
893.575	3306
893.697	3253
893.819	3428
893.941	3481
894.064	3431
894.186	3279
894.308	3260
894.43	3466
894.552	3530
894.674	3488
894.796	3253
894.918	3283
895.04	3275
895.161	3435
895.283	3397
895.405	3291
895.526	3317
895.648	3405
895.769	3435
895.891	3450
896.012	3454
896.134	3454
896.255	3386
896.376	3359
896.498	3367
896.619	3393
896.74	3367
896.861	3420
896.982	3663
897.103	3876
897.224	3542
897.345	3504
897.466	3397
897.587	3469
897.708	3629
897.828	3561
897.949	3416
898.07	3325
898.19	3370
898.311	3545
898.431	3466
898.552	3485
898.672	3591
898.792	3561
898.913	3488
899.033	3435
899.153	3279
899.273	3233
899.393	3275
899.513	3302
899.633	3313
899.753	3336
899.873	3287
899.993	3382
900.113	3344
900.232	3348
900.352	3329
900.472	3310
900.591	3207
900.711	3302
900.83	3253
900.95	3405
901.069	3507
901.189	3351
901.308	3165
901.427	3123
901.546	3180
901.665	3302
901.784	3325
901.904	3184
902.023	3138
902.141	3009
902.26	3001
902.379	3138
902.498	3089
902.617	3089
902.735	3199
902.854	3214
902.973	3184
903.091	3085
903.21	3055
903.328	3173
903.446	3104
903.565	3070
903.683	3203
903.801	3142
903.919	3218
904.038	3249
904.156	3157
904.274	3264
904.392	3241
904.51	3291
904.627	3344
904.745	3454
904.863	3549
904.981	3287
905.098	3173
905.216	3222
905.334	3306
905.451	3302
905.569	3306
905.686	3428
905.803	3405
905.921	3287
906.038	3416
906.155	3351
906.272	3249
906.389	3348
906.506	3253
906.623	3237
906.74	3249
906.857	3173
906.974	3241
907.091	3447
907.208	3545
907.324	3462
907.441	3389
907.557	3233
907.674	3241
907.79	3188
907.907	3264
908.023	3363
908.139	3359
908.256	3332
908.372	3389
908.488	3367
908.604	3253
908.72	3233
908.836	3275
908.952	3279
909.068	3317
909.184	3492
909.3	3363
909.415	3481
909.531	3500
909.647	3283
909.762	3332
909.878	3253
909.993	3355
910.108	3344
910.224	3359
910.339	3386
910.454	3370
910.57	3279
910.685	3214
910.8	3591
910.915	3519
911.03	3378
911.145	3302
911.259	3241
911.374	3279
911.489	3256
911.604	3214
911.718	3116
911.833	3154
911.947	3043
912.062	3020
912.176	3203
912.291	3199
912.405	3203
912.519	3462
912.633	3450
912.748	3302
912.862	3287
912.976	3157
913.09	3100
913.204	3123
913.318	3184
913.431	3321
913.545	3355
913.659	3412
913.772	3340
913.886	3294
914	3203
914.113	3363
914.226	3439
914.34	3340
914.453	3188
914.566	3374
914.68	3294
914.793	3325
914.906	3131
915.019	3093
915.132	3116
915.245	3138
915.358	3214
915.47	3264
915.583	3218
915.696	3298
915.809	3367
915.921	3416
916.034	3226
916.146	3207
916.259	3218
916.371	3363
916.483	3344
916.595	3256
916.708	3359
916.82	3325
916.932	3367
917.044	3313
917.156	3367
917.268	3230
917.38	3275
917.491	3253
917.603	3363
917.715	3462
917.826	3462
917.938	3397
918.049	3272
918.161	3401
918.272	3584
918.384	3591
918.495	3500
918.606	3306
918.717	3275
918.828	3363
918.939	3393
919.05	3310
919.161	3367
919.272	3154
919.383	3298
919.494	3500
919.604	3671
919.715	3447
919.826	3393
919.936	3431
920.047	3591
920.157	3557
920.267	3762
920.378	3618
920.488	3538
920.598	3766
920.708	3930
920.818	3819
920.928	3857
921.038	4017
921.148	4025
921.258	3690
921.368	3614
921.477	3580
921.587	3515
921.697	3450
921.806	3652
921.916	3526
922.025	3317
922.134	3325
922.244	3332
922.353	3405
922.462	3291
922.571	3211
922.68	3089
922.789	3062
922.898	3131
923.007	3150
923.116	3207
923.224	3188
923.333	3199
923.442	3135
923.55	3066
923.659	3146
923.767	3207
923.876	3108
923.984	3241
924.092	3089
924.201	3237
924.309	3241
924.417	3249
924.525	3184
924.633	3249
924.741	3983
924.849	3043
924.956	3264
925.064	3142
925.172	3009
925.279	3085
925.387	3218
925.494	3188
925.602	3336
925.709	3348
925.816	3214
925.924	3332
926.031	3351
926.138	3325
926.245	3313
926.352	3260
926.459	3435
926.566	3496
926.673	3291
926.779	3256
926.886	3279
926.993	3165
927.099	3123
927.206	3135
927.312	3062
927.419	3279
927.525	3195
927.631	3272
927.737	3119
927.843	3142
927.95	3047
928.056	3123
928.162	3135
928.267	3237
928.373	3846
928.479	3291
928.585	3058
928.69	3157
928.796	3294
928.901	3161
929.007	3036
929.112	3230
929.218	3199
929.323	3127
929.428	3116
929.533	3294
929.638	3119
929.743	3112
929.848	3245
929.953	3222
930.058	3119
930.163	3001
930.267	3047
930.372	3184
930.477	3074
930.581	3298
930.685	3157
930.79	3047
930.894	3093
930.998	3097
931.103	3283
931.207	2922
931.311	2952
931.415	2971
931.519	2785
931.623	2823
