Data from test_V78500241_954.txt Node
Date: Fri Mar 25 16:21:48 CST 2022
User: usil
Spectrometer: V785-0024
Trigger mode: 0
Integration Time (sec): 4.000000E-1
Scans to average: 1
Nonlinearity correction enabled: false
Boxcar width: 0
Storing dark spectrum: false
XAxis mode: Wavelengths
Number of Pixels in Spectrum: 1024
>>>>>Begin Spectral Data<<<<<
801.071	2948
801.214	2952
801.356	2868
801.499	2887
801.641	2895
801.783	2929
801.926	3043
802.068	2975
802.211	3024
802.353	3013
802.496	2986
802.638	2998
802.78	3055
802.923	3058
803.065	3005
803.208	2887
803.35	2925
803.492	2937
803.635	2941
803.777	2773
803.919	2842
804.061	3173
804.204	2933
804.346	2895
804.488	2849
804.63	3001
804.773	2872
804.915	2925
805.057	3039
805.199	2948
805.341	2975
805.483	3028
805.626	3001
805.768	2963
805.91	3112
806.052	3100
806.194	3055
806.336	3222
806.478	3017
806.62	2952
806.762	2998
806.904	3066
807.046	3180
807.188	2963
807.33	2899
807.472	2982
807.614	2876
807.756	2956
807.898	2918
808.04	2883
808.182	2994
808.324	2948
808.465	2891
808.607	2895
808.749	2819
808.891	2876
809.033	2986
809.174	2986
809.316	2891
809.458	2868
809.6	2781
809.741	2773
809.883	2781
810.025	2861
810.166	2857
810.308	2830
810.45	2868
810.591	2804
810.733	2769
810.875	2838
811.016	2785
811.158	2727
811.299	2788
811.441	2914
811.582	2918
811.724	2788
811.865	2842
812.007	2925
812.148	2876
812.29	2811
812.431	2872
812.573	2948
812.714	2979
812.855	3028
812.997	3036
813.138	3123
813.279	3032
813.421	2982
813.562	2925
813.703	2842
813.845	2902
813.986	2781
814.127	2735
814.268	2830
814.41	2830
814.551	2815
814.692	2872
814.833	2792
814.974	2899
815.115	2960
815.256	2864
815.397	2804
815.539	2861
815.68	2773
815.821	2796
815.962	2960
816.103	2929
816.244	2872
816.385	2853
816.526	2956
816.666	2883
816.807	2746
816.948	2845
817.089	2880
817.23	2861
817.371	2777
817.512	2777
817.653	2826
817.793	2815
817.934	2906
818.075	2971
818.216	2979
818.356	3036
818.497	2887
818.638	2815
818.778	2788
818.919	2785
819.06	2731
819.2	2849
819.341	2800
819.481	2769
819.622	2941
819.762	3051
819.903	3055
820.043	2922
820.184	2899
820.324	2902
820.465	3001
820.605	3017
820.746	3017
820.886	2925
821.026	3085
821.167	3157
821.307	3218
821.447	3249
821.588	3218
821.728	3184
821.868	3214
822.008	3058
822.149	3199
822.289	3211
822.429	3081
822.569	3093
822.709	3180
822.849	3062
822.99	3043
823.13	3161
823.27	3199
823.41	3089
823.55	3188
823.69	3180
823.83	3173
823.97	3100
824.11	3001
824.25	3013
824.389	3062
824.529	3077
824.669	3066
824.809	3207
824.949	3268
825.089	3211
825.228	3188
825.368	3009
825.508	2925
825.648	2967
825.787	3028
825.927	2998
826.067	2960
826.206	2971
826.346	3089
826.485	3066
826.625	3116
826.765	3275
826.904	3192
827.044	2960
827.183	2925
827.323	2857
827.462	2971
827.601	2887
827.741	2933
827.88	2979
828.02	2834
828.159	2952
828.298	3032
828.437	3100
828.577	3024
828.716	3245
828.855	3055
828.994	2914
829.134	2883
829.273	2933
829.412	2861
829.551	2861
829.69	2842
829.829	2986
829.968	3112
830.107	3009
830.246	2990
830.385	2960
830.524	2864
830.663	2781
830.802	2716
830.941	2621
831.08	2674
831.219	2720
831.357	2762
831.496	2952
831.635	2682
831.774	2636
831.913	2667
832.051	2541
832.19	2568
832.329	2651
832.467	2533
832.606	2514
832.744	2579
832.883	2587
833.022	2587
833.16	2674
833.299	2655
833.437	2682
833.576	2682
833.714	2750
833.852	2735
833.991	2743
834.129	2834
834.267	2838
834.406	2811
834.544	2864
834.682	2872
834.821	2861
834.959	3104
835.097	2895
835.235	3062
835.373	2952
835.511	3009
835.65	2937
835.788	2994
835.926	2834
836.064	2800
836.202	2823
836.34	3093
836.478	3119
836.615	3051
836.753	3112
836.891	3192
837.029	3150
837.167	3055
837.305	3055
837.443	2986
837.58	2941
837.718	3165
837.856	3089
837.993	3032
838.131	3127
838.269	3081
838.406	3104
838.544	3085
838.681	2960
838.819	2960
838.956	2861
839.094	2823
839.231	2899
839.369	3032
839.506	3367
839.643	3218
839.781	3009
839.918	2979
840.055	3070
840.193	3066
840.33	3051
840.467	3081
840.604	3150
840.742	3374
840.879	3043
841.016	3032
841.153	3123
841.29	3287
841.427	3302
841.564	3230
841.701	3302
841.838	3188
841.975	3199
842.112	3230
842.249	3085
842.385	3062
842.522	3279
842.659	3089
842.796	3066
842.933	3089
843.069	3024
843.206	3051
843.343	3154
843.479	3104
843.616	3150
843.752	2883
843.889	2853
844.025	3058
844.162	2876
844.298	3058
844.435	2941
844.571	2914
844.708	3066
844.844	3173
844.98	3222
845.117	3195
845.253	3001
845.389	2944
845.525	3062
845.661	3104
845.798	3036
845.934	3131
846.07	3051
846.206	3199
846.342	3313
846.478	3222
846.614	3070
846.75	3020
846.886	3024
847.022	3237
847.158	3131
847.294	3176
847.429	3241
847.565	3214
847.701	3488
847.837	3032
847.972	2994
848.108	3142
848.244	3123
848.379	2975
848.515	2914
848.65	2902
848.786	2960
848.921	3001
849.057	3150
849.192	3161
849.328	3089
849.463	3123
849.598	3032
849.734	3039
849.869	2914
850.004	2929
850.14	2982
850.275	2887
850.41	2845
850.545	2872
850.68	2922
850.815	2982
850.95	2967
851.085	3165
851.22	3062
851.355	3032
851.49	3009
851.625	2982
851.76	2998
851.895	2963
852.03	2906
852.165	3028
852.299	3123
852.434	3165
852.569	3142
852.703	3138
852.838	3237
852.973	3329
853.107	3332
853.242	3173
853.376	3112
853.511	2971
853.645	3020
853.78	3199
853.914	3131
854.048	3093
854.183	3051
854.317	3154
854.451	3256
854.585	3123
854.72	3089
854.854	3214
854.988	3055
855.122	3100
855.256	2994
855.39	3112
855.524	3249
855.658	3211
855.792	3176
855.926	3184
856.06	3218
856.194	3283
856.327	3100
856.461	3123
856.595	3066
856.729	3074
856.862	3233
856.996	3154
857.13	3192
857.263	3218
857.397	3268
857.53	3123
857.664	3214
857.797	3233
857.931	3241
858.064	3237
858.197	3218
858.331	3089
858.464	3062
858.597	2963
858.731	3100
858.864	3097
858.997	3070
859.13	3150
859.263	3184
859.396	3127
859.529	3085
859.662	3089
859.795	3024
859.928	3146
860.061	3275
860.194	3291
860.327	3146
860.46	3081
860.592	3230
860.725	3253
860.858	3218
860.99	3100
861.123	3039
861.256	3055
861.388	3127
861.521	3781
861.653	2971
861.786	2956
861.918	3020
862.05	3081
862.183	3074
862.315	3165
862.447	3211
862.58	3100
862.712	2944
862.844	2887
862.976	3017
863.108	2979
863.24	3439
863.372	2876
863.504	2979
863.636	2967
863.768	3017
863.9	2971
864.032	2922
864.164	2925
864.296	3013
864.428	3081
864.559	3116
864.691	3043
864.823	3077
864.954	3047
865.086	3055
865.217	2948
865.349	2963
865.48	2956
865.612	3013
865.743	3157
865.875	2990
866.006	2956
866.137	2948
866.269	2937
866.4	2929
866.531	2906
866.662	2876
866.793	2868
866.924	2910
867.055	2933
867.186	2914
867.317	2891
867.448	2849
867.579	2842
867.71	2864
867.841	2823
867.972	2918
868.103	2914
868.233	2864
868.364	2899
868.495	2883
868.625	3089
868.756	3161
868.886	2937
869.017	3009
869.147	3146
869.278	3173
869.408	3032
869.539	2982
869.669	3062
869.799	3009
869.929	3119
870.06	3089
870.19	3325
870.32	3264
870.45	3302
870.58	3344
870.71	3477
870.84	3409
870.97	3260
871.1	3233
871.23	3462
871.36	3447
871.489	3389
871.619	3370
871.749	3401
871.879	3405
872.008	3466
872.138	3351
872.267	3260
872.397	3150
872.526	3097
872.656	3024
872.785	3081
872.915	3230
873.044	3291
873.173	3203
873.303	3260
873.432	3214
873.561	3233
873.69	3138
873.819	3138
873.948	3169
874.077	3108
874.206	3085
874.335	3070
874.464	3192
874.593	3329
874.722	3233
874.851	3386
874.979	3355
875.108	3294
875.237	3173
875.365	3135
875.494	3161
875.623	3253
875.751	3089
875.88	3108
876.008	3157
876.136	3226
876.265	3393
876.393	3511
876.521	3412
876.65	3374
876.778	3317
876.906	3245
877.034	3222
877.162	3233
877.29	3154
877.418	3264
877.546	3211
877.674	3226
877.802	3207
877.93	3214
878.058	3184
878.185	3093
878.313	3184
878.441	3203
878.568	3100
878.696	3180
878.824	3279
878.951	3298
879.079	3447
879.206	3587
879.333	3420
879.461	3344
879.588	3386
879.715	3492
879.842	3580
879.97	3374
880.097	3184
880.224	3135
880.351	3169
880.478	3180
880.605	3195
880.732	3203
880.859	3519
880.986	3287
881.112	3351
881.239	3184
881.366	3097
881.493	3005
881.619	3013
881.746	3119
881.872	3089
881.999	3127
882.125	3131
882.252	3226
882.378	3298
882.505	3420
882.631	3275
882.757	3150
882.883	3203
883.01	3188
883.136	3173
883.262	3062
883.388	3135
883.514	3351
883.64	3382
883.766	3321
883.892	3184
884.018	3218
884.143	3420
884.269	3545
884.395	3184
884.52	3138
884.646	3180
884.772	3142
884.897	3093
885.023	3188
885.148	3332
885.274	3389
885.399	3355
885.524	3260
885.65	3256
885.775	3332
885.9	3260
886.025	3447
886.15	3405
886.275	3321
886.4	3222
886.525	3241
886.65	3279
886.775	3272
886.9	3450
887.025	3637
887.149	3420
887.274	3211
887.399	3165
887.523	3180
887.648	3165
887.773	3176
887.897	3336
888.021	3401
888.146	3279
888.27	3405
888.395	3545
888.519	3405
888.643	3439
888.767	3431
888.891	3298
889.015	3245
889.139	3306
889.263	3211
889.387	3409
889.511	3534
889.635	3431
889.759	3268
889.883	3268
890.006	3382
890.13	3488
890.254	3253
890.377	3386
890.501	3230
890.624	3192
890.748	3298
890.871	3161
890.995	3074
891.118	3051
891.241	3169
891.364	3195
891.488	3317
891.611	3173
891.734	3214
891.857	3283
891.98	3226
892.103	3344
892.226	3279
892.349	3245
892.471	3093
892.594	3218
892.717	3249
892.839	3264
892.962	3279
893.085	3348
893.207	3287
893.33	3157
893.452	3214
893.575	3340
893.697	3249
893.819	3443
893.941	3530
894.064	3469
894.186	3275
894.308	3256
894.43	3412
894.552	3576
894.674	3416
894.796	3272
894.918	3317
895.04	3253
895.161	3405
895.283	3370
895.405	3317
895.526	3325
895.648	3416
895.769	3401
895.891	3447
896.012	3454
896.134	3477
896.255	3412
896.376	3386
896.498	3310
896.619	3447
896.74	3355
896.861	3401
896.982	3656
897.103	3850
897.224	3561
897.345	3515
897.466	3435
897.587	3523
897.708	3610
897.828	3542
897.949	3447
898.07	3329
898.19	3409
898.311	3576
898.431	3424
898.552	3526
898.672	3568
898.792	3542
898.913	3481
899.033	3393
899.153	3294
899.273	3237
899.393	3241
899.513	3283
899.633	3291
899.753	3298
899.873	3332
899.993	3382
900.113	3310
900.232	3386
900.352	3344
900.472	3283
900.591	3211
900.711	3294
900.83	3264
900.95	3420
901.069	3450
901.189	3363
901.308	3146
901.427	3176
901.546	3207
901.665	3279
901.784	3306
901.904	3173
902.023	3135
902.141	3039
902.26	3017
902.379	3119
902.498	3058
902.617	3089
902.735	3214
902.854	3241
902.973	3199
903.091	3043
903.21	3070
903.328	3165
903.446	3131
903.565	3104
903.683	3241
903.801	3116
903.919	3264
904.038	3279
904.156	3161
904.274	3287
904.392	3241
904.51	3275
904.627	3351
904.745	3424
904.863	3473
904.981	3279
905.098	3154
905.216	3192
905.334	3294
905.451	3264
905.569	3279
905.686	3431
905.803	3409
905.921	3283
906.038	3435
906.155	3359
906.272	3264
906.389	3367
906.506	3233
906.623	3233
906.74	3294
906.857	3203
906.974	3233
907.091	3488
907.208	3568
907.324	3534
907.441	3370
907.557	3176
907.674	3237
907.79	3207
907.907	3268
908.023	3363
908.139	3370
908.256	3336
908.372	3367
908.488	3344
908.604	3272
908.72	3253
908.836	3279
908.952	3272
909.068	3332
909.184	3515
909.3	3363
909.415	3485
909.531	3469
909.647	3260
909.762	3287
909.878	3249
909.993	3325
910.108	3325
910.224	3317
910.339	3416
910.454	3344
910.57	3272
910.685	3268
910.8	3595
910.915	3504
911.03	3412
911.145	3272
911.259	3291
911.374	3306
911.489	3253
911.604	3226
911.718	3131
911.833	3135
911.947	3028
912.062	2990
912.176	3116
912.291	3199
912.405	3222
912.519	3374
912.633	3450
912.748	3321
912.862	3283
912.976	3192
913.09	3089
913.204	3142
913.318	3226
913.431	3329
913.545	3275
913.659	3447
913.772	3298
913.886	3218
914	3226
914.113	3321
914.226	3382
914.34	3382
914.453	3203
914.566	3367
914.68	3291
914.793	3298
914.906	3146
915.019	3097
915.132	3093
915.245	3173
915.358	3207
915.47	3222
915.583	3264
915.696	3310
915.809	3416
915.921	3367
916.034	3260
916.146	3268
916.259	3192
916.371	3389
916.483	3317
916.595	3279
916.708	3329
916.82	3325
916.932	3348
917.044	3310
917.156	3386
917.268	3233
917.38	3294
917.491	3310
917.603	3363
917.715	3447
917.826	3454
917.938	3386
918.049	3291
918.161	3424
918.272	3618
918.384	3538
918.495	3515
918.606	3348
918.717	3222
918.828	3359
918.939	3454
919.05	3329
919.161	3340
919.272	3146
919.383	3283
919.494	3488
919.604	3660
919.715	3504
919.826	3386
919.936	3466
920.047	3587
920.157	3511
920.267	3740
920.378	3603
920.488	3553
920.598	3755
920.708	3949
920.818	3854
920.928	3850
921.038	4013
921.148	3994
921.258	3701
921.368	3614
921.477	3584
921.587	3561
921.697	3439
921.806	3618
921.916	3530
922.025	3351
922.134	3393
922.244	3325
922.353	3431
922.462	3294
922.571	3176
922.68	3119
922.789	3058
922.898	3097
923.007	3097
923.116	3207
923.224	3165
923.333	3176
923.442	3100
923.55	3085
923.659	3131
923.767	3214
923.876	3093
923.984	3260
924.092	3123
924.201	3218
924.309	3203
924.417	3233
924.525	3192
924.633	3211
924.741	4139
924.849	3043
924.956	3237
925.064	3074
925.172	3051
925.279	3085
925.387	3192
925.494	3218
925.602	3351
925.709	3359
925.816	3169
925.924	3253
926.031	3332
926.138	3321
926.245	3359
926.352	3226
926.459	3401
926.566	3477
926.673	3351
926.779	3192
926.886	3249
926.993	3161
927.099	3123
927.206	3093
927.312	3085
927.419	3226
927.525	3184
927.631	3241
927.737	3146
927.843	3123
927.95	2998
928.056	3131
928.162	3157
928.267	3253
928.373	3903
928.479	3306
928.585	3104
928.69	3211
928.796	3245
928.901	3199
929.007	3032
929.112	3199
929.218	3161
929.323	3154
929.428	3123
929.533	3279
929.638	3119
929.743	3165
929.848	3283
929.953	3169
930.058	3157
930.163	2967
930.267	3013
930.372	3192
930.477	3066
930.581	3313
930.685	3192
930.79	3058
930.894	3165
930.998	3081
931.103	3245
931.207	2975
931.311	2918
931.415	2899
931.519	2796
931.623	2826
