Data from test_V78500241_1018.txt Node
Date: Fri Mar 25 16:22:15 CST 2022
User: usil
Spectrometer: V785-0024
Trigger mode: 0
Integration Time (sec): 4.000000E-1
Scans to average: 1
Nonlinearity correction enabled: false
Boxcar width: 0
Storing dark spectrum: false
XAxis mode: Wavelengths
Number of Pixels in Spectrum: 1024
>>>>>Begin Spectral Data<<<<<
801.071	2941
801.214	2979
801.356	2895
801.499	2963
801.641	2895
801.783	2937
801.926	3062
802.068	3017
802.211	3017
802.353	3039
802.496	2994
802.638	3028
802.78	3070
802.923	3093
803.065	3043
803.208	2906
803.35	2963
803.492	2956
803.635	2925
803.777	2819
803.919	2883
804.061	3218
804.204	2967
804.346	2944
804.488	2883
804.63	2994
804.773	2880
804.915	2933
805.057	3081
805.199	2960
805.341	3020
805.483	3062
805.626	3024
805.768	2986
805.91	3154
806.052	3127
806.194	3043
806.336	3237
806.478	3074
806.62	2975
806.762	2998
806.904	3081
807.046	3180
807.188	2994
807.33	2910
807.472	3036
807.614	2941
807.756	3024
807.898	2922
808.04	2887
808.182	3013
808.324	2986
808.465	2918
808.607	2914
808.749	2830
808.891	2868
809.033	2994
809.174	2998
809.316	2952
809.458	2902
809.6	2815
809.741	2811
809.883	2811
810.025	2868
810.166	2914
810.308	2880
810.45	2880
810.591	2842
810.733	2807
810.875	2853
811.016	2769
811.158	2788
811.299	2842
811.441	2975
811.582	2963
811.724	2853
811.865	2853
812.007	2902
812.148	2872
812.29	2876
812.431	2948
812.573	2948
812.714	2998
812.855	3058
812.997	3051
813.138	3161
813.279	3020
813.421	2998
813.562	2971
813.703	2864
813.845	2918
813.986	2796
814.127	2724
814.268	2830
814.41	2830
814.551	2811
814.692	2891
814.833	2849
814.974	2883
815.115	2948
815.256	2838
815.397	2830
815.539	2895
815.68	2766
815.821	2823
815.962	2986
816.103	2914
816.244	2899
816.385	2906
816.526	2963
816.666	2925
816.807	2804
816.948	2906
817.089	2891
817.23	2880
817.371	2781
817.512	2834
817.653	2861
817.793	2834
817.934	2918
818.075	2967
818.216	3001
818.356	3089
818.497	2925
818.638	2792
818.778	2830
818.919	2815
819.06	2746
819.2	2899
819.341	2849
819.481	2811
819.622	2914
819.762	3108
819.903	3074
820.043	2910
820.184	2933
820.324	2918
820.465	3055
820.605	3024
820.746	3009
820.886	2944
821.026	3116
821.167	3135
821.307	3260
821.447	3283
821.588	3272
821.728	3214
821.868	3188
822.008	3066
822.149	3184
822.289	3230
822.429	3104
822.569	3131
822.709	3188
822.849	3032
822.99	3081
823.13	3192
823.27	3233
823.41	3089
823.55	3180
823.69	3150
823.83	3245
823.97	3112
824.11	3036
824.25	3039
824.389	3070
824.529	3100
824.669	3100
824.809	3218
824.949	3249
825.089	3253
825.228	3188
825.368	2994
825.508	2994
825.648	2994
825.787	3058
825.927	3051
826.067	2979
826.206	2994
826.346	3013
826.485	3081
826.625	3135
826.765	3283
826.904	3230
827.044	2971
827.183	2971
827.323	2891
827.462	2967
827.601	2925
827.741	2952
827.88	2967
828.02	2853
828.159	2960
828.298	3032
828.437	3150
828.577	3093
828.716	3272
828.855	3077
828.994	2922
829.134	2918
829.273	2967
829.412	2925
829.551	2868
829.69	2910
829.829	2990
829.968	3131
830.107	3017
830.246	3047
830.385	2910
830.524	2842
830.663	2788
830.802	2750
830.941	2712
831.08	2655
831.219	2769
831.357	2792
831.496	2948
831.635	2708
831.774	2663
831.913	2678
832.051	2514
832.19	2564
832.329	2697
832.467	2533
832.606	2473
832.744	2579
832.883	2590
833.022	2602
833.16	2659
833.299	2659
833.437	2705
833.576	2727
833.714	2746
833.852	2735
833.991	2769
834.129	2868
834.267	2853
834.406	2777
834.544	2899
834.682	2849
834.821	2861
834.959	3077
835.097	2883
835.235	3097
835.373	2994
835.511	3013
835.65	2948
835.788	2933
835.926	2853
836.064	2823
836.202	2883
836.34	3093
836.478	3157
836.615	3077
836.753	3138
836.891	3233
837.029	3154
837.167	3104
837.305	3131
837.443	3070
837.58	2963
837.718	3119
837.856	3077
837.993	3020
838.131	3131
838.269	3119
838.406	3097
838.544	3100
838.681	2941
838.819	2941
838.956	2838
839.094	2857
839.231	2948
839.369	2979
839.506	3374
839.643	3188
839.781	3017
839.918	2960
840.055	3097
840.193	3070
840.33	3097
840.467	3074
840.604	3184
840.742	3397
840.879	3055
841.016	3066
841.153	3108
841.29	3329
841.427	3302
841.564	3264
841.701	3332
841.838	3237
841.975	3169
842.112	3264
842.249	3066
842.385	3039
842.522	3283
842.659	3074
842.796	3070
842.933	3070
843.069	3043
843.206	3081
843.343	3195
843.479	3135
843.616	3119
843.752	2883
843.889	2887
844.025	3077
844.162	2880
844.298	3070
844.435	2982
844.571	2895
844.708	3051
844.844	3207
844.98	3241
845.117	3154
845.253	3020
845.389	3009
845.525	3081
845.661	3138
845.798	2998
845.934	3123
846.07	3058
846.206	3211
846.342	3321
846.478	3230
846.614	3085
846.75	3039
846.886	3036
847.022	3195
847.158	3150
847.294	3195
847.429	3207
847.565	3184
847.701	3458
847.837	3074
847.972	3005
848.108	3180
848.244	3127
848.379	2982
848.515	2975
848.65	2963
848.786	2941
848.921	2986
849.057	3150
849.192	3142
849.328	3081
849.463	3108
849.598	3036
849.734	3039
849.869	2979
850.004	2948
850.14	2956
850.275	2914
850.41	2823
850.545	2880
850.68	2956
850.815	2941
850.95	2975
851.085	3226
851.22	3127
851.355	3028
851.49	3005
851.625	2994
851.76	3005
851.895	2952
852.03	2956
852.165	3028
852.299	3142
852.434	3176
852.569	3180
852.703	3230
852.838	3275
852.973	3359
853.107	3359
853.242	3203
853.376	3131
853.511	2998
853.645	3055
853.78	3279
853.914	3157
854.048	3135
854.183	3119
854.317	3157
854.451	3378
854.585	3154
854.72	3127
854.854	3226
854.988	3104
855.122	3146
855.256	3028
855.39	3112
855.524	3291
855.658	3195
855.792	3188
855.926	3268
856.06	3211
856.194	3302
856.327	3184
856.461	3119
856.595	3135
856.729	3165
856.862	3279
856.996	3230
857.13	3222
857.263	3226
857.397	3272
857.53	3142
857.664	3237
857.797	3268
857.931	3260
858.064	3195
858.197	3283
858.331	3173
858.464	3123
858.597	3028
858.731	3169
858.864	3161
858.997	3127
859.13	3173
859.263	3230
859.396	3256
859.529	3138
859.662	3097
859.795	3089
859.928	3176
860.061	3348
860.194	3310
860.327	3169
860.46	3165
860.592	3256
860.725	3268
860.858	3310
860.99	3169
861.123	3085
861.256	3062
861.388	3195
861.521	3831
861.653	3081
861.786	3047
861.918	3055
862.05	3097
862.183	3131
862.315	3173
862.447	3237
862.58	3097
862.712	2994
862.844	2941
862.976	3089
863.108	3058
863.24	3454
863.372	2922
863.504	2990
863.636	2963
863.768	3043
863.9	3024
864.032	2963
864.164	3005
864.296	3058
864.428	3089
864.559	3146
864.691	3104
864.823	3085
864.954	3085
865.086	3055
865.217	3032
865.349	2982
865.48	3009
865.612	3055
865.743	3184
865.875	3013
866.006	2971
866.137	3028
866.269	3028
866.4	2979
866.531	2960
866.662	2929
866.793	2956
866.924	2937
867.055	2990
867.186	2960
867.317	2952
867.448	2880
867.579	2891
867.71	2895
867.841	2815
867.972	2941
868.103	2941
868.233	2925
868.364	2899
868.495	2948
868.625	3097
868.756	3184
868.886	3028
869.017	3036
869.147	3222
869.278	3176
869.408	3119
869.539	3085
869.669	3100
869.799	3100
869.929	3138
870.06	3146
870.19	3340
870.32	3306
870.45	3321
870.58	3397
870.71	3454
870.84	3488
870.97	3325
871.1	3249
871.23	3530
871.36	3507
871.489	3367
871.619	3439
871.749	3447
871.879	3462
872.008	3538
872.138	3378
872.267	3302
872.397	3146
872.526	3157
872.656	3024
872.785	3123
872.915	3256
873.044	3310
873.173	3249
873.303	3298
873.432	3272
873.561	3237
873.69	3173
873.819	3173
873.948	3184
874.077	3119
874.206	3066
874.335	3097
874.464	3241
874.593	3370
874.722	3272
874.851	3424
874.979	3378
875.108	3348
875.237	3203
875.365	3222
875.494	3199
875.623	3256
875.751	3108
875.88	3127
876.008	3199
876.136	3268
876.265	3355
876.393	3485
876.521	3431
876.65	3401
876.778	3340
876.906	3283
877.034	3222
877.162	3222
877.29	3241
877.418	3283
877.546	3321
877.674	3294
877.802	3253
877.93	3226
878.058	3169
878.185	3135
878.313	3241
878.441	3253
878.568	3104
878.696	3195
878.824	3260
878.951	3359
879.079	3500
879.206	3633
879.333	3439
879.461	3374
879.588	3382
879.715	3500
879.842	3629
879.97	3424
880.097	3199
880.224	3157
880.351	3230
880.478	3272
880.605	3230
880.732	3173
880.859	3523
880.986	3332
881.112	3374
881.239	3207
881.366	3108
881.493	3097
881.619	3020
881.746	3116
881.872	3135
881.999	3104
882.125	3188
882.252	3222
882.378	3321
882.505	3397
882.631	3287
882.757	3180
882.883	3249
883.01	3279
883.136	3199
883.262	3138
883.388	3119
883.514	3336
883.64	3447
883.766	3329
883.892	3249
884.018	3287
884.143	3420
884.269	3542
884.395	3275
884.52	3131
884.646	3195
884.772	3169
884.897	3150
885.023	3207
885.148	3355
885.274	3450
885.399	3405
885.524	3321
885.65	3321
885.775	3348
885.9	3313
886.025	3439
886.15	3367
886.275	3336
886.4	3237
886.525	3336
886.65	3294
886.775	3279
886.9	3526
887.025	3648
887.149	3424
887.274	3260
887.399	3203
887.523	3211
887.648	3237
887.773	3192
887.897	3420
888.021	3401
888.146	3359
888.27	3450
888.395	3526
888.519	3473
888.643	3481
888.767	3469
888.891	3321
889.015	3275
889.139	3325
889.263	3256
889.387	3435
889.511	3496
889.635	3458
889.759	3298
889.883	3367
890.006	3382
890.13	3507
890.254	3291
890.377	3355
890.501	3207
890.624	3211
890.748	3287
890.871	3207
890.995	3104
891.118	3097
891.241	3237
891.364	3249
891.488	3317
891.611	3222
891.734	3214
891.857	3306
891.98	3256
892.103	3348
892.226	3302
892.349	3245
892.471	3157
892.594	3272
892.717	3287
892.839	3275
892.962	3302
893.085	3420
893.207	3310
893.33	3157
893.452	3230
893.575	3389
893.697	3256
893.819	3485
893.941	3515
894.064	3477
894.186	3294
894.308	3279
894.43	3458
894.552	3568
894.674	3485
894.796	3283
894.918	3329
895.04	3321
895.161	3424
895.283	3428
895.405	3351
895.526	3382
895.648	3405
895.769	3428
895.891	3504
896.012	3485
896.134	3485
896.255	3443
896.376	3393
896.498	3401
896.619	3443
896.74	3420
896.861	3409
896.982	3686
897.103	3857
897.224	3629
897.345	3500
897.466	3412
897.587	3511
897.708	3641
897.828	3561
897.949	3447
898.07	3325
898.19	3420
898.311	3606
898.431	3477
898.552	3545
898.672	3587
898.792	3614
898.913	3568
899.033	3405
899.153	3340
899.273	3233
899.393	3302
899.513	3321
899.633	3317
899.753	3351
899.873	3306
899.993	3409
900.113	3374
900.232	3428
900.352	3367
900.472	3291
900.591	3226
900.711	3321
900.83	3256
900.95	3405
901.069	3511
901.189	3367
901.308	3157
901.427	3146
901.546	3222
901.665	3306
901.784	3374
901.904	3249
902.023	3127
902.141	3028
902.26	3017
902.379	3157
902.498	3070
902.617	3051
902.735	3222
902.854	3249
902.973	3195
903.091	3089
903.21	3085
903.328	3150
903.446	3077
903.565	3077
903.683	3245
903.801	3135
903.919	3230
904.038	3317
904.156	3195
904.274	3329
904.392	3298
904.51	3291
904.627	3355
904.745	3409
904.863	3500
904.981	3283
905.098	3180
905.216	3264
905.334	3287
905.451	3298
905.569	3321
905.686	3458
905.803	3443
905.921	3298
906.038	3496
906.155	3348
906.272	3344
906.389	3344
906.506	3249
906.623	3268
906.74	3272
906.857	3226
906.974	3241
907.091	3481
907.208	3595
907.324	3500
907.441	3386
907.557	3279
907.674	3283
907.79	3218
907.907	3294
908.023	3397
908.139	3409
908.256	3283
908.372	3397
908.488	3378
908.604	3245
908.72	3256
908.836	3260
908.952	3294
909.068	3344
909.184	3488
909.3	3378
909.415	3561
909.531	3481
909.647	3233
909.762	3336
909.878	3268
909.993	3378
910.108	3355
910.224	3359
910.339	3424
910.454	3325
910.57	3272
910.685	3249
910.8	3591
910.915	3542
911.03	3431
911.145	3279
911.259	3294
911.374	3321
911.489	3264
911.604	3226
911.718	3100
911.833	3169
911.947	3066
912.062	2956
912.176	3173
912.291	3218
912.405	3233
912.519	3447
912.633	3488
912.748	3351
912.862	3283
912.976	3203
913.09	3077
913.204	3146
913.318	3237
913.431	3374
913.545	3348
913.659	3397
913.772	3351
913.886	3214
914	3161
914.113	3370
914.226	3393
914.34	3340
914.453	3211
914.566	3409
914.68	3287
914.793	3317
914.906	3154
915.019	3089
915.132	3074
915.245	3169
915.358	3214
915.47	3241
915.583	3298
915.696	3306
915.809	3412
915.921	3439
916.034	3279
916.146	3268
916.259	3233
916.371	3416
916.483	3359
916.595	3256
916.708	3389
916.82	3340
916.932	3367
917.044	3374
917.156	3348
917.268	3279
917.38	3317
917.491	3329
917.603	3374
917.715	3424
917.826	3466
917.938	3405
918.049	3340
918.161	3439
918.272	3584
918.384	3538
918.495	3477
918.606	3340
918.717	3287
918.828	3363
918.939	3389
919.05	3306
919.161	3386
919.272	3188
919.383	3241
919.494	3526
919.604	3671
919.715	3492
919.826	3405
919.936	3530
920.047	3587
920.157	3553
920.267	3759
920.378	3614
920.488	3557
920.598	3800
920.708	3903
920.818	3831
920.928	3823
921.038	4055
921.148	3960
921.258	3705
921.368	3625
921.477	3603
921.587	3595
921.697	3439
921.806	3606
921.916	3515
922.025	3370
922.134	3386
922.244	3344
922.353	3447
922.462	3294
922.571	3241
922.68	3104
922.789	3085
922.898	3138
923.007	3062
923.116	3245
923.224	3192
923.333	3169
923.442	3112
923.55	3112
923.659	3097
923.767	3256
923.876	3104
923.984	3283
924.092	3112
924.201	3192
924.309	3260
924.417	3253
924.525	3173
924.633	3214
924.741	4158
924.849	3047
924.956	3272
925.064	3081
925.172	3013
925.279	3089
925.387	3165
925.494	3214
925.602	3359
925.709	3321
925.816	3241
925.924	3291
926.031	3397
926.138	3336
926.245	3363
926.352	3268
926.459	3416
926.566	3477
926.673	3329
926.779	3253
926.886	3260
926.993	3195
927.099	3150
927.206	3100
927.312	3169
927.419	3199
927.525	3222
927.631	3313
927.737	3150
927.843	3104
927.95	3055
928.056	3142
928.162	3176
928.267	3192
928.373	3911
928.479	3329
928.585	3074
928.69	3199
928.796	3218
928.901	3173
929.007	3066
929.112	3218
929.218	3180
929.323	3154
929.428	3146
929.533	3336
929.638	3116
929.743	3169
929.848	3272
929.953	3195
930.058	3116
930.163	3024
930.267	3058
930.372	3230
930.477	3039
930.581	3359
930.685	3207
930.79	3058
930.894	3165
930.998	3093
931.103	3268
931.207	2941
931.311	2933
931.415	2910
931.519	2769
931.623	2826
