Data from test_V78500241_13.txt Node
Date: Fri Mar 25 16:15:17 CST 2022
User: usil
Spectrometer: V785-0024
Trigger mode: 0
Integration Time (sec): 4.000000E-1
Scans to average: 1
Nonlinearity correction enabled: false
Boxcar width: 0
Storing dark spectrum: false
XAxis mode: Wavelengths
Number of Pixels in Spectrum: 1024
>>>>>Begin Spectral Data<<<<<
801.071	2960
801.214	3017
801.356	2906
801.499	2967
801.641	2918
801.783	2979
801.926	3051
802.068	3020
802.211	3051
802.353	3077
802.496	3028
802.638	3047
802.78	3077
802.923	3138
803.065	3070
803.208	2963
803.35	2979
803.492	2971
803.635	3005
803.777	2804
803.919	2937
804.061	3256
804.204	3043
804.346	2933
804.488	2914
804.63	3047
804.773	2967
804.915	3013
805.057	3161
805.199	3009
805.341	3028
805.483	3100
805.626	3081
805.768	3066
805.91	3154
806.052	3203
806.194	3077
806.336	3283
806.478	3047
806.62	3028
806.762	3013
806.904	3097
807.046	3260
807.188	3074
807.33	2975
807.472	3047
807.614	2998
807.756	3036
807.898	2963
808.04	3005
808.182	3024
808.324	3009
808.465	2979
808.607	2956
808.749	2857
808.891	2914
809.033	3032
809.174	3062
809.316	2948
809.458	2956
809.6	2849
809.741	2845
809.883	2792
810.025	2883
810.166	2914
810.308	2906
810.45	2910
810.591	2861
810.733	2845
810.875	2914
811.016	2845
811.158	2792
811.299	2899
811.441	2998
811.582	2975
811.724	2864
811.865	2872
812.007	2910
812.148	2963
812.29	2902
812.431	2956
812.573	2998
812.714	3017
812.855	3112
812.997	3123
813.138	3195
813.279	3047
813.421	3028
813.562	3051
813.703	2952
813.845	2944
813.986	2834
814.127	2800
814.268	2906
814.41	2925
814.551	2857
814.692	2982
814.833	2899
814.974	2956
815.115	3032
815.256	2861
815.397	2887
815.539	2944
815.68	2864
815.821	2880
815.962	3028
816.103	2986
816.244	2971
816.385	2952
816.526	3028
816.666	3001
816.807	2811
816.948	2956
817.089	2956
817.23	2922
817.371	2842
817.512	2891
817.653	2876
817.793	2876
817.934	2944
818.075	3047
818.216	3070
818.356	3051
818.497	2956
818.638	2868
818.778	2910
818.919	2853
819.06	2823
819.2	2982
819.341	2880
819.481	2807
819.622	2967
819.762	3169
819.903	3138
820.043	2944
820.184	2941
820.324	2941
820.465	3097
820.605	3070
820.746	3077
820.886	3001
821.026	3165
821.167	3211
821.307	3291
821.447	3374
821.588	3272
821.728	3272
821.868	3256
822.008	3154
822.149	3264
822.289	3291
822.429	3157
822.569	3161
822.709	3214
822.849	3070
822.99	3127
823.13	3233
823.27	3268
823.41	3161
823.55	3230
823.69	3207
823.83	3207
823.97	3135
824.11	3085
824.25	3062
824.389	3108
824.529	3169
824.669	3116
824.809	3291
824.949	3329
825.089	3294
825.228	3230
825.368	3058
825.508	3005
825.648	3051
825.787	3100
825.927	3070
826.067	3047
826.206	3009
826.346	3116
826.485	3195
826.625	3188
826.765	3317
826.904	3275
827.044	3036
827.183	2979
827.323	2929
827.462	3039
827.601	2956
827.741	2990
827.88	2986
828.02	2910
828.159	3043
828.298	3089
828.437	3169
828.577	3146
828.716	3310
828.855	3127
828.994	2960
829.134	2956
829.273	2971
829.412	2914
829.551	2937
829.69	2967
829.829	3066
829.968	3207
830.107	3066
830.246	3074
830.385	2967
830.524	2963
830.663	2864
830.802	2758
830.941	2720
831.08	2708
831.219	2838
831.357	2773
831.496	3005
831.635	2804
831.774	2701
831.913	2697
832.051	2579
832.19	2606
832.329	2724
832.467	2598
832.606	2484
832.744	2678
832.883	2636
833.022	2644
833.16	2678
833.299	2746
833.437	2735
833.576	2777
833.714	2777
833.852	2769
833.991	2842
834.129	2902
834.267	2895
834.406	2857
834.544	2906
834.682	2891
834.821	2937
834.959	3112
835.097	2929
835.235	3104
835.373	3047
835.511	3081
835.65	3043
835.788	3043
835.926	2887
836.064	2849
836.202	2906
836.34	3161
836.478	3218
836.615	3097
836.753	3214
836.891	3226
837.029	3237
837.167	3169
837.305	3097
837.443	3146
837.58	3043
837.718	3184
837.856	3165
837.993	3074
838.131	3184
838.269	3154
838.406	3146
838.544	3165
838.681	2979
838.819	2929
838.956	2868
839.094	2891
839.231	2956
839.369	3074
839.506	3397
839.643	3268
839.781	3119
839.918	3001
840.055	3116
840.193	3108
840.33	3112
840.467	3176
840.604	3199
840.742	3469
840.879	3119
841.016	3116
841.153	3169
841.29	3382
841.427	3351
841.564	3287
841.701	3359
841.838	3275
841.975	3226
842.112	3298
842.249	3184
842.385	3089
842.522	3321
842.659	3154
842.796	3116
842.933	3169
843.069	3112
843.206	3104
843.343	3237
843.479	3127
843.616	3195
843.752	2925
843.889	2925
844.025	3150
844.162	2941
844.298	3138
844.435	2979
844.571	2963
844.708	3138
844.844	3237
844.98	3306
845.117	3256
845.253	3093
845.389	3013
845.525	3154
845.661	3138
845.798	3077
845.934	3192
846.07	3112
846.206	3218
846.342	3374
846.478	3291
846.614	3173
846.75	3119
846.886	3085
847.022	3287
847.158	3180
847.294	3256
847.429	3313
847.565	3264
847.701	3591
847.837	3119
847.972	3039
848.108	3237
848.244	3203
848.379	3047
848.515	2998
848.65	2998
848.786	3036
848.921	3051
849.057	3161
849.192	3214
849.328	3157
849.463	3176
849.598	3119
849.734	3077
849.869	3024
850.004	2922
850.14	3017
850.275	2952
850.41	2899
850.545	2914
850.68	2994
850.815	3017
850.95	3001
851.085	3272
851.22	3135
851.355	3100
851.49	3032
851.625	3051
851.76	3032
851.895	2979
852.03	2948
852.165	3089
852.299	3180
852.434	3233
852.569	3195
852.703	3253
852.838	3313
852.973	3389
853.107	3374
853.242	3218
853.376	3142
853.511	3020
853.645	3085
853.78	3298
853.914	3138
854.048	3135
854.183	3154
854.317	3233
854.451	3359
854.585	3165
854.72	3161
854.854	3256
854.988	3104
855.122	3116
855.256	3017
855.39	3211
855.524	3298
855.658	3233
855.792	3214
855.926	3260
856.06	3272
856.194	3344
856.327	3211
856.461	3116
856.595	3150
856.729	3135
856.862	3253
856.996	3226
857.13	3272
857.263	3253
857.397	3313
857.53	3165
857.664	3279
857.797	3313
857.931	3283
858.064	3256
858.197	3283
858.331	3169
858.464	3142
858.597	3028
858.731	3180
858.864	3169
858.997	3123
859.13	3211
859.263	3245
859.396	3253
859.529	3146
859.662	3104
859.795	3097
859.928	3192
860.061	3283
860.194	3355
860.327	3188
860.46	3150
860.592	3260
860.725	3302
860.858	3340
860.99	3176
861.123	3116
861.256	3116
861.388	3169
861.521	3766
861.653	3043
861.786	3047
861.918	3089
862.05	3135
862.183	3157
862.315	3184
862.447	3241
862.58	3188
862.712	2963
862.844	2906
862.976	3028
863.108	3005
863.24	3488
863.372	2906
863.504	3070
863.636	2994
863.768	3097
863.9	3039
864.032	2979
864.164	3005
864.296	3039
864.428	3127
864.559	3146
864.691	3104
864.823	3127
864.954	3081
865.086	3081
865.217	3024
865.349	3005
865.48	3024
865.612	3070
865.743	3203
865.875	3009
866.006	3017
866.137	3047
866.269	2986
866.4	2998
866.531	2975
866.662	2941
866.793	2914
866.924	2960
867.055	2967
867.186	2971
867.317	2933
867.448	2902
867.579	2891
867.71	2887
867.841	2864
867.972	2952
868.103	2960
868.233	2914
868.364	2952
868.495	2975
868.625	3138
868.756	3195
868.886	3024
869.017	3066
869.147	3222
869.278	3176
869.408	3108
869.539	3047
869.669	3135
869.799	3089
869.929	3184
870.06	3173
870.19	3378
870.32	3340
870.45	3378
870.58	3431
870.71	3469
870.84	3496
870.97	3359
871.1	3279
871.23	3481
871.36	3492
871.489	3412
871.619	3439
871.749	3485
871.879	3500
872.008	3545
872.138	3405
872.267	3313
872.397	3199
872.526	3165
872.656	3047
872.785	3123
872.915	3260
873.044	3351
873.173	3275
873.303	3272
873.432	3287
873.561	3287
873.69	3169
873.819	3199
873.948	3283
874.077	3173
874.206	3100
874.335	3104
874.464	3279
874.593	3367
874.722	3264
874.851	3450
874.979	3435
875.108	3374
875.237	3226
875.365	3230
875.494	3237
875.623	3329
875.751	3127
875.88	3161
876.008	3226
876.136	3230
876.265	3397
876.393	3580
876.521	3515
876.65	3454
876.778	3370
876.906	3287
877.034	3241
877.162	3272
877.29	3241
877.418	3329
877.546	3298
877.674	3294
877.802	3291
877.93	3241
878.058	3199
878.185	3127
878.313	3241
878.441	3249
878.568	3127
878.696	3233
878.824	3306
878.951	3382
879.079	3523
879.206	3671
879.333	3545
879.461	3397
879.588	3443
879.715	3572
879.842	3637
879.97	3447
880.097	3188
880.224	3157
880.351	3249
880.478	3260
880.605	3218
880.732	3230
880.859	3564
880.986	3370
881.112	3355
881.239	3275
881.366	3146
881.493	3074
881.619	3085
881.746	3116
881.872	3157
881.999	3138
882.125	3195
882.252	3287
882.378	3340
882.505	3538
882.631	3302
882.757	3214
882.883	3256
883.01	3272
883.136	3218
883.262	3165
883.388	3195
883.514	3363
883.64	3431
883.766	3359
883.892	3233
884.018	3329
884.143	3481
884.269	3568
884.395	3241
884.52	3226
884.646	3230
884.772	3180
884.897	3119
885.023	3253
885.148	3370
885.274	3473
885.399	3428
885.524	3321
885.65	3340
885.775	3374
885.9	3306
886.025	3488
886.15	3412
886.275	3363
886.4	3294
886.525	3374
886.65	3344
886.775	3348
886.9	3511
887.025	3717
887.149	3443
887.274	3321
887.399	3256
887.523	3264
887.648	3245
887.773	3283
887.897	3447
888.021	3469
888.146	3363
888.27	3515
888.395	3637
888.519	3504
888.643	3557
888.767	3557
888.891	3340
889.015	3279
889.139	3306
889.263	3325
889.387	3454
889.511	3564
889.635	3462
889.759	3355
889.883	3329
890.006	3519
890.13	3557
890.254	3310
890.377	3382
890.501	3241
890.624	3245
890.748	3340
890.871	3253
890.995	3173
891.118	3074
891.241	3279
891.364	3291
891.488	3386
891.611	3283
891.734	3249
891.857	3329
891.98	3283
892.103	3393
892.226	3310
892.349	3329
892.471	3169
892.594	3260
892.717	3363
892.839	3306
892.962	3367
893.085	3428
893.207	3325
893.33	3211
893.452	3325
893.575	3424
893.697	3329
893.819	3519
893.941	3572
894.064	3534
894.186	3310
894.308	3287
894.43	3496
894.552	3591
894.674	3466
894.796	3321
894.918	3367
895.04	3340
895.161	3477
895.283	3447
895.405	3386
895.526	3420
895.648	3462
895.769	3466
895.891	3481
896.012	3545
896.134	3526
896.255	3469
896.376	3469
896.498	3439
896.619	3481
896.74	3435
896.861	3458
896.982	3709
897.103	3880
897.224	3637
897.345	3564
897.466	3462
897.587	3496
897.708	3690
897.828	3572
897.949	3534
898.07	3412
898.19	3500
898.311	3622
898.431	3504
898.552	3603
898.672	3622
898.792	3625
898.913	3580
899.033	3439
899.153	3367
899.273	3233
899.393	3340
899.513	3389
899.633	3359
899.753	3386
899.873	3355
899.993	3473
900.113	3416
900.232	3412
900.352	3405
900.472	3321
900.591	3249
900.711	3393
900.83	3260
900.95	3485
901.069	3587
901.189	3405
901.308	3222
901.427	3199
901.546	3264
901.665	3329
901.784	3378
901.904	3294
902.023	3211
902.141	3066
902.26	3032
902.379	3195
902.498	3112
902.617	3097
902.735	3268
902.854	3306
902.973	3241
903.091	3116
903.21	3097
903.328	3222
903.446	3157
903.565	3112
903.683	3256
903.801	3165
903.919	3287
904.038	3344
904.156	3218
904.274	3355
904.392	3291
904.51	3321
904.627	3382
904.745	3477
904.863	3534
904.981	3325
905.098	3211
905.216	3256
905.334	3374
905.451	3378
905.569	3370
905.686	3488
905.803	3473
905.921	3321
906.038	3458
906.155	3397
906.272	3336
906.389	3405
906.506	3302
906.623	3306
906.74	3329
906.857	3230
906.974	3306
907.091	3473
907.208	3648
907.324	3534
907.441	3412
907.557	3317
907.674	3283
907.79	3283
907.907	3325
908.023	3454
908.139	3431
908.256	3363
908.372	3439
908.488	3405
908.604	3325
908.72	3298
908.836	3332
908.952	3340
909.068	3386
909.184	3568
909.3	3469
909.415	3568
909.531	3519
909.647	3340
909.762	3348
909.878	3264
909.993	3401
910.108	3431
910.224	3412
910.339	3481
910.454	3412
910.57	3332
910.685	3332
910.8	3637
910.915	3549
911.03	3477
911.145	3317
911.259	3329
911.374	3332
911.489	3272
911.604	3294
911.718	3161
911.833	3203
911.947	3116
912.062	3039
912.176	3214
912.291	3222
912.405	3272
912.519	3496
912.633	3515
912.748	3359
912.862	3348
912.976	3192
913.09	3150
913.204	3207
913.318	3249
913.431	3370
913.545	3374
913.659	3488
913.772	3420
913.886	3241
914	3264
914.113	3412
914.226	3481
914.34	3401
914.453	3275
914.566	3458
914.68	3370
914.793	3374
914.906	3199
915.019	3173
915.132	3150
915.245	3226
915.358	3268
915.47	3260
915.583	3317
915.696	3325
915.809	3439
915.921	3477
916.034	3321
916.146	3321
916.259	3260
916.371	3458
916.483	3420
916.595	3298
916.708	3405
916.82	3397
916.932	3374
917.044	3431
917.156	3382
917.268	3291
917.38	3344
917.491	3332
917.603	3424
917.715	3485
917.826	3519
917.938	3431
918.049	3325
918.161	3481
918.272	3686
918.384	3633
918.495	3549
918.606	3409
918.717	3321
918.828	3409
918.939	3477
919.05	3382
919.161	3431
919.272	3249
919.383	3332
919.494	3553
919.604	3762
919.715	3557
919.826	3458
919.936	3511
920.047	3686
920.157	3614
920.267	3850
920.378	3682
920.488	3656
920.598	3850
920.708	4051
920.818	3892
920.928	3918
921.038	4097
921.148	4002
921.258	3778
921.368	3686
921.477	3603
921.587	3584
921.697	3538
921.806	3705
921.916	3591
922.025	3389
922.134	3439
922.244	3348
922.353	3492
922.462	3332
922.571	3272
922.68	3150
922.789	3161
922.898	3199
923.007	3192
923.116	3264
923.224	3195
923.333	3256
923.442	3123
923.55	3146
923.659	3165
923.767	3264
923.876	3188
923.984	3294
924.092	3157
924.201	3260
924.309	3287
924.417	3294
924.525	3226
924.633	3298
924.741	4234
924.849	3093
924.956	3325
925.064	3165
925.172	3081
925.279	3161
925.387	3241
925.494	3256
925.602	3435
925.709	3378
925.816	3298
925.924	3344
926.031	3428
926.138	3405
926.245	3405
926.352	3321
926.459	3450
926.566	3534
926.673	3389
926.779	3291
926.886	3317
926.993	3218
927.099	3169
927.206	3138
927.312	3150
927.419	3329
927.525	3241
927.631	3336
927.737	3233
927.843	3203
927.95	3108
928.056	3214
928.162	3245
928.267	3336
928.373	3835
928.479	3370
928.585	3123
928.69	3287
928.796	3310
928.901	3173
929.007	3093
929.112	3253
929.218	3226
929.323	3188
929.428	3207
929.533	3363
929.638	3165
929.743	3222
929.848	3279
929.953	3256
930.058	3214
930.163	3020
930.267	3108
930.372	3260
930.477	3074
930.581	3355
930.685	3230
930.79	3100
930.894	3142
930.998	3169
931.103	3351
931.207	3009
931.311	3013
931.415	2963
931.519	2864
931.623	2845
