Data from test_V78500241_1960.txt Node
Date: Fri Mar 25 16:28:46 CST 2022
User: usil
Spectrometer: V785-0024
Trigger mode: 0
Integration Time (sec): 4.000000E-1
Scans to average: 1
Nonlinearity correction enabled: false
Boxcar width: 0
Storing dark spectrum: false
XAxis mode: Wavelengths
Number of Pixels in Spectrum: 1024
>>>>>Begin Spectral Data<<<<<
801.071	2906
801.214	2963
801.356	2864
801.499	2891
801.641	2849
801.783	2895
801.926	3036
802.068	2967
802.211	2990
802.353	3055
802.496	2979
802.638	3024
802.78	3036
802.923	3074
803.065	2994
803.208	2891
803.35	2933
803.492	2895
803.635	2933
803.777	2781
803.919	2853
804.061	3195
804.204	2960
804.346	2883
804.488	2838
804.63	2986
804.773	2845
804.915	2906
805.057	3058
805.199	2914
805.341	2941
805.483	3070
805.626	3009
805.768	2956
805.91	3108
806.052	3146
806.194	3009
806.336	3199
806.478	2990
806.62	2967
806.762	2967
806.904	3074
807.046	3138
807.188	2963
807.33	2876
807.472	2982
807.614	2887
807.756	2979
807.898	2899
808.04	2876
808.182	2971
808.324	2941
808.465	2887
808.607	2868
808.749	2762
808.891	2853
809.033	2963
809.174	2998
809.316	2887
809.458	2937
809.6	2777
809.741	2746
809.883	2750
810.025	2868
810.166	2838
810.308	2826
810.45	2864
810.591	2788
810.733	2758
810.875	2792
811.016	2788
811.158	2739
811.299	2781
811.441	2948
811.582	2876
811.724	2819
811.865	2819
812.007	2883
812.148	2887
812.29	2857
812.431	2872
812.573	2906
812.714	2960
812.855	3028
812.997	3070
813.138	3085
813.279	3028
813.421	2990
813.562	2914
813.703	2861
813.845	2922
813.986	2731
814.127	2731
814.268	2826
814.41	2845
814.551	2800
814.692	2853
814.833	2823
814.974	2872
815.115	2937
815.256	2815
815.397	2804
815.539	2868
815.68	2796
815.821	2743
815.962	2914
816.103	2933
816.244	2872
816.385	2864
816.526	2952
816.666	2929
816.807	2743
816.948	2899
817.089	2891
817.23	2849
817.371	2754
817.512	2800
817.653	2880
817.793	2819
817.934	2880
818.075	2982
818.216	2963
818.356	3009
818.497	2830
818.638	2743
818.778	2823
818.919	2819
819.06	2766
819.2	2849
819.341	2826
819.481	2788
819.622	2899
819.762	3074
819.903	3077
820.043	2895
820.184	2910
820.324	2891
820.465	3005
820.605	3017
820.746	3047
820.886	2914
821.026	3085
821.167	3157
821.307	3268
821.447	3294
821.588	3260
821.728	3169
821.868	3173
822.008	3077
822.149	3146
822.289	3207
822.429	3085
822.569	3070
822.709	3195
822.849	3001
822.99	3028
823.13	3161
823.27	3207
823.41	3108
823.55	3123
823.69	3146
823.83	3195
823.97	3097
824.11	2979
824.25	3009
824.389	3039
824.529	3123
824.669	3058
824.809	3173
824.949	3230
825.089	3180
825.228	3119
825.368	2967
825.508	2925
825.648	2960
825.787	3013
825.927	3020
826.067	3005
826.206	2960
826.346	3024
826.485	3074
826.625	3104
826.765	3291
826.904	3184
827.044	2998
827.183	2971
827.323	2864
827.462	3005
827.601	2902
827.741	2902
827.88	3005
828.02	2842
828.159	2960
828.298	3039
828.437	3108
828.577	3055
828.716	3245
828.855	3066
828.994	2952
829.134	2887
829.273	2948
829.412	2883
829.551	2857
829.69	2876
829.829	2998
829.968	3146
830.107	3013
830.246	3009
830.385	2914
830.524	2887
830.663	2826
830.802	2750
830.941	2663
831.08	2613
831.219	2739
831.357	2731
831.496	2952
831.635	2720
831.774	2625
831.913	2640
832.051	2564
832.19	2556
832.329	2712
832.467	2518
832.606	2450
832.744	2556
832.883	2568
833.022	2590
833.16	2651
833.299	2686
833.437	2693
833.576	2682
833.714	2746
833.852	2731
833.991	2727
834.129	2826
834.267	2792
834.406	2788
834.544	2861
834.682	2864
834.821	2906
834.959	3017
835.097	2902
835.235	3070
835.373	2994
835.511	3017
835.65	2941
835.788	2960
835.926	2849
836.064	2777
836.202	2819
836.34	3089
836.478	3127
836.615	3047
836.753	3127
836.891	3146
837.029	3138
837.167	3100
837.305	3058
837.443	3074
837.58	2929
837.718	3127
837.856	3032
837.993	3024
838.131	3097
838.269	3119
838.406	3089
838.544	3081
838.681	2922
838.819	2902
838.956	2804
839.094	2819
839.231	2902
839.369	3032
839.506	3393
839.643	3188
839.781	3009
839.918	2975
840.055	3028
840.193	3036
840.33	3036
840.467	3104
840.604	3146
840.742	3393
840.879	3070
841.016	3047
841.153	3127
841.29	3325
841.427	3302
841.564	3249
841.701	3260
841.838	3195
841.975	3245
842.112	3207
842.249	3043
842.385	3036
842.522	3256
842.659	3077
842.796	3047
842.933	3116
843.069	3024
843.206	3032
843.343	3211
843.479	3123
843.616	3097
843.752	2887
843.889	2845
844.025	3074
844.162	2853
844.298	3104
844.435	2937
844.571	2933
844.708	3032
844.844	3173
844.98	3279
845.117	3180
845.253	3032
845.389	2998
845.525	3119
845.661	3077
845.798	2998
845.934	3119
846.07	3028
846.206	3157
846.342	3310
846.478	3226
846.614	3066
846.75	3028
846.886	3020
847.022	3211
847.158	3085
847.294	3173
847.429	3256
847.565	3180
847.701	3458
847.837	3020
847.972	3051
848.108	3116
848.244	3131
848.379	2982
848.515	2960
848.65	2925
848.786	2963
848.921	2971
849.057	3093
849.192	3123
849.328	3066
849.463	3108
849.598	3062
849.734	3001
849.869	2986
850.004	2925
850.14	3009
850.275	2929
850.41	2788
850.545	2895
850.68	2902
850.815	2948
850.95	3001
851.085	3184
851.22	3093
851.355	3058
851.49	2960
851.625	3005
851.76	2967
851.895	2948
852.03	2899
852.165	3039
852.299	3104
852.434	3199
852.569	3112
852.703	3157
852.838	3237
852.973	3294
853.107	3294
853.242	3154
853.376	3047
853.511	2952
853.645	3028
853.78	3237
853.914	3100
854.048	3112
854.183	3093
854.317	3135
854.451	3325
854.585	3100
854.72	3085
854.854	3199
854.988	3028
855.122	3074
855.256	2948
855.39	3100
855.524	3211
855.658	3146
855.792	3161
855.926	3146
856.06	3192
856.194	3256
856.327	3131
856.461	3055
856.595	3062
856.729	3089
856.862	3207
856.996	3169
857.13	3192
857.263	3222
857.397	3283
857.53	3097
857.664	3131
857.797	3203
857.931	3237
858.064	3157
858.197	3214
858.331	3135
858.464	3089
858.597	3001
858.731	3127
858.864	3123
858.997	3070
859.13	3138
859.263	3150
859.396	3192
859.529	3112
859.662	3051
859.795	3020
859.928	3093
860.061	3275
860.194	3279
860.327	3135
860.46	3066
860.592	3245
860.725	3214
860.858	3218
860.99	3100
861.123	3024
861.256	3043
861.388	3161
861.521	3846
861.653	3017
861.786	2963
861.918	2990
862.05	3051
862.183	3043
862.315	3165
862.447	3218
862.58	3020
862.712	2956
862.844	2883
862.976	3005
863.108	2998
863.24	3306
863.372	2883
863.504	2982
863.636	2967
863.768	2998
863.9	3005
864.032	2902
864.164	2967
864.296	3009
864.428	3070
864.559	3097
864.691	3085
864.823	3017
864.954	3062
865.086	3028
865.217	2948
865.349	2914
865.48	2960
865.612	3020
865.743	3123
865.875	2948
866.006	2906
866.137	2956
866.269	2960
866.4	2922
866.531	2895
866.662	2880
866.793	2899
866.924	2864
867.055	2967
867.186	2929
867.317	2868
867.448	2849
867.579	2826
867.71	2864
867.841	2838
867.972	2914
868.103	2910
868.233	2899
868.364	2857
868.495	2883
868.625	3047
868.756	3199
868.886	2941
869.017	3024
869.147	3131
869.278	3135
869.408	3032
869.539	3013
869.669	3070
869.799	3055
869.929	3108
870.06	3112
870.19	3313
870.32	3245
870.45	3340
870.58	3336
870.71	3454
870.84	3450
870.97	3279
871.1	3249
871.23	3450
871.36	3477
871.489	3344
871.619	3424
871.749	3370
871.879	3462
872.008	3492
872.138	3382
872.267	3211
872.397	3146
872.526	3089
872.656	3001
872.785	3058
872.915	3237
873.044	3336
873.173	3161
873.303	3256
873.432	3222
873.561	3268
873.69	3173
873.819	3142
873.948	3195
874.077	3093
874.206	3020
874.335	3093
874.464	3218
874.593	3306
874.722	3233
874.851	3393
874.979	3344
875.108	3310
875.237	3203
875.365	3169
875.494	3146
875.623	3249
875.751	3081
875.88	3112
876.008	3165
876.136	3218
876.265	3378
876.393	3534
876.521	3443
876.65	3409
876.778	3317
876.906	3226
877.034	3180
877.162	3184
877.29	3157
877.418	3207
877.546	3237
877.674	3237
877.802	3218
877.93	3199
878.058	3135
878.185	3108
878.313	3184
878.441	3192
878.568	3066
878.696	3108
878.824	3241
878.951	3279
879.079	3412
879.206	3614
879.333	3428
879.461	3317
879.588	3397
879.715	3485
879.842	3557
879.97	3332
880.097	3161
880.224	3127
880.351	3180
880.478	3214
880.605	3184
880.732	3192
880.859	3496
880.986	3310
881.112	3344
881.239	3214
881.366	3097
881.493	3066
881.619	3051
881.746	3074
881.872	3077
881.999	3131
882.125	3116
882.252	3226
882.378	3302
882.505	3378
882.631	3264
882.757	3142
882.883	3230
883.01	3218
883.136	3192
883.262	3089
883.388	3100
883.514	3329
883.64	3382
883.766	3348
883.892	3184
884.018	3306
884.143	3409
884.269	3488
884.395	3211
884.52	3161
884.646	3188
884.772	3097
884.897	3074
885.023	3195
885.148	3355
885.274	3405
885.399	3336
885.524	3245
885.65	3245
885.775	3321
885.9	3287
886.025	3439
886.15	3340
886.275	3302
886.4	3233
886.525	3310
886.65	3241
886.775	3321
886.9	3500
887.025	3656
887.149	3397
887.274	3249
887.399	3150
887.523	3154
887.648	3165
887.773	3188
887.897	3374
888.021	3409
888.146	3302
888.27	3409
888.395	3496
888.519	3424
888.643	3454
888.767	3485
888.891	3287
889.015	3218
889.139	3294
889.263	3218
889.387	3386
889.511	3519
889.635	3477
889.759	3279
889.883	3287
890.006	3340
890.13	3481
890.254	3260
890.377	3325
890.501	3192
890.624	3165
890.748	3313
890.871	3157
890.995	3104
891.118	3062
891.241	3157
891.364	3214
891.488	3302
891.611	3195
891.734	3233
891.857	3272
891.98	3245
892.103	3321
892.226	3313
892.349	3165
892.471	3123
892.594	3218
892.717	3275
892.839	3233
892.962	3283
893.085	3332
893.207	3268
893.33	3161
893.452	3226
893.575	3336
893.697	3245
893.819	3409
893.941	3477
894.064	3435
894.186	3249
894.308	3272
894.43	3431
894.552	3534
894.674	3447
894.796	3237
894.918	3302
895.04	3294
895.161	3412
895.283	3393
895.405	3310
895.526	3340
895.648	3424
895.769	3374
895.891	3458
896.012	3462
896.134	3473
896.255	3393
896.376	3378
896.498	3359
896.619	3428
896.74	3363
896.861	3370
896.982	3648
897.103	3827
897.224	3614
897.345	3485
897.466	3397
897.587	3462
897.708	3622
897.828	3530
897.949	3412
898.07	3321
898.19	3378
898.311	3625
898.431	3435
898.552	3496
898.672	3584
898.792	3587
898.913	3523
899.033	3348
899.153	3264
899.273	3218
899.393	3241
899.513	3291
899.633	3275
899.753	3329
899.873	3313
899.993	3386
900.113	3348
900.232	3378
900.352	3298
900.472	3313
900.591	3199
900.711	3272
900.83	3253
900.95	3386
901.069	3504
901.189	3348
901.308	3157
901.427	3112
901.546	3184
901.665	3253
901.784	3363
901.904	3211
902.023	3135
902.141	3017
902.26	2963
902.379	3119
902.498	3070
902.617	3051
902.735	3233
902.854	3211
902.973	3184
903.091	3028
903.21	3055
903.328	3165
903.446	3116
903.565	3047
903.683	3188
903.801	3142
903.919	3230
904.038	3302
904.156	3150
904.274	3279
904.392	3226
904.51	3294
904.627	3287
904.745	3458
904.863	3466
904.981	3233
905.098	3169
905.216	3230
905.334	3279
905.451	3294
905.569	3310
905.686	3412
905.803	3462
905.921	3264
906.038	3458
906.155	3389
906.272	3298
906.389	3363
906.506	3249
906.623	3241
906.74	3294
906.857	3184
906.974	3283
907.091	3469
907.208	3584
907.324	3488
907.441	3397
907.557	3226
907.674	3302
907.79	3256
907.907	3283
908.023	3389
908.139	3405
908.256	3378
908.372	3386
908.488	3382
908.604	3275
908.72	3241
908.836	3317
908.952	3367
909.068	3351
909.184	3549
909.3	3439
909.415	3549
909.531	3496
909.647	3336
909.762	3344
909.878	3321
909.993	3344
910.108	3367
910.224	3374
910.339	3447
910.454	3382
910.57	3306
910.685	3260
910.8	3682
910.915	3549
911.03	3443
911.145	3283
911.259	3332
911.374	3298
911.489	3291
911.604	3268
911.718	3154
911.833	3169
911.947	3100
912.062	3009
912.176	3214
912.291	3249
912.405	3272
912.519	3492
912.633	3469
912.748	3355
912.862	3253
912.976	3203
913.09	3074
913.204	3218
913.318	3264
913.431	3355
913.545	3378
913.659	3450
913.772	3409
913.886	3256
914	3237
914.113	3386
914.226	3428
914.34	3466
914.453	3264
914.566	3401
914.68	3275
914.793	3340
914.906	3180
915.019	3173
915.132	3093
915.245	3195
915.358	3230
915.47	3253
915.583	3321
915.696	3340
915.809	3439
915.921	3431
916.034	3275
916.146	3256
916.259	3233
916.371	3435
916.483	3386
916.595	3370
916.708	3367
916.82	3401
916.932	3382
917.044	3359
917.156	3382
917.268	3291
917.38	3336
917.491	3325
917.603	3439
917.715	3507
917.826	3496
917.938	3370
918.049	3310
918.161	3443
918.272	3584
918.384	3629
918.495	3549
918.606	3382
918.717	3325
918.828	3397
918.939	3454
919.05	3340
919.161	3435
919.272	3203
919.383	3310
919.494	3526
919.604	3728
919.715	3561
919.826	3443
919.936	3496
920.047	3641
920.157	3557
920.267	3854
920.378	3618
920.488	3557
920.598	3774
920.708	4025
920.818	3896
920.928	3823
921.038	4063
921.148	4055
921.258	3720
921.368	3667
921.477	3614
921.587	3568
921.697	3500
921.806	3698
921.916	3561
922.025	3393
922.134	3443
922.244	3359
922.353	3469
922.462	3302
922.571	3283
922.68	3142
922.789	3112
922.898	3161
923.007	3131
923.116	3233
923.224	3188
923.333	3256
923.442	3150
923.55	3089
923.659	3176
923.767	3230
923.876	3138
923.984	3275
924.092	3116
924.201	3226
924.309	3260
924.417	3264
924.525	3226
924.633	3260
924.741	4219
924.849	3074
924.956	3298
925.064	3138
925.172	3077
925.279	3123
925.387	3222
925.494	3230
925.602	3370
925.709	3355
925.816	3214
925.924	3321
926.031	3374
926.138	3355
926.245	3386
926.352	3241
926.459	3443
926.566	3473
926.673	3355
926.779	3294
926.886	3283
926.993	3195
927.099	3138
927.206	3154
927.312	3127
927.419	3253
927.525	3256
927.631	3313
927.737	3150
927.843	3165
927.95	3070
928.056	3176
928.162	3192
928.267	3329
928.373	3907
928.479	3336
928.585	3131
928.69	3249
928.796	3279
928.901	3211
929.007	3097
929.112	3237
929.218	3195
929.323	3173
929.428	3180
929.533	3370
929.638	3150
929.743	3161
929.848	3291
929.953	3260
930.058	3195
930.163	3024
930.267	3116
930.372	3222
930.477	3039
930.581	3359
930.685	3207
930.79	3066
930.894	3169
930.998	3116
931.103	3344
931.207	2979
931.311	2982
931.415	2975
931.519	2788
931.623	2842
