Data from test_V78500241_1182.txt Node
Date: Fri Mar 25 16:23:23 CST 2022
User: usil
Spectrometer: V785-0024
Trigger mode: 0
Integration Time (sec): 4.000000E-1
Scans to average: 1
Nonlinearity correction enabled: false
Boxcar width: 0
Storing dark spectrum: false
XAxis mode: Wavelengths
Number of Pixels in Spectrum: 1024
>>>>>Begin Spectral Data<<<<<
801.071	2914
801.214	2937
801.356	2849
801.499	2887
801.641	2842
801.783	2906
801.926	2998
802.068	2998
802.211	2963
802.353	3028
802.496	2933
802.638	3013
802.78	3028
802.923	3089
803.065	2979
803.208	2922
803.35	2902
803.492	2902
803.635	2929
803.777	2720
803.919	2819
804.061	3199
804.204	2918
804.346	2880
804.488	2849
804.63	2963
804.773	2849
804.915	2906
805.057	3062
805.199	2910
805.341	2975
805.483	3017
805.626	2982
805.768	2956
805.91	3077
806.052	3104
806.194	3028
806.336	3222
806.478	3020
806.62	3001
806.762	2960
806.904	3062
807.046	3146
807.188	2986
807.33	2902
807.472	2994
807.614	2883
807.756	2986
807.898	2960
808.04	2883
808.182	2967
808.324	2944
808.465	2861
808.607	2842
808.749	2777
808.891	2819
809.033	2941
809.174	2963
809.316	2883
809.458	2914
809.6	2788
809.741	2750
809.883	2743
810.025	2815
810.166	2811
810.308	2845
810.45	2883
810.591	2792
810.733	2769
810.875	2819
811.016	2766
811.158	2754
811.299	2788
811.441	2944
811.582	2891
811.724	2819
811.865	2785
812.007	2918
812.148	2849
812.29	2845
812.431	2899
812.573	2918
812.714	2967
812.855	3028
812.997	3066
813.138	3100
813.279	3005
813.421	3005
813.562	2952
813.703	2864
813.845	2872
813.986	2724
814.127	2720
814.268	2788
814.41	2830
814.551	2826
814.692	2872
814.833	2826
814.974	2868
815.115	2956
815.256	2819
815.397	2834
815.539	2853
815.68	2781
815.821	2792
815.962	2933
816.103	2914
816.244	2868
816.385	2845
816.526	2971
816.666	2918
816.807	2720
816.948	2880
817.089	2910
817.23	2853
817.371	2773
817.512	2788
817.653	2849
817.793	2792
817.934	2887
818.075	2948
818.216	2982
818.356	2986
818.497	2891
818.638	2785
818.778	2815
818.919	2788
819.06	2727
819.2	2857
819.341	2796
819.481	2792
819.622	2914
819.762	3097
819.903	3024
820.043	2948
820.184	2883
820.324	2880
820.465	3036
820.605	2990
820.746	3001
820.886	2918
821.026	3074
821.167	3169
821.307	3245
821.447	3298
821.588	3233
821.728	3218
821.868	3226
822.008	3051
822.149	3176
822.289	3211
822.429	3074
822.569	3097
822.709	3157
822.849	2986
822.99	3062
823.13	3195
823.27	3173
823.41	3062
823.55	3142
823.69	3157
823.83	3192
823.97	3100
824.11	3028
824.25	2975
824.389	3032
824.529	3116
824.669	3028
824.809	3135
824.949	3241
825.089	3199
825.228	3154
825.368	3005
825.508	2914
825.648	2986
825.787	3039
825.927	3028
826.067	2975
826.206	2944
826.346	3024
826.485	3043
826.625	3119
826.765	3268
826.904	3203
827.044	3001
827.183	2937
827.323	2876
827.462	3032
827.601	2922
827.741	2918
827.88	2933
828.02	2883
828.159	2967
828.298	3032
828.437	3104
828.577	3036
828.716	3237
828.855	3085
828.994	2925
829.134	2891
829.273	2937
829.412	2891
829.551	2864
829.69	2899
829.829	3013
829.968	3188
830.107	3081
830.246	3020
830.385	2918
830.524	2883
830.663	2861
830.802	2781
830.941	2697
831.08	2678
831.219	2773
831.357	2792
831.496	2971
831.635	2785
831.774	2693
831.913	2697
832.051	2556
832.19	2602
832.329	2701
832.467	2552
832.606	2541
832.744	2629
832.883	2602
833.022	2629
833.16	2735
833.299	2724
833.437	2724
833.576	2705
833.714	2777
833.852	2754
833.991	2807
834.129	2868
834.267	2914
834.406	2845
834.544	2914
834.682	2941
834.821	2902
834.959	3089
835.097	2944
835.235	3108
835.373	3024
835.511	3039
835.65	3009
835.788	3024
835.926	2887
836.064	2838
836.202	2868
836.34	3150
836.478	3207
836.615	3062
836.753	3195
836.891	3230
837.029	3214
837.167	3157
837.305	3108
837.443	3097
837.58	2990
837.718	3146
837.856	3104
837.993	3047
838.131	3150
838.269	3097
838.406	3131
838.544	3157
838.681	2967
838.819	2967
838.956	2853
839.094	2883
839.231	2975
839.369	3047
839.506	3412
839.643	3222
839.781	3032
839.918	2982
840.055	3074
840.193	3104
840.33	3100
840.467	3150
840.604	3165
840.742	3439
840.879	3077
841.016	3093
841.153	3104
841.29	3382
841.427	3302
841.564	3329
841.701	3317
841.838	3245
841.975	3192
842.112	3222
842.249	3074
842.385	3089
842.522	3336
842.659	3100
842.796	3135
842.933	3161
843.069	3062
843.206	3089
843.343	3195
843.479	3146
843.616	3203
843.752	2914
843.889	2914
844.025	3100
844.162	2933
844.298	3138
844.435	2937
844.571	2960
844.708	3100
844.844	3203
844.98	3237
845.117	3249
845.253	3081
845.389	3055
845.525	3150
845.661	3123
845.798	3047
845.934	3173
846.07	3055
846.206	3256
846.342	3340
846.478	3233
846.614	3154
846.75	3066
846.886	3058
847.022	3260
847.158	3180
847.294	3214
847.429	3298
847.565	3207
847.701	3523
847.837	3070
847.972	2998
848.108	3218
848.244	3138
848.379	3009
848.515	2986
848.65	2967
848.786	2986
848.921	3058
849.057	3123
849.192	3150
849.328	3104
849.463	3146
849.598	3093
849.734	3070
849.869	3001
850.004	2952
850.14	2982
850.275	2956
850.41	2845
850.545	2918
850.68	2952
850.815	2963
850.95	2982
851.085	3245
851.22	3127
851.355	3070
851.49	3039
851.625	3032
851.76	3032
851.895	2982
852.03	2971
852.165	3089
852.299	3116
852.434	3203
852.569	3211
852.703	3211
852.838	3283
852.973	3370
853.107	3374
853.242	3165
853.376	3142
853.511	2963
853.645	3093
853.78	3260
853.914	3157
854.048	3119
854.183	3123
854.317	3138
854.451	3336
854.585	3127
854.72	3100
854.854	3199
854.988	3081
855.122	3119
855.256	2998
855.39	3089
855.524	3214
855.658	3218
855.792	3173
855.926	3233
856.06	3222
856.194	3275
856.327	3203
856.461	3119
856.595	3055
856.729	3119
856.862	3211
856.996	3184
857.13	3214
857.263	3237
857.397	3275
857.53	3131
857.664	3180
857.797	3230
857.931	3283
858.064	3146
858.197	3256
858.331	3131
858.464	3138
858.597	3032
858.731	3173
858.864	3150
858.997	3097
859.13	3184
859.263	3203
859.396	3180
859.529	3104
859.662	3108
859.795	3070
859.928	3173
860.061	3279
860.194	3287
860.327	3146
860.46	3104
860.592	3260
860.725	3287
860.858	3294
860.99	3127
861.123	3093
861.256	3081
861.388	3184
861.521	3701
861.653	3017
861.786	3024
861.918	3055
862.05	3036
862.183	3108
862.315	3199
862.447	3211
862.58	3089
862.712	2967
862.844	2910
862.976	3032
863.108	3024
863.24	3344
863.372	2891
863.504	2998
863.636	2986
863.768	3051
863.9	2994
864.032	2918
864.164	2960
864.296	3058
864.428	3123
864.559	3131
864.691	3077
864.823	3085
864.954	2975
865.086	3066
865.217	3005
865.349	2960
865.48	3009
865.612	3028
865.743	3176
865.875	3009
866.006	2986
866.137	2963
866.269	2937
866.4	2937
866.531	2952
866.662	2922
866.793	2887
866.924	2876
867.055	2986
867.186	2929
867.317	2895
867.448	2891
867.579	2861
867.71	2845
867.841	2857
867.972	2967
868.103	2925
868.233	2906
868.364	2891
868.495	2922
868.625	3089
868.756	3195
868.886	2998
869.017	3036
869.147	3180
869.278	3199
869.408	3070
869.539	3058
869.669	3112
869.799	3039
869.929	3138
870.06	3104
870.19	3317
870.32	3283
870.45	3340
870.58	3412
870.71	3477
870.84	3458
870.97	3291
871.1	3256
871.23	3485
871.36	3462
871.489	3405
871.619	3416
871.749	3447
871.879	3466
872.008	3519
872.138	3370
872.267	3283
872.397	3169
872.526	3123
872.656	3070
872.785	3089
872.915	3226
873.044	3313
873.173	3233
873.303	3268
873.432	3260
873.561	3245
873.69	3180
873.819	3123
873.948	3203
874.077	3104
874.206	3051
874.335	3104
874.464	3237
874.593	3355
874.722	3279
874.851	3409
874.979	3367
875.108	3321
875.237	3226
875.365	3157
875.494	3218
875.623	3260
875.751	3077
875.88	3127
876.008	3241
876.136	3264
876.265	3397
876.393	3591
876.521	3412
876.65	3386
876.778	3367
876.906	3287
877.034	3214
877.162	3279
877.29	3203
877.418	3272
877.546	3218
877.674	3264
877.802	3245
877.93	3233
878.058	3195
878.185	3150
878.313	3211
878.441	3176
878.568	3074
878.696	3184
878.824	3218
878.951	3351
879.079	3473
879.206	3656
879.333	3450
879.461	3405
879.588	3386
879.715	3488
879.842	3618
879.97	3412
880.097	3150
880.224	3131
880.351	3195
880.478	3230
880.605	3256
880.732	3226
880.859	3507
880.986	3298
881.112	3317
881.239	3195
881.366	3112
881.493	3058
881.619	3024
881.746	3058
881.872	3112
881.999	3062
882.125	3169
882.252	3275
882.378	3283
882.505	3450
882.631	3264
882.757	3165
882.883	3233
883.01	3226
883.136	3150
883.262	3142
883.388	3146
883.514	3310
883.64	3397
883.766	3317
883.892	3180
884.018	3256
884.143	3450
884.269	3545
884.395	3211
884.52	3138
884.646	3203
884.772	3173
884.897	3112
885.023	3249
885.148	3378
885.274	3405
885.399	3378
885.524	3298
885.65	3287
885.775	3329
885.9	3294
886.025	3500
886.15	3370
886.275	3332
886.4	3275
886.525	3332
886.65	3287
886.775	3294
886.9	3515
887.025	3648
887.149	3435
887.274	3256
887.399	3176
887.523	3169
887.648	3176
887.773	3218
887.897	3389
888.021	3435
888.146	3275
888.27	3443
888.395	3542
888.519	3443
888.643	3454
888.767	3450
888.891	3302
889.015	3264
889.139	3302
889.263	3272
889.387	3370
889.511	3534
889.635	3424
889.759	3329
889.883	3291
890.006	3412
890.13	3530
890.254	3298
890.377	3313
890.501	3226
890.624	3207
890.748	3321
890.871	3192
890.995	3138
891.118	3066
891.241	3188
891.364	3237
891.488	3340
891.611	3203
891.734	3214
891.857	3279
891.98	3230
892.103	3382
892.226	3279
892.349	3226
892.471	3119
892.594	3241
892.717	3302
892.839	3306
892.962	3321
893.085	3389
893.207	3321
893.33	3131
893.452	3203
893.575	3306
893.697	3260
893.819	3473
893.941	3553
894.064	3458
894.186	3275
894.308	3253
894.43	3454
894.552	3500
894.674	3458
894.796	3264
894.918	3321
895.04	3313
895.161	3443
895.283	3351
895.405	3287
895.526	3363
895.648	3439
895.769	3409
895.891	3443
896.012	3488
896.134	3507
896.255	3420
896.376	3397
896.498	3359
896.619	3428
896.74	3367
896.861	3412
896.982	3686
897.103	3869
897.224	3584
897.345	3526
897.466	3466
897.587	3496
897.708	3622
897.828	3553
897.949	3454
898.07	3313
898.19	3439
898.311	3610
898.431	3424
898.552	3564
898.672	3591
898.792	3618
898.913	3538
899.033	3409
899.153	3294
899.273	3249
899.393	3302
899.513	3321
899.633	3264
899.753	3332
899.873	3298
899.993	3351
900.113	3363
900.232	3401
900.352	3321
900.472	3256
900.591	3226
900.711	3287
900.83	3268
900.95	3412
901.069	3454
901.189	3359
901.308	3169
901.427	3173
901.546	3207
901.665	3294
901.784	3336
901.904	3180
902.023	3154
902.141	3020
902.26	2975
902.379	3161
902.498	3097
902.617	3089
902.735	3256
902.854	3260
902.973	3192
903.091	3097
903.21	3119
903.328	3150
903.446	3123
903.565	3093
903.683	3180
903.801	3146
903.919	3230
904.038	3275
904.156	3173
904.274	3279
904.392	3283
904.51	3306
904.627	3336
904.745	3416
904.863	3504
904.981	3275
905.098	3150
905.216	3260
905.334	3310
905.451	3348
905.569	3306
905.686	3405
905.803	3447
905.921	3310
906.038	3447
906.155	3302
906.272	3260
906.389	3344
906.506	3256
906.623	3230
906.74	3275
906.857	3192
906.974	3260
907.091	3488
907.208	3545
907.324	3485
907.441	3370
907.557	3253
907.674	3211
907.79	3184
907.907	3298
908.023	3382
908.139	3374
908.256	3374
908.372	3325
908.488	3382
908.604	3233
908.72	3211
908.836	3275
908.952	3249
909.068	3332
909.184	3485
909.3	3393
909.415	3496
909.531	3462
909.647	3260
909.762	3313
909.878	3264
909.993	3363
910.108	3348
910.224	3351
910.339	3363
910.454	3317
910.57	3302
910.685	3268
910.8	3614
910.915	3576
911.03	3454
911.145	3298
911.259	3283
911.374	3336
911.489	3203
911.604	3192
911.718	3123
911.833	3142
911.947	3070
912.062	2979
912.176	3184
912.291	3199
912.405	3165
912.519	3428
912.633	3496
912.748	3355
912.862	3264
912.976	3226
913.09	3062
913.204	3127
913.318	3214
913.431	3325
913.545	3313
913.659	3382
913.772	3313
913.886	3218
914	3169
914.113	3344
914.226	3431
914.34	3374
914.453	3226
914.566	3397
914.68	3291
914.793	3359
914.906	3135
915.019	3119
915.132	3055
915.245	3207
915.358	3207
915.47	3222
915.583	3260
915.696	3268
915.809	3386
915.921	3393
916.034	3264
916.146	3279
916.259	3268
916.371	3382
916.483	3340
916.595	3294
916.708	3325
916.82	3355
916.932	3336
917.044	3348
917.156	3348
917.268	3264
917.38	3272
917.491	3279
917.603	3348
917.715	3439
917.826	3462
917.938	3401
918.049	3294
918.161	3424
918.272	3587
918.384	3587
918.495	3485
918.606	3302
918.717	3249
918.828	3386
918.939	3405
919.05	3302
919.161	3405
919.272	3142
919.383	3275
919.494	3507
919.604	3736
919.715	3488
919.826	3382
919.936	3462
920.047	3595
920.157	3591
920.267	3789
920.378	3576
920.488	3534
920.598	3781
920.708	3953
920.818	3831
920.928	3800
921.038	4032
921.148	3975
921.258	3698
921.368	3637
921.477	3576
921.587	3534
921.697	3462
921.806	3614
921.916	3511
922.025	3355
922.134	3378
922.244	3287
922.353	3409
922.462	3253
922.571	3184
922.68	3119
922.789	3089
922.898	3135
923.007	3127
923.116	3230
923.224	3154
923.333	3214
923.442	3093
923.55	3062
923.659	3146
923.767	3222
923.876	3100
923.984	3230
924.092	3100
924.201	3199
924.309	3214
924.417	3207
924.525	3211
924.633	3207
924.741	4044
924.849	3017
924.956	3249
925.064	3074
925.172	3032
925.279	3085
925.387	3241
925.494	3222
925.602	3317
925.709	3336
925.816	3214
925.924	3260
926.031	3405
926.138	3306
926.245	3325
926.352	3249
926.459	3428
926.566	3447
926.673	3302
926.779	3237
926.886	3226
926.993	3142
927.099	3085
927.206	3104
927.312	3081
927.419	3226
927.525	3230
927.631	3291
927.737	3131
927.843	3112
927.95	2994
928.056	3157
928.162	3146
928.267	3214
928.373	3876
928.479	3332
928.585	3062
928.69	3214
928.796	3226
928.901	3188
929.007	3020
929.112	3180
929.218	3146
929.323	3150
929.428	3154
929.533	3260
929.638	3119
929.743	3142
929.848	3260
929.953	3195
930.058	3138
930.163	3005
930.267	3055
930.372	3192
930.477	3062
930.581	3329
930.685	3173
930.79	3074
930.894	3119
930.998	3104
931.103	3287
931.207	2971
931.311	2948
931.415	2880
931.519	2769
931.623	2845
