Data from test_V78500241_72.txt Node
Date: Fri Mar 25 16:15:42 CST 2022
User: usil
Spectrometer: V785-0024
Trigger mode: 0
Integration Time (sec): 4.000000E-1
Scans to average: 1
Nonlinearity correction enabled: false
Boxcar width: 0
Storing dark spectrum: false
XAxis mode: Wavelengths
Number of Pixels in Spectrum: 1024
>>>>>Begin Spectral Data<<<<<
801.071	2963
801.214	3005
801.356	2925
801.499	2975
801.641	2933
801.783	2941
801.926	3089
802.068	3055
802.211	3066
802.353	3112
802.496	3051
802.638	3017
802.78	3074
802.923	3123
803.065	3043
803.208	2925
803.35	3005
803.492	2998
803.635	2929
803.777	2781
803.919	2918
804.061	3230
804.204	3001
804.346	2933
804.488	2895
804.63	3020
804.773	2902
804.915	2956
805.057	3093
805.199	2982
805.341	3024
805.483	3123
805.626	3047
805.768	2986
805.91	3142
806.052	3138
806.194	3055
806.336	3268
806.478	3051
806.62	2979
806.762	2986
806.904	3093
807.046	3180
807.188	3005
807.33	2948
807.472	3001
807.614	2963
807.756	3028
807.898	2979
808.04	2906
808.182	3017
808.324	3001
808.465	2941
808.607	2918
808.749	2842
808.891	2895
809.033	2998
809.174	2967
809.316	2918
809.458	2910
809.6	2800
809.741	2807
809.883	2785
810.025	2868
810.166	2891
810.308	2891
810.45	2876
810.591	2807
810.733	2819
810.875	2864
811.016	2838
811.158	2788
811.299	2857
811.441	2944
811.582	2956
811.724	2883
811.865	2872
812.007	2952
812.148	2910
812.29	2895
812.431	2922
812.573	2979
812.714	3024
812.855	3043
812.997	3062
813.138	3180
813.279	3085
813.421	3005
813.562	3020
813.703	2887
813.845	2933
813.986	2773
814.127	2777
814.268	2845
814.41	2864
814.551	2853
814.692	2910
814.833	2857
814.974	2937
815.115	2986
815.256	2853
815.397	2868
815.539	2887
815.68	2830
815.821	2842
815.962	2979
816.103	2948
816.244	2914
816.385	2914
816.526	2998
816.666	2944
816.807	2758
816.948	2906
817.089	2956
817.23	2880
817.371	2796
817.512	2838
817.653	2914
817.793	2864
817.934	2895
818.075	3009
818.216	3020
818.356	3043
818.497	2910
818.638	2830
818.778	2876
818.919	2823
819.06	2792
819.2	2853
819.341	2842
819.481	2830
819.622	2952
819.762	3127
819.903	3074
820.043	2933
820.184	2918
820.324	2941
820.465	3043
820.605	3020
820.746	3058
820.886	2956
821.026	3142
821.167	3218
821.307	3317
821.447	3306
821.588	3291
821.728	3226
821.868	3218
822.008	3089
822.149	3233
822.289	3260
822.429	3127
822.569	3142
822.709	3218
822.849	3062
822.99	3097
823.13	3211
823.27	3199
823.41	3119
823.55	3199
823.69	3222
823.83	3211
823.97	3138
824.11	3043
824.25	3036
824.389	3097
824.529	3127
824.669	3100
824.809	3253
824.949	3302
825.089	3272
825.228	3214
825.368	3055
825.508	2998
825.648	3020
825.787	3051
825.927	3058
826.067	2982
826.206	2982
826.346	3097
826.485	3100
826.625	3157
826.765	3310
826.904	3226
827.044	3036
827.183	2952
827.323	2902
827.462	3017
827.601	2944
827.741	2933
827.88	2994
828.02	2887
828.159	3005
828.298	3058
828.437	3169
828.577	3017
828.716	3260
828.855	3146
828.994	2963
829.134	2922
829.273	2956
829.412	2937
829.551	2872
829.69	2925
829.829	3013
829.968	3184
830.107	3070
830.246	3047
830.385	2952
830.524	2914
830.663	2864
830.802	2735
830.941	2678
831.08	2686
831.219	2796
831.357	2811
831.496	2975
831.635	2750
831.774	2655
831.913	2701
832.051	2564
832.19	2632
832.329	2697
832.467	2564
832.606	2511
832.744	2617
832.883	2575
833.022	2621
833.16	2670
833.299	2712
833.437	2754
833.576	2708
833.714	2766
833.852	2785
833.991	2823
834.129	2868
834.267	2830
834.406	2830
834.544	2902
834.682	2925
834.821	2918
834.959	3093
835.097	2960
835.235	3039
835.373	3047
835.511	3039
835.65	2941
835.788	2994
835.926	2864
836.064	2857
836.202	2864
836.34	3127
836.478	3218
836.615	3070
836.753	3161
836.891	3218
837.029	3192
837.167	3138
837.305	3100
837.443	3093
837.58	3032
837.718	3192
837.856	3081
837.993	3058
838.131	3165
838.269	3161
838.406	3093
838.544	3123
838.681	3013
838.819	2941
838.956	2838
839.094	2845
839.231	2960
839.369	3036
839.506	3416
839.643	3275
839.781	3051
839.918	2994
840.055	3070
840.193	3077
840.33	3081
840.467	3123
840.604	3173
840.742	3435
840.879	3100
841.016	3093
841.153	3150
841.29	3367
841.427	3298
841.564	3306
841.701	3306
841.838	3268
841.975	3157
842.112	3306
842.249	3176
842.385	3047
842.522	3302
842.659	3116
842.796	3058
842.933	3116
843.069	3062
843.206	3100
843.343	3207
843.479	3146
843.616	3211
843.752	2914
843.889	2929
844.025	3157
844.162	2872
844.298	3066
844.435	3001
844.571	2944
844.708	3131
844.844	3214
844.98	3260
845.117	3268
845.253	3077
845.389	3047
845.525	3123
845.661	3112
845.798	3051
845.934	3146
846.07	3085
846.206	3256
846.342	3340
846.478	3253
846.614	3123
846.75	3066
846.886	3066
847.022	3344
847.158	3161
847.294	3230
847.429	3298
847.565	3241
847.701	3545
847.837	3043
847.972	3047
848.108	3195
848.244	3184
848.379	3024
848.515	2982
848.65	2944
848.786	2990
848.921	3051
849.057	3165
849.192	3230
849.328	3074
849.463	3127
849.598	3112
849.734	3070
849.869	3051
850.004	2895
850.14	2986
850.275	2952
850.41	2880
850.545	2895
850.68	2963
850.815	2986
850.95	3032
851.085	3226
851.22	3146
851.355	3039
851.49	3017
851.625	3047
851.76	3055
851.895	2971
852.03	2960
852.165	3077
852.299	3108
852.434	3214
852.569	3135
852.703	3173
852.838	3253
852.973	3370
853.107	3332
853.242	3154
853.376	3131
853.511	3013
853.645	3066
853.78	3283
853.914	3119
854.048	3142
854.183	3161
854.317	3188
854.451	3325
854.585	3135
854.72	3135
854.854	3226
854.988	3081
855.122	3085
855.256	2975
855.39	3138
855.524	3287
855.658	3203
855.792	3207
855.926	3203
856.06	3245
856.194	3291
856.327	3173
856.461	3123
856.595	3131
856.729	3089
856.862	3226
856.996	3176
857.13	3283
857.263	3264
857.397	3325
857.53	3146
857.664	3214
857.797	3264
857.931	3287
858.064	3188
858.197	3287
858.331	3154
858.464	3108
858.597	3028
858.731	3135
858.864	3142
858.997	3112
859.13	3169
859.263	3230
859.396	3203
859.529	3116
859.662	3108
859.795	3085
859.928	3138
860.061	3313
860.194	3294
860.327	3123
860.46	3131
860.592	3275
860.725	3310
860.858	3291
860.99	3131
861.123	3089
861.256	3055
861.388	3192
861.521	3751
861.653	3028
861.786	3020
861.918	3036
862.05	3047
862.183	3123
862.315	3173
862.447	3264
862.58	3104
862.712	2960
862.844	2902
862.976	3074
863.108	3017
863.24	3351
863.372	2861
863.504	3009
863.636	2998
863.768	3070
863.9	3009
864.032	2914
864.164	2967
864.296	3058
864.428	3097
864.559	3157
864.691	3081
864.823	3081
864.954	3062
865.086	3070
865.217	3043
865.349	3017
865.48	3028
865.612	3051
865.743	3157
865.875	2994
866.006	2967
866.137	2994
866.269	2979
866.4	2952
866.531	2910
866.662	2910
866.793	2948
866.924	2906
867.055	2994
867.186	2971
867.317	2925
867.448	2868
867.579	2914
867.71	2876
867.841	2845
867.972	2948
868.103	2933
868.233	2922
868.364	2899
868.495	2944
868.625	3081
868.756	3157
868.886	2986
869.017	3077
869.147	3199
869.278	3241
869.408	3089
869.539	3043
869.669	3135
869.799	3074
869.929	3176
870.06	3116
870.19	3367
870.32	3291
870.45	3374
870.58	3424
870.71	3492
870.84	3488
870.97	3344
871.1	3245
871.23	3492
871.36	3523
871.489	3378
871.619	3431
871.749	3454
871.879	3454
872.008	3542
872.138	3378
872.267	3302
872.397	3199
872.526	3112
872.656	3024
872.785	3123
872.915	3237
873.044	3344
873.173	3230
873.303	3287
873.432	3264
873.561	3279
873.69	3203
873.819	3222
873.948	3233
874.077	3112
874.206	3097
874.335	3119
874.464	3218
874.593	3389
874.722	3230
874.851	3435
874.979	3401
875.108	3378
875.237	3256
875.365	3184
875.494	3195
875.623	3302
875.751	3108
875.88	3161
876.008	3233
876.136	3241
876.265	3340
876.393	3526
876.521	3466
876.65	3424
876.778	3374
876.906	3260
877.034	3237
877.162	3272
877.29	3184
877.418	3275
877.546	3313
877.674	3268
877.802	3222
877.93	3291
878.058	3192
878.185	3127
878.313	3230
878.441	3268
878.568	3062
878.696	3241
878.824	3291
878.951	3332
879.079	3477
879.206	3648
879.333	3488
879.461	3363
879.588	3428
879.715	3511
879.842	3637
879.97	3431
880.097	3214
880.224	3150
880.351	3230
880.478	3256
880.605	3226
880.732	3199
880.859	3519
880.986	3321
881.112	3397
881.239	3253
881.366	3138
881.493	3081
881.619	3055
881.746	3093
881.872	3138
881.999	3138
882.125	3188
882.252	3268
882.378	3306
882.505	3428
882.631	3310
882.757	3173
882.883	3260
883.01	3230
883.136	3203
883.262	3127
883.388	3138
883.514	3405
883.64	3363
883.766	3336
883.892	3218
884.018	3260
884.143	3492
884.269	3572
884.395	3249
884.52	3230
884.646	3233
884.772	3127
884.897	3138
885.023	3218
885.148	3374
885.274	3462
885.399	3378
885.524	3332
885.65	3306
885.775	3359
885.9	3310
886.025	3458
886.15	3389
886.275	3325
886.4	3260
886.525	3325
886.65	3313
886.775	3287
886.9	3473
887.025	3682
887.149	3454
887.274	3321
887.399	3260
887.523	3207
887.648	3222
887.773	3211
887.897	3409
888.021	3439
888.146	3355
888.27	3454
888.395	3584
888.519	3443
888.643	3511
888.767	3530
888.891	3344
889.015	3256
889.139	3336
889.263	3283
889.387	3443
889.511	3530
889.635	3435
889.759	3348
889.883	3321
890.006	3420
890.13	3492
890.254	3283
890.377	3363
890.501	3226
890.624	3207
890.748	3355
890.871	3154
890.995	3138
891.118	3081
891.241	3222
891.364	3264
891.488	3348
891.611	3237
891.734	3218
891.857	3306
891.98	3249
892.103	3386
892.226	3294
892.349	3237
892.471	3146
892.594	3279
892.717	3351
892.839	3332
892.962	3325
893.085	3409
893.207	3325
893.33	3192
893.452	3291
893.575	3340
893.697	3253
893.819	3496
893.941	3553
894.064	3492
894.186	3283
894.308	3283
894.43	3488
894.552	3534
894.674	3492
894.796	3283
894.918	3344
895.04	3317
895.161	3481
895.283	3405
895.405	3336
895.526	3378
895.648	3458
895.769	3420
895.891	3485
896.012	3504
896.134	3515
896.255	3473
896.376	3450
896.498	3370
896.619	3488
896.74	3397
896.861	3458
896.982	3732
897.103	3884
897.224	3641
897.345	3515
897.466	3519
897.587	3568
897.708	3644
897.828	3591
897.949	3466
898.07	3355
898.19	3450
898.311	3614
898.431	3485
898.552	3545
898.672	3637
898.792	3610
898.913	3603
899.033	3428
899.153	3355
899.273	3222
899.393	3344
899.513	3344
899.633	3348
899.753	3370
899.873	3321
899.993	3424
900.113	3401
900.232	3386
900.352	3374
900.472	3329
900.591	3237
900.711	3313
900.83	3272
900.95	3450
901.069	3542
901.189	3374
901.308	3195
901.427	3192
901.546	3233
901.665	3279
901.784	3389
901.904	3256
902.023	3188
902.141	3017
902.26	3055
902.379	3188
902.498	3085
902.617	3074
902.735	3207
902.854	3260
902.973	3226
903.091	3100
903.21	3070
903.328	3157
903.446	3154
903.565	3135
903.683	3230
903.801	3123
903.919	3264
904.038	3344
904.156	3165
904.274	3317
904.392	3291
904.51	3306
904.627	3340
904.745	3462
904.863	3553
904.981	3260
905.098	3218
905.216	3256
905.334	3389
905.451	3340
905.569	3340
905.686	3481
905.803	3485
905.921	3294
906.038	3485
906.155	3363
906.272	3344
906.389	3355
906.506	3287
906.623	3253
906.74	3306
906.857	3214
906.974	3275
907.091	3450
907.208	3644
907.324	3526
907.441	3473
907.557	3268
907.674	3287
907.79	3249
907.907	3332
908.023	3405
908.139	3405
908.256	3386
908.372	3416
908.488	3363
908.604	3279
908.72	3275
908.836	3310
908.952	3313
909.068	3389
909.184	3519
909.3	3428
909.415	3523
909.531	3477
909.647	3336
909.762	3321
909.878	3306
909.993	3416
910.108	3389
910.224	3367
910.339	3462
910.454	3344
910.57	3298
910.685	3291
910.8	3614
910.915	3599
911.03	3431
911.145	3359
911.259	3291
911.374	3355
911.489	3294
911.604	3256
911.718	3176
911.833	3169
911.947	3081
912.062	3013
912.176	3199
912.291	3192
912.405	3218
912.519	3450
912.633	3488
912.748	3351
912.862	3306
912.976	3222
913.09	3116
913.204	3184
913.318	3260
913.431	3359
913.545	3329
913.659	3424
913.772	3348
913.886	3313
914	3249
914.113	3382
914.226	3424
914.34	3370
914.453	3237
914.566	3454
914.68	3336
914.793	3332
914.906	3226
915.019	3154
915.132	3123
915.245	3157
915.358	3199
915.47	3275
915.583	3332
915.696	3329
915.809	3443
915.921	3488
916.034	3291
916.146	3283
916.259	3218
916.371	3447
916.483	3401
916.595	3283
916.708	3359
916.82	3428
916.932	3378
917.044	3344
917.156	3401
917.268	3287
917.38	3351
917.491	3291
917.603	3409
917.715	3443
917.826	3477
917.938	3386
918.049	3351
918.161	3435
918.272	3618
918.384	3618
918.495	3572
918.606	3355
918.717	3306
918.828	3420
918.939	3435
919.05	3359
919.161	3405
919.272	3203
919.383	3291
919.494	3507
919.604	3694
919.715	3511
919.826	3428
919.936	3458
920.047	3641
920.157	3587
920.267	3823
920.378	3644
920.488	3622
920.598	3755
920.708	4044
920.818	3896
920.928	3865
921.038	4071
921.148	4055
921.258	3747
921.368	3663
921.477	3587
921.587	3584
921.697	3466
921.806	3682
921.916	3526
922.025	3359
922.134	3397
922.244	3351
922.353	3447
922.462	3313
922.571	3306
922.68	3112
922.789	3116
922.898	3176
923.007	3154
923.116	3222
923.224	3214
923.333	3249
923.442	3138
923.55	3123
923.659	3192
923.767	3245
923.876	3173
923.984	3245
924.092	3138
924.201	3226
924.309	3253
924.417	3321
924.525	3207
924.633	3264
924.741	4253
924.849	3039
924.956	3256
925.064	3131
925.172	3051
925.279	3138
925.387	3268
925.494	3245
925.602	3374
925.709	3386
925.816	3222
925.924	3298
926.031	3458
926.138	3416
926.245	3412
926.352	3279
926.459	3469
926.566	3549
926.673	3359
926.779	3264
926.886	3272
926.993	3169
927.099	3173
927.206	3157
927.312	3169
927.419	3237
927.525	3237
927.631	3302
927.737	3173
927.843	3150
927.95	3055
928.056	3146
928.162	3184
928.267	3272
928.373	3781
928.479	3340
928.585	3108
928.69	3233
928.796	3287
928.901	3176
929.007	3066
929.112	3165
929.218	3199
929.323	3203
929.428	3173
929.533	3389
929.638	3146
929.743	3192
929.848	3291
929.953	3207
930.058	3207
930.163	3020
930.267	3062
930.372	3233
930.477	3055
930.581	3363
930.685	3203
930.79	3112
930.894	3184
930.998	3150
931.103	3241
931.207	3020
931.311	2986
931.415	2975
931.519	2826
931.623	2849
