Data from test_V78500241_840.txt Node
Date: Fri Mar 25 16:21:01 CST 2022
User: usil
Spectrometer: V785-0024
Trigger mode: 0
Integration Time (sec): 4.000000E-1
Scans to average: 1
Nonlinearity correction enabled: false
Boxcar width: 0
Storing dark spectrum: false
XAxis mode: Wavelengths
Number of Pixels in Spectrum: 1024
>>>>>Begin Spectral Data<<<<<
801.071	2937
801.214	2941
801.356	2868
801.499	2887
801.641	2902
801.783	2941
801.926	3058
802.068	3005
802.211	3009
802.353	3039
802.496	2944
802.638	3043
802.78	3051
802.923	3116
803.065	3005
803.208	2918
803.35	2910
803.492	2967
803.635	2929
803.777	2781
803.919	2880
804.061	3192
804.204	2971
804.346	2883
804.488	2842
804.63	2990
804.773	2880
804.915	2902
805.057	3070
805.199	2891
805.341	2952
805.483	3024
805.626	2979
805.768	2929
805.91	3077
806.052	3131
806.194	3013
806.336	3233
806.478	3043
806.62	2944
806.762	2963
806.904	3058
807.046	3192
807.188	2990
807.33	2922
807.472	3005
807.614	2922
807.756	3009
807.898	2941
808.04	2925
808.182	2990
808.324	2948
808.465	2883
808.607	2883
808.749	2815
808.891	2845
809.033	2994
809.174	2952
809.316	2906
809.458	2895
809.6	2781
809.741	2773
809.883	2769
810.025	2838
810.166	2845
810.308	2838
810.45	2853
810.591	2739
810.733	2781
810.875	2819
811.016	2785
811.158	2781
811.299	2788
811.441	2963
811.582	2910
811.724	2807
811.865	2857
812.007	2899
812.148	2861
812.29	2857
812.431	2937
812.573	2956
812.714	2960
812.855	3024
812.997	3047
813.138	3127
813.279	3005
813.421	2944
813.562	2967
813.703	2868
813.845	2902
813.986	2766
814.127	2731
814.268	2826
814.41	2849
814.551	2792
814.692	2868
814.833	2823
814.974	2914
815.115	2960
815.256	2842
815.397	2845
815.539	2868
815.68	2773
815.821	2792
815.962	2941
816.103	2922
816.244	2899
816.385	2857
816.526	2971
816.666	2941
816.807	2766
816.948	2853
817.089	2899
817.23	2891
817.371	2773
817.512	2762
817.653	2834
817.793	2819
817.934	2880
818.075	2963
818.216	2982
818.356	3047
818.497	2895
818.638	2845
818.778	2838
818.919	2792
819.06	2758
819.2	2887
819.341	2826
819.481	2773
819.622	2937
819.762	3116
819.903	3028
820.043	2937
820.184	2895
820.324	2906
820.465	2979
820.605	3043
820.746	3009
820.886	2937
821.026	3089
821.167	3142
821.307	3256
821.447	3272
821.588	3260
821.728	3233
821.868	3214
822.008	3097
822.149	3188
822.289	3233
822.429	3135
822.569	3077
822.709	3154
822.849	3009
822.99	3081
823.13	3176
823.27	3176
823.41	3077
823.55	3131
823.69	3165
823.83	3203
823.97	3036
824.11	3013
824.25	3001
824.389	3055
824.529	3112
824.669	3066
824.809	3184
824.949	3230
825.089	3214
825.228	3165
825.368	2982
825.508	2994
825.648	2933
825.787	3013
825.927	2994
826.067	3001
826.206	2956
826.346	3028
826.485	3070
826.625	3085
826.765	3256
826.904	3203
827.044	3036
827.183	2952
827.323	2872
827.462	2979
827.601	2922
827.741	2937
827.88	2998
828.02	2842
828.159	2960
828.298	3036
828.437	3081
828.577	3051
828.716	3241
828.855	3074
828.994	2960
829.134	2887
829.273	2906
829.412	2887
829.551	2883
829.69	2857
829.829	2967
829.968	3097
830.107	2982
830.246	3017
830.385	2902
830.524	2902
830.663	2849
830.802	2708
830.941	2632
831.08	2629
831.219	2766
831.357	2769
831.496	2956
831.635	2739
831.774	2651
831.913	2636
832.051	2560
832.19	2571
832.329	2678
832.467	2545
832.606	2514
832.744	2575
832.883	2606
833.022	2556
833.16	2629
833.299	2678
833.437	2716
833.576	2697
833.714	2739
833.852	2708
833.991	2731
834.129	2826
834.267	2804
834.406	2766
834.544	2845
834.682	2891
834.821	2842
834.959	3036
835.097	2880
835.235	3051
835.373	3009
835.511	2979
835.65	2960
835.788	2979
835.926	2819
836.064	2834
836.202	2864
836.34	3093
836.478	3173
836.615	3051
836.753	3119
836.891	3184
837.029	3195
837.167	3119
837.305	3051
837.443	3074
837.58	2975
837.718	3131
837.856	3066
837.993	3058
838.131	3089
838.269	3077
838.406	3074
838.544	3074
838.681	2956
838.819	2902
838.956	2811
839.094	2849
839.231	2925
839.369	3013
839.506	3378
839.643	3207
839.781	3020
839.918	2960
840.055	3055
840.193	3043
840.33	3081
840.467	3093
840.604	3154
840.742	3389
840.879	3081
841.016	3043
841.153	3108
841.29	3298
841.427	3264
841.564	3260
841.701	3344
841.838	3241
841.975	3173
842.112	3233
842.249	3074
842.385	3005
842.522	3237
842.659	3116
842.796	3058
842.933	3123
843.069	3043
843.206	3051
843.343	3199
843.479	3077
843.616	3116
843.752	2918
843.889	2887
844.025	3066
844.162	2876
844.298	3104
844.435	2963
844.571	2914
844.708	3074
844.844	3207
844.98	3214
845.117	3184
845.253	3043
845.389	3055
845.525	3085
845.661	3074
845.798	3005
845.934	3066
846.07	3097
846.206	3226
846.342	3306
846.478	3272
846.614	3066
846.75	3062
846.886	3043
847.022	3226
847.158	3161
847.294	3195
847.429	3230
847.565	3199
847.701	3492
847.837	3036
847.972	2967
848.108	3123
848.244	3146
848.379	2944
848.515	2922
848.65	2895
848.786	2963
848.921	3020
849.057	3142
849.192	3108
849.328	3055
849.463	3093
849.598	3062
849.734	3047
849.869	2944
850.004	2887
850.14	2982
850.275	2922
850.41	2826
850.545	2891
850.68	2933
850.815	2994
850.95	2975
851.085	3176
851.22	3085
851.355	3017
851.49	2956
851.625	3020
851.76	3009
851.895	2918
852.03	2906
852.165	2979
852.299	3116
852.434	3192
852.569	3104
852.703	3173
852.838	3260
852.973	3336
853.107	3306
853.242	3108
853.376	3070
853.511	2952
853.645	3036
853.78	3226
853.914	3116
854.048	3127
854.183	3089
854.317	3150
854.451	3268
854.585	3104
854.72	3070
854.854	3218
854.988	3074
855.122	3058
855.256	2929
855.39	3104
855.524	3195
855.658	3180
855.792	3176
855.926	3195
856.06	3230
856.194	3268
856.327	3127
856.461	3077
856.595	3055
856.729	3104
856.862	3233
856.996	3135
857.13	3180
857.263	3256
857.397	3245
857.53	3123
857.664	3184
857.797	3241
857.931	3218
858.064	3108
858.197	3218
858.331	3089
858.464	3097
858.597	3032
858.731	3135
858.864	3074
858.997	3100
859.13	3154
859.263	3173
859.396	3207
859.529	3070
859.662	3047
859.795	3043
859.928	3150
860.061	3264
860.194	3253
860.327	3123
860.46	3104
860.592	3203
860.725	3207
860.858	3275
860.99	3116
861.123	3043
861.256	3039
861.388	3116
861.521	3884
861.653	3028
861.786	2963
861.918	3001
862.05	3039
862.183	3070
862.315	3127
862.447	3188
862.58	3135
862.712	2941
862.844	2872
862.976	3020
863.108	2944
863.24	3287
863.372	2895
863.504	2933
863.636	2922
863.768	3020
863.9	2967
864.032	2918
864.164	2925
864.296	3020
864.428	3108
864.559	3119
864.691	3074
864.823	3070
864.954	2998
865.086	3024
865.217	3013
865.349	2952
865.48	2979
865.612	3013
865.743	3195
865.875	2967
866.006	2914
866.137	2944
866.269	2971
866.4	2941
866.531	2952
866.662	2842
866.793	2899
866.924	2864
867.055	2982
867.186	2914
867.317	2849
867.448	2826
867.579	2849
867.71	2861
867.841	2804
867.972	2933
868.103	2906
868.233	2861
868.364	2853
868.495	2899
868.625	3066
868.756	3161
868.886	2982
869.017	3032
869.147	3135
869.278	3157
869.408	3070
869.539	2982
869.669	3047
869.799	3009
869.929	3138
870.06	3097
870.19	3359
870.32	3268
870.45	3325
870.58	3370
870.71	3409
870.84	3431
870.97	3279
871.1	3211
871.23	3500
871.36	3462
871.489	3355
871.619	3382
871.749	3424
871.879	3424
872.008	3488
872.138	3348
872.267	3245
872.397	3112
872.526	3127
872.656	2975
872.785	3081
872.915	3256
873.044	3302
873.173	3154
873.303	3245
873.432	3253
873.561	3268
873.69	3165
873.819	3104
873.948	3157
874.077	3093
874.206	3036
874.335	3089
874.464	3192
874.593	3382
874.722	3249
874.851	3355
874.979	3351
875.108	3306
875.237	3195
875.365	3157
875.494	3161
875.623	3211
875.751	3058
875.88	3127
876.008	3161
876.136	3245
876.265	3367
876.393	3504
876.521	3412
876.65	3386
876.778	3351
876.906	3253
877.034	3154
877.162	3245
877.29	3127
877.418	3260
877.546	3264
877.674	3245
877.802	3199
877.93	3192
878.058	3161
878.185	3108
878.313	3207
878.441	3203
878.568	3116
878.696	3123
878.824	3260
878.951	3306
879.079	3458
879.206	3610
879.333	3466
879.461	3294
879.588	3351
879.715	3488
879.842	3576
879.97	3355
880.097	3165
880.224	3108
880.351	3222
880.478	3214
880.605	3184
880.732	3176
880.859	3519
880.986	3294
881.112	3302
881.239	3207
881.366	3089
881.493	3024
881.619	3020
881.746	3081
881.872	3074
881.999	3081
882.125	3150
882.252	3249
882.378	3283
882.505	3424
882.631	3302
882.757	3184
882.883	3192
883.01	3203
883.136	3154
883.262	3055
883.388	3116
883.514	3329
883.64	3378
883.766	3272
883.892	3195
884.018	3249
884.143	3409
884.269	3477
884.395	3173
884.52	3161
884.646	3211
884.772	3161
884.897	3116
885.023	3245
885.148	3287
885.274	3431
885.399	3332
885.524	3287
885.65	3253
885.775	3321
885.9	3294
886.025	3439
886.15	3348
886.275	3302
886.4	3188
886.525	3279
886.65	3237
886.775	3241
886.9	3477
887.025	3648
887.149	3454
887.274	3233
887.399	3184
887.523	3207
887.648	3195
887.773	3180
887.897	3363
888.021	3405
888.146	3329
888.27	3462
888.395	3534
888.519	3454
888.643	3435
888.767	3454
888.891	3321
889.015	3249
889.139	3275
889.263	3222
889.387	3393
889.511	3477
889.635	3458
889.759	3279
889.883	3302
890.006	3405
890.13	3500
890.254	3275
890.377	3340
890.501	3169
890.624	3165
890.748	3329
890.871	3188
890.995	3081
891.118	3077
891.241	3192
891.364	3222
891.488	3310
891.611	3169
891.734	3214
891.857	3233
891.98	3230
892.103	3351
892.226	3268
892.349	3207
892.471	3112
892.594	3241
892.717	3291
892.839	3279
892.962	3287
893.085	3355
893.207	3272
893.33	3169
893.452	3203
893.575	3336
893.697	3253
893.819	3469
893.941	3466
894.064	3424
894.186	3264
894.308	3253
894.43	3439
894.552	3553
894.674	3511
894.796	3256
894.918	3287
895.04	3275
895.161	3412
895.283	3374
895.405	3317
895.526	3348
895.648	3435
895.769	3397
895.891	3424
896.012	3488
896.134	3473
896.255	3447
896.376	3374
896.498	3359
896.619	3424
896.74	3344
896.861	3416
896.982	3679
897.103	3827
897.224	3610
897.345	3545
897.466	3424
897.587	3485
897.708	3587
897.828	3530
897.949	3431
898.07	3348
898.19	3382
898.311	3637
898.431	3454
898.552	3458
898.672	3584
898.792	3572
898.913	3507
899.033	3370
899.153	3272
899.273	3184
899.393	3291
899.513	3310
899.633	3351
899.753	3332
899.873	3268
899.993	3401
900.113	3325
900.232	3389
900.352	3321
900.472	3264
900.591	3214
900.711	3291
900.83	3211
900.95	3424
901.069	3458
901.189	3336
901.308	3173
901.427	3135
901.546	3214
901.665	3310
901.784	3329
901.904	3188
902.023	3131
902.141	3020
902.26	3005
902.379	3154
902.498	3051
902.617	3066
902.735	3203
902.854	3233
902.973	3165
903.091	3081
903.21	3058
903.328	3157
903.446	3074
903.565	3051
903.683	3188
903.801	3108
903.919	3199
904.038	3313
904.156	3150
904.274	3298
904.392	3253
904.51	3294
904.627	3310
904.745	3443
904.863	3500
904.981	3264
905.098	3180
905.216	3287
905.334	3279
905.451	3298
905.569	3268
905.686	3416
905.803	3481
905.921	3294
906.038	3473
906.155	3340
906.272	3211
906.389	3340
906.506	3207
906.623	3260
906.74	3256
906.857	3180
906.974	3268
907.091	3439
907.208	3545
907.324	3469
907.441	3389
907.557	3211
907.674	3211
907.79	3241
907.907	3264
908.023	3351
908.139	3355
908.256	3332
908.372	3378
908.488	3340
908.604	3302
908.72	3256
908.836	3245
908.952	3298
909.068	3283
909.184	3450
909.3	3382
909.415	3488
909.531	3515
909.647	3260
909.762	3279
909.878	3268
909.993	3332
910.108	3329
910.224	3355
910.339	3405
910.454	3317
910.57	3264
910.685	3253
910.8	3564
910.915	3504
911.03	3420
911.145	3180
911.259	3256
911.374	3310
911.489	3245
911.604	3211
911.718	3116
911.833	3142
911.947	3047
912.062	2979
912.176	3135
912.291	3253
912.405	3203
912.519	3416
912.633	3447
912.748	3344
912.862	3264
912.976	3180
913.09	3066
913.204	3108
913.318	3199
913.431	3344
913.545	3264
913.659	3401
913.772	3336
913.886	3184
914	3214
914.113	3313
914.226	3367
914.34	3389
914.453	3207
914.566	3405
914.68	3279
914.793	3283
914.906	3112
915.019	3127
915.132	3058
915.245	3146
915.358	3222
915.47	3260
915.583	3260
915.696	3321
915.809	3424
915.921	3393
916.034	3260
916.146	3241
916.259	3188
916.371	3389
916.483	3370
916.595	3283
916.708	3325
916.82	3355
916.932	3359
917.044	3348
917.156	3332
917.268	3260
917.38	3321
917.491	3287
917.603	3351
917.715	3481
917.826	3409
917.938	3378
918.049	3275
918.161	3443
918.272	3557
918.384	3557
918.495	3507
918.606	3348
918.717	3279
918.828	3401
918.939	3435
919.05	3294
919.161	3363
919.272	3188
919.383	3275
919.494	3485
919.604	3648
919.715	3511
919.826	3439
919.936	3469
920.047	3591
920.157	3545
920.267	3770
920.378	3603
920.488	3561
920.598	3766
920.708	3941
920.818	3785
920.928	3850
921.038	4013
921.148	3972
921.258	3694
921.368	3622
921.477	3610
921.587	3568
921.697	3466
921.806	3663
921.916	3511
922.025	3329
922.134	3313
922.244	3340
922.353	3424
922.462	3237
922.571	3249
922.68	3119
922.789	3077
922.898	3135
923.007	3097
923.116	3188
923.224	3192
923.333	3154
923.442	3127
923.55	3051
923.659	3173
923.767	3180
923.876	3135
923.984	3260
924.092	3119
924.201	3199
924.309	3222
924.417	3237
924.525	3192
924.633	3264
924.741	4006
924.849	3036
924.956	3283
925.064	3093
925.172	3047
925.279	3119
925.387	3211
925.494	3192
925.602	3367
925.709	3351
925.816	3199
925.924	3294
926.031	3370
926.138	3405
926.245	3332
926.352	3245
926.459	3428
926.566	3477
926.673	3336
926.779	3245
926.886	3256
926.993	3127
927.099	3104
927.206	3123
927.312	3093
927.419	3237
927.525	3214
927.631	3249
927.737	3116
927.843	3112
927.95	2998
928.056	3135
928.162	3142
928.267	3233
928.373	3770
928.479	3313
928.585	3081
928.69	3169
928.796	3237
928.901	3157
929.007	3036
929.112	3218
929.218	3173
929.323	3127
929.428	3127
929.533	3294
929.638	3100
929.743	3180
929.848	3256
929.953	3226
930.058	3150
930.163	3013
930.267	3001
930.372	3180
930.477	3028
930.581	3340
930.685	3154
930.79	3043
930.894	3142
930.998	3070
931.103	3268
931.207	3001
931.311	2933
931.415	2929
931.519	2781
931.623	2845
