Data from test_V78500241_1675.txt Node
Date: Fri Mar 25 16:26:48 CST 2022
User: usil
Spectrometer: V785-0024
Trigger mode: 0
Integration Time (sec): 4.000000E-1
Scans to average: 1
Nonlinearity correction enabled: false
Boxcar width: 0
Storing dark spectrum: false
XAxis mode: Wavelengths
Number of Pixels in Spectrum: 1024
>>>>>Begin Spectral Data<<<<<
801.071	2902
801.214	2929
801.356	2887
801.499	2906
801.641	2861
801.783	2948
801.926	3024
802.068	2986
802.211	2960
802.353	3017
802.496	2960
802.638	3013
802.78	2994
802.923	3116
803.065	2956
803.208	2899
803.35	2910
803.492	2967
803.635	2937
803.777	2743
803.919	2872
804.061	3192
804.204	2967
804.346	2899
804.488	2834
804.63	2948
804.773	2842
804.915	2891
805.057	3036
805.199	2895
805.341	2994
805.483	3039
805.626	3017
805.768	2975
805.91	3070
806.052	3089
806.194	3039
806.336	3230
806.478	2990
806.62	2944
806.762	2971
806.904	3062
807.046	3176
807.188	2975
807.33	2876
807.472	2948
807.614	2895
807.756	3055
807.898	2887
808.04	2891
808.182	2979
808.324	2933
808.465	2887
808.607	2861
808.749	2811
808.891	2845
809.033	2944
809.174	2982
809.316	2872
809.458	2910
809.6	2777
809.741	2758
809.883	2762
810.025	2823
810.166	2819
810.308	2857
810.45	2834
810.591	2766
810.733	2766
810.875	2849
811.016	2845
811.158	2716
811.299	2811
811.441	2937
811.582	2906
811.724	2845
811.865	2815
812.007	2857
812.148	2868
812.29	2804
812.431	2883
812.573	2956
812.714	2925
812.855	3001
812.997	3024
813.138	3131
813.279	3017
813.421	2960
813.562	2948
813.703	2861
813.845	2887
813.986	2781
814.127	2750
814.268	2804
814.41	2842
814.551	2788
814.692	2899
814.833	2838
814.974	2887
815.115	2967
815.256	2868
815.397	2785
815.539	2872
815.68	2796
815.821	2766
815.962	2910
816.103	2922
816.244	2864
816.385	2845
816.526	2971
816.666	2883
816.807	2739
816.948	2906
817.089	2902
817.23	2872
817.371	2777
817.512	2796
817.653	2876
817.793	2819
817.934	2864
818.075	2925
818.216	2990
818.356	3028
818.497	2845
818.638	2769
818.778	2815
818.919	2781
819.06	2781
819.2	2891
819.341	2819
819.481	2777
819.622	2925
819.762	3089
819.903	3028
820.043	2941
820.184	2899
820.324	2872
820.465	3028
820.605	3001
820.746	3009
820.886	2922
821.026	3097
821.167	3161
821.307	3264
821.447	3294
821.588	3214
821.728	3211
821.868	3203
822.008	3112
822.149	3161
822.289	3245
822.429	3100
822.569	3089
822.709	3176
822.849	3028
822.99	3058
823.13	3127
823.27	3173
823.41	3123
823.55	3173
823.69	3199
823.83	3207
823.97	3119
824.11	2998
824.25	2979
824.389	3070
824.529	3104
824.669	3074
824.809	3192
824.949	3222
825.089	3211
825.228	3150
825.368	2998
825.508	2937
825.648	2963
825.787	3005
825.927	3009
826.067	2982
826.206	2933
826.346	3047
826.485	3097
826.625	3097
826.765	3211
826.904	3226
827.044	2975
827.183	2937
827.323	2834
827.462	2960
827.601	2922
827.741	2952
827.88	2944
828.02	2853
828.159	2994
828.298	3028
828.437	3081
828.577	3055
828.716	3241
828.855	3081
828.994	2933
829.134	2845
829.273	2914
829.412	2861
829.551	2826
829.69	2868
829.829	2967
829.968	3150
830.107	3017
830.246	3017
830.385	2887
830.524	2891
830.663	2815
830.802	2724
830.941	2678
831.08	2640
831.219	2739
831.357	2743
831.496	2929
831.635	2739
831.774	2632
831.913	2667
832.051	2530
832.19	2587
832.329	2667
832.467	2522
832.606	2484
832.744	2590
832.883	2590
833.022	2613
833.16	2648
833.299	2689
833.437	2682
833.576	2712
833.714	2682
833.852	2712
833.991	2754
834.129	2842
834.267	2800
834.406	2807
834.544	2845
834.682	2819
834.821	2845
834.959	3036
835.097	2902
835.235	2994
835.373	3013
835.511	3009
835.65	2937
835.788	2975
835.926	2804
836.064	2807
836.202	2861
836.34	3104
836.478	3108
836.615	3047
836.753	3138
836.891	3199
837.029	3161
837.167	3112
837.305	3051
837.443	3047
837.58	2948
837.718	3123
837.856	3066
837.993	3001
838.131	3077
838.269	3097
838.406	3070
838.544	3047
838.681	2967
838.819	2963
838.956	2796
839.094	2823
839.231	2937
839.369	2990
839.506	3367
839.643	3199
839.781	3020
839.918	2933
840.055	3005
840.193	3036
840.33	3047
840.467	3081
840.604	3142
840.742	3393
840.879	3028
841.016	3028
841.153	3093
841.29	3310
841.427	3294
841.564	3233
841.701	3298
841.838	3230
841.975	3176
842.112	3237
842.249	3062
842.385	3051
842.522	3218
842.659	3085
842.796	3036
842.933	3070
843.069	3047
843.206	3028
843.343	3180
843.479	3100
843.616	3123
843.752	2880
843.889	2845
844.025	3062
844.162	2842
844.298	3055
844.435	2979
844.571	2914
844.708	3028
844.844	3203
844.98	3173
845.117	3203
845.253	3039
845.389	2998
845.525	3123
845.661	3062
845.798	3024
845.934	3112
846.07	3062
846.206	3230
846.342	3336
846.478	3226
846.614	3051
846.75	3043
846.886	3028
847.022	3260
847.158	3165
847.294	3180
847.429	3237
847.565	3222
847.701	3473
847.837	2990
847.972	3024
848.108	3131
848.244	3146
848.379	2990
848.515	2929
848.65	2914
848.786	2937
848.921	3017
849.057	3081
849.192	3146
849.328	3062
849.463	3097
849.598	3058
849.734	3028
849.869	2998
850.004	2918
850.14	2933
850.275	2902
850.41	2849
850.545	2857
850.68	2937
850.815	2952
850.95	2979
851.085	3169
851.22	3108
851.355	3043
851.49	2990
851.625	2982
851.76	2963
851.895	2948
852.03	2906
852.165	3001
852.299	3081
852.434	3161
852.569	3142
852.703	3169
852.838	3256
852.973	3348
853.107	3370
853.242	3161
853.376	3089
853.511	2925
853.645	3074
853.78	3253
853.914	3119
854.048	3127
854.183	3081
854.317	3142
854.451	3313
854.585	3108
854.72	3055
854.854	3214
854.988	3039
855.122	3089
855.256	2963
855.39	3108
855.524	3249
855.658	3211
855.792	3150
855.926	3203
856.06	3222
856.194	3256
856.327	3112
856.461	3020
856.595	3058
856.729	3055
856.862	3218
856.996	3093
857.13	3207
857.263	3207
857.397	3279
857.53	3085
857.664	3222
857.797	3214
857.931	3260
858.064	3180
858.197	3241
858.331	3157
858.464	3093
858.597	3005
858.731	3112
858.864	3131
858.997	3100
859.13	3135
859.263	3180
859.396	3245
859.529	3081
859.662	3070
859.795	3020
859.928	3119
860.061	3317
860.194	3287
860.327	3135
860.46	3066
860.592	3233
860.725	3268
860.858	3237
860.99	3097
861.123	3036
861.256	3077
861.388	3127
861.521	3854
861.653	3047
861.786	2956
861.918	2998
862.05	3051
862.183	3036
862.315	3165
862.447	3203
862.58	3062
862.712	2933
862.844	2868
862.976	2960
863.108	2986
863.24	3420
863.372	2880
863.504	2979
863.636	2929
863.768	2990
863.9	2960
864.032	2910
864.164	2971
864.296	3009
864.428	3047
864.559	3074
864.691	3051
864.823	3051
864.954	2971
865.086	3043
865.217	3013
865.349	2960
865.48	2979
865.612	3039
865.743	3112
865.875	2952
866.006	2948
866.137	2960
866.269	2967
866.4	2883
866.531	2914
866.662	2868
866.793	2902
866.924	2887
867.055	2963
867.186	2910
867.317	2899
867.448	2819
867.579	2838
867.71	2838
867.841	2811
867.972	2933
868.103	2883
868.233	2880
868.364	2883
868.495	2880
868.625	3043
868.756	3127
868.886	2956
869.017	3001
869.147	3142
869.278	3119
869.408	3081
869.539	3032
869.669	3062
869.799	3036
869.929	3131
870.06	3066
870.19	3336
870.32	3275
870.45	3268
870.58	3359
870.71	3431
870.84	3420
870.97	3310
871.1	3272
871.23	3466
871.36	3431
871.489	3344
871.619	3382
871.749	3351
871.879	3431
872.008	3500
872.138	3340
872.267	3287
872.397	3161
872.526	3077
872.656	3017
872.785	3116
872.915	3237
873.044	3306
873.173	3169
873.303	3245
873.432	3245
873.561	3245
873.69	3150
873.819	3131
873.948	3188
874.077	3093
874.206	3020
874.335	3093
874.464	3214
874.593	3367
874.722	3306
874.851	3355
874.979	3306
875.108	3291
875.237	3199
875.365	3150
875.494	3180
875.623	3245
875.751	3051
875.88	3081
876.008	3211
876.136	3245
876.265	3374
876.393	3496
876.521	3405
876.65	3378
876.778	3367
876.906	3237
877.034	3188
877.162	3233
877.29	3180
877.418	3268
877.546	3249
877.674	3230
877.802	3249
877.93	3218
878.058	3154
878.185	3085
878.313	3226
878.441	3222
878.568	3066
878.696	3138
878.824	3199
878.951	3313
879.079	3458
879.206	3610
879.333	3420
879.461	3344
879.588	3374
879.715	3466
879.842	3576
879.97	3340
880.097	3207
880.224	3077
880.351	3211
880.478	3173
880.605	3199
880.732	3169
880.859	3519
880.986	3317
881.112	3348
881.239	3218
881.366	3085
881.493	3058
881.619	3001
881.746	3062
881.872	3093
881.999	3051
882.125	3097
882.252	3237
882.378	3306
882.505	3412
882.631	3298
882.757	3146
882.883	3222
883.01	3214
883.136	3157
883.262	3085
883.388	3127
883.514	3310
883.64	3389
883.766	3298
883.892	3203
884.018	3241
884.143	3378
884.269	3561
884.395	3192
884.52	3146
884.646	3180
884.772	3112
884.897	3100
885.023	3222
885.148	3351
885.274	3405
885.399	3355
885.524	3298
885.65	3279
885.775	3302
885.9	3283
886.025	3428
886.15	3340
886.275	3291
886.4	3226
886.525	3302
886.65	3253
886.775	3294
886.9	3462
887.025	3625
887.149	3370
887.274	3279
887.399	3169
887.523	3192
887.648	3184
887.773	3218
887.897	3348
888.021	3401
888.146	3291
888.27	3466
888.395	3481
888.519	3428
888.643	3439
888.767	3477
888.891	3363
889.015	3226
889.139	3264
889.263	3253
889.387	3393
889.511	3477
889.635	3435
889.759	3313
889.883	3306
890.006	3420
890.13	3485
890.254	3294
890.377	3329
890.501	3157
890.624	3188
890.748	3363
890.871	3214
890.995	3100
891.118	3039
891.241	3176
891.364	3203
891.488	3302
891.611	3154
891.734	3207
891.857	3245
891.98	3233
892.103	3294
892.226	3264
892.349	3199
892.471	3146
892.594	3188
892.717	3268
892.839	3260
892.962	3283
893.085	3317
893.207	3275
893.33	3135
893.452	3211
893.575	3329
893.697	3283
893.819	3416
893.941	3515
894.064	3416
894.186	3222
894.308	3275
894.43	3431
894.552	3515
894.674	3450
894.796	3268
894.918	3279
895.04	3249
895.161	3428
895.283	3382
895.405	3302
895.526	3336
895.648	3420
895.769	3428
895.891	3439
896.012	3447
896.134	3477
896.255	3428
896.376	3370
896.498	3348
896.619	3401
896.74	3363
896.861	3359
896.982	3675
897.103	3861
897.224	3553
897.345	3507
897.466	3454
897.587	3492
897.708	3587
897.828	3580
897.949	3397
898.07	3260
898.19	3397
898.311	3644
898.431	3386
898.552	3488
898.672	3614
898.792	3568
898.913	3504
899.033	3397
899.153	3253
899.273	3230
899.393	3283
899.513	3302
899.633	3302
899.753	3359
899.873	3325
899.993	3367
900.113	3310
900.232	3367
900.352	3348
900.472	3294
900.591	3192
900.711	3291
900.83	3260
900.95	3401
901.069	3488
901.189	3313
901.308	3142
901.427	3146
901.546	3226
901.665	3275
901.784	3313
901.904	3211
902.023	3150
902.141	3009
902.26	2998
902.379	3093
902.498	3039
902.617	3039
902.735	3214
902.854	3233
902.973	3142
903.091	3039
903.21	3047
903.328	3154
903.446	3131
903.565	3085
903.683	3176
903.801	3131
903.919	3233
904.038	3283
904.156	3127
904.274	3245
904.392	3245
904.51	3306
904.627	3325
904.745	3405
904.863	3496
904.981	3253
905.098	3176
905.216	3233
905.334	3275
905.451	3253
905.569	3279
905.686	3412
905.803	3466
905.921	3302
906.038	3428
906.155	3378
906.272	3272
906.389	3310
906.506	3195
906.623	3222
906.74	3264
906.857	3165
906.974	3287
907.091	3435
907.208	3564
907.324	3416
907.441	3355
907.557	3253
907.674	3241
907.79	3180
907.907	3241
908.023	3344
908.139	3374
908.256	3378
908.372	3367
908.488	3348
908.604	3272
908.72	3211
908.836	3253
908.952	3279
909.068	3302
909.184	3454
909.3	3374
909.415	3515
909.531	3443
909.647	3256
909.762	3283
909.878	3283
909.993	3340
910.108	3329
910.224	3348
910.339	3412
910.454	3325
910.57	3260
910.685	3222
910.8	3572
910.915	3530
911.03	3405
911.145	3253
911.259	3294
911.374	3310
911.489	3241
911.604	3218
911.718	3100
911.833	3154
911.947	3020
912.062	2975
912.176	3138
912.291	3180
912.405	3199
912.519	3382
912.633	3431
912.748	3321
912.862	3249
912.976	3142
913.09	3077
913.204	3131
913.318	3184
913.431	3283
913.545	3310
913.659	3370
913.772	3336
913.886	3195
914	3214
914.113	3325
914.226	3382
914.34	3374
914.453	3222
914.566	3424
914.68	3230
914.793	3283
914.906	3123
915.019	3058
915.132	3104
915.245	3169
915.358	3237
915.47	3188
915.583	3264
915.696	3294
915.809	3393
915.921	3420
916.034	3218
916.146	3241
916.259	3237
916.371	3351
916.483	3382
916.595	3256
916.708	3325
916.82	3321
916.932	3332
917.044	3340
917.156	3313
917.268	3272
917.38	3332
917.491	3294
917.603	3382
917.715	3443
917.826	3511
917.938	3401
918.049	3260
918.161	3424
918.272	3568
918.384	3641
918.495	3523
918.606	3340
918.717	3272
918.828	3382
918.939	3424
919.05	3313
919.161	3386
919.272	3211
919.383	3294
919.494	3564
919.604	3709
919.715	3515
919.826	3428
919.936	3492
920.047	3622
920.157	3587
920.267	3808
920.378	3648
920.488	3641
920.598	3804
920.708	3960
920.818	3876
920.928	3842
921.038	3998
921.148	4025
921.258	3743
921.368	3652
921.477	3606
921.587	3557
921.697	3481
921.806	3629
921.916	3568
922.025	3416
922.134	3374
922.244	3359
922.353	3443
922.462	3291
922.571	3287
922.68	3150
922.789	3150
922.898	3195
923.007	3138
923.116	3245
923.224	3268
923.333	3249
923.442	3188
923.55	3138
923.659	3180
923.767	3268
923.876	3135
923.984	3302
924.092	3161
924.201	3268
924.309	3272
924.417	3283
924.525	3207
924.633	3298
924.741	4204
924.849	3062
924.956	3325
925.064	3116
925.172	3047
925.279	3127
925.387	3241
925.494	3241
925.602	3439
925.709	3374
925.816	3226
925.924	3340
926.031	3439
926.138	3344
926.245	3389
926.352	3302
926.459	3481
926.566	3454
926.673	3351
926.779	3291
926.886	3332
926.993	3195
927.099	3150
927.206	3119
927.312	3165
927.419	3287
927.525	3268
927.631	3313
927.737	3161
927.843	3180
927.95	3051
928.056	3161
928.162	3256
928.267	3268
928.373	3918
928.479	3370
928.585	3062
928.69	3203
928.796	3302
928.901	3218
929.007	3123
929.112	3253
929.218	3180
929.323	3173
929.428	3146
929.533	3370
929.638	3123
929.743	3195
929.848	3249
929.953	3272
930.058	3165
930.163	3039
930.267	3074
930.372	3226
930.477	3085
930.581	3321
930.685	3230
930.79	3081
930.894	3138
930.998	3123
931.103	3344
931.207	3047
931.311	2956
931.415	2960
931.519	2796
931.623	2842
