Data from test_V78500241_2055.txt Node
Date: Fri Mar 25 16:29:26 CST 2022
User: usil
Spectrometer: V785-0024
Trigger mode: 0
Integration Time (sec): 4.000000E-1
Scans to average: 1
Nonlinearity correction enabled: false
Boxcar width: 0
Storing dark spectrum: false
XAxis mode: Wavelengths
Number of Pixels in Spectrum: 1024
>>>>>Begin Spectral Data<<<<<
801.071	2944
801.214	2933
801.356	2876
801.499	2887
801.641	2883
801.783	2925
801.926	3017
802.068	2971
802.211	2986
802.353	3024
802.496	2975
802.638	3005
802.78	3028
802.923	3066
803.065	3005
803.208	2906
803.35	2918
803.492	2956
803.635	2922
803.777	2777
803.919	2861
804.061	3199
804.204	2960
804.346	2895
804.488	2842
804.63	3013
804.773	2880
804.915	2948
805.057	3077
805.199	2918
805.341	2963
805.483	3043
805.626	2998
805.768	2975
805.91	3058
806.052	3070
806.194	3047
806.336	3245
806.478	2998
806.62	2967
806.762	2979
806.904	3058
807.046	3184
807.188	2975
807.33	2899
807.472	2994
807.614	2944
807.756	3001
807.898	2952
808.04	2906
808.182	2944
808.324	2967
808.465	2887
808.607	2868
808.749	2823
808.891	2849
809.033	2986
809.174	2948
809.316	2868
809.458	2887
809.6	2785
809.741	2796
809.883	2739
810.025	2819
810.166	2876
810.308	2842
810.45	2842
810.591	2777
810.733	2750
810.875	2826
811.016	2754
811.158	2708
811.299	2819
811.441	2933
811.582	2914
811.724	2800
811.865	2826
812.007	2941
812.148	2895
812.29	2902
812.431	2887
812.573	2937
812.714	2982
812.855	3051
812.997	3047
813.138	3150
813.279	2971
813.421	2971
813.562	2975
813.703	2864
813.845	2857
813.986	2731
814.127	2724
814.268	2838
814.41	2823
814.551	2826
814.692	2872
814.833	2777
814.974	2883
815.115	2956
815.256	2842
815.397	2834
815.539	2864
815.68	2781
815.821	2777
815.962	2948
816.103	2918
816.244	2861
816.385	2876
816.526	2944
816.666	2918
816.807	2754
816.948	2880
817.089	2887
817.23	2796
817.371	2796
817.512	2807
817.653	2868
817.793	2819
817.934	2868
818.075	2956
818.216	2979
818.356	2998
818.497	2933
818.638	2785
818.778	2834
818.919	2750
819.06	2739
819.2	2861
819.341	2807
819.481	2830
819.622	2963
819.762	3070
819.903	3032
820.043	2910
820.184	2914
820.324	2864
820.465	3024
820.605	3005
820.746	3047
820.886	2960
821.026	3123
821.167	3180
821.307	3256
821.447	3256
821.588	3230
821.728	3199
821.868	3146
822.008	3093
822.149	3199
822.289	3199
822.429	3112
822.569	3077
822.709	3150
822.849	3024
822.99	3085
823.13	3154
823.27	3173
823.41	3100
823.55	3146
823.69	3127
823.83	3195
823.97	3058
824.11	2982
824.25	2971
824.389	3051
824.529	3100
824.669	3036
824.809	3211
824.949	3214
825.089	3226
825.228	3161
825.368	2998
825.508	2960
825.648	2971
825.787	3032
825.927	2994
826.067	2956
826.206	2948
826.346	3039
826.485	3017
826.625	3108
826.765	3241
826.904	3233
827.044	3001
827.183	2918
827.323	2899
827.462	2941
827.601	2948
827.741	2914
827.88	2971
828.02	2845
828.159	2982
828.298	3005
828.437	3119
828.577	3009
828.716	3260
828.855	3074
828.994	2906
829.134	2872
829.273	2918
829.412	2826
829.551	2906
829.69	2883
829.829	2979
829.968	3100
830.107	3001
830.246	3047
830.385	2922
830.524	2868
830.663	2807
830.802	2727
830.941	2655
831.08	2636
831.219	2762
831.357	2735
831.496	2956
831.635	2708
831.774	2632
831.913	2674
832.051	2552
832.19	2571
832.329	2693
832.467	2514
832.606	2469
832.744	2552
832.883	2606
833.022	2575
833.16	2663
833.299	2674
833.437	2678
833.576	2682
833.714	2716
833.852	2731
833.991	2746
834.129	2815
834.267	2830
834.406	2762
834.544	2876
834.682	2853
834.821	2853
834.959	3077
835.097	2872
835.235	3047
835.373	2990
835.511	2963
835.65	2960
835.788	2963
835.926	2815
836.064	2777
836.202	2849
836.34	3093
836.478	3123
836.615	3020
836.753	3135
836.891	3222
837.029	3176
837.167	3074
837.305	3051
837.443	3013
837.58	2952
837.718	3138
837.856	3077
837.993	3005
838.131	3112
838.269	3127
838.406	3074
838.544	3085
838.681	2899
838.819	2929
838.956	2838
839.094	2826
839.231	2910
839.369	2998
839.506	3348
839.643	3222
839.781	3013
839.918	2952
840.055	3024
840.193	3036
840.33	3058
840.467	3081
840.604	3173
840.742	3401
840.879	3005
841.016	3070
841.153	3074
841.29	3302
841.427	3287
841.564	3264
841.701	3310
841.838	3218
841.975	3203
842.112	3218
842.249	3085
842.385	3036
842.522	3298
842.659	3085
842.796	3089
842.933	3093
843.069	3024
843.206	3047
843.343	3150
843.479	3074
843.616	3154
843.752	2895
843.889	2891
844.025	3066
844.162	2876
844.298	3066
844.435	2952
844.571	2937
844.708	3070
844.844	3214
844.98	3218
845.117	3161
845.253	3017
845.389	3024
845.525	3089
845.661	3142
845.798	3009
845.934	3074
846.07	3058
846.206	3203
846.342	3332
846.478	3230
846.614	3104
846.75	3093
846.886	3005
847.022	3237
847.158	3119
847.294	3173
847.429	3226
847.565	3207
847.701	3466
847.837	3005
847.972	2967
848.108	3119
848.244	3154
848.379	2986
848.515	2925
848.65	2925
848.786	2960
848.921	2990
849.057	3089
849.192	3150
849.328	3036
849.463	3157
849.598	3093
849.734	3020
849.869	3017
850.004	2872
850.14	2982
850.275	2906
850.41	2792
850.545	2876
850.68	2929
850.815	2948
850.95	2975
851.085	3146
851.22	3123
851.355	3032
851.49	2975
851.625	2975
851.76	3005
851.895	2944
852.03	2906
852.165	3047
852.299	3100
852.434	3169
852.569	3119
852.703	3138
852.838	3272
852.973	3336
853.107	3351
853.242	3150
853.376	3058
853.511	2948
853.645	3043
853.78	3214
853.914	3100
854.048	3066
854.183	3070
854.317	3138
854.451	3279
854.585	3119
854.72	3089
854.854	3154
854.988	3085
855.122	3066
855.256	2979
855.39	3131
855.524	3256
855.658	3165
855.792	3138
855.926	3184
856.06	3226
856.194	3222
856.327	3131
856.461	3051
856.595	3062
856.729	3081
856.862	3233
856.996	3112
857.13	3199
857.263	3222
857.397	3256
857.53	3116
857.664	3195
857.797	3214
857.931	3260
858.064	3195
858.197	3188
858.331	3138
858.464	3131
858.597	3001
858.731	3070
858.864	3093
858.997	3100
859.13	3138
859.263	3184
859.396	3203
859.529	3077
859.662	3017
859.795	3009
859.928	3165
860.061	3237
860.194	3283
860.327	3138
860.46	3108
860.592	3264
860.725	3241
860.858	3241
860.99	3070
861.123	3043
861.256	3043
861.388	3142
861.521	3854
861.653	3017
861.786	2975
861.918	2944
862.05	3058
862.183	3081
862.315	3146
862.447	3222
862.58	3104
862.712	2929
862.844	2857
862.976	3013
863.108	2971
863.24	3317
863.372	2883
863.504	2933
863.636	2948
863.768	3032
863.9	3032
864.032	2902
864.164	2929
864.296	3028
864.428	3108
864.559	3097
864.691	3058
864.823	3062
864.954	3017
865.086	3020
865.217	2998
865.349	2944
865.48	2982
865.612	3020
865.743	3165
865.875	2967
866.006	2925
866.137	2982
866.269	2922
866.4	2918
866.531	2902
866.662	2891
866.793	2899
866.924	2887
867.055	2922
867.186	2929
867.317	2880
867.448	2842
867.579	2853
867.71	2857
867.841	2819
867.972	2910
868.103	2902
868.233	2868
868.364	2902
868.495	2922
868.625	3070
868.756	3169
868.886	2956
869.017	3024
869.147	3157
869.278	3142
869.408	3062
869.539	3036
869.669	3135
869.799	3051
869.929	3116
870.06	3093
870.19	3332
870.32	3253
870.45	3283
870.58	3359
870.71	3469
870.84	3428
870.97	3268
871.1	3237
871.23	3443
871.36	3450
871.489	3344
871.619	3405
871.749	3412
871.879	3405
872.008	3488
872.138	3370
872.267	3249
872.397	3146
872.526	3119
872.656	2982
872.785	3077
872.915	3245
873.044	3310
873.173	3173
873.303	3199
873.432	3214
873.561	3237
873.69	3161
873.819	3138
873.948	3222
874.077	3089
874.206	3028
874.335	3047
874.464	3222
874.593	3405
874.722	3241
874.851	3389
874.979	3313
875.108	3310
875.237	3165
875.365	3173
875.494	3154
875.623	3203
875.751	3081
875.88	3085
876.008	3180
876.136	3245
876.265	3351
876.393	3530
876.521	3428
876.65	3401
876.778	3325
876.906	3241
877.034	3188
877.162	3237
877.29	3173
877.418	3268
877.546	3245
877.674	3222
877.802	3237
877.93	3192
878.058	3184
878.185	3097
878.313	3184
878.441	3214
878.568	3055
878.696	3180
878.824	3237
878.951	3287
879.079	3466
879.206	3625
879.333	3409
879.461	3336
879.588	3351
879.715	3481
879.842	3572
879.97	3344
880.097	3146
880.224	3127
880.351	3161
880.478	3264
880.605	3195
880.732	3180
880.859	3477
880.986	3272
881.112	3302
881.239	3188
881.366	3108
881.493	3028
881.619	3039
881.746	3074
881.872	3112
881.999	3058
882.125	3173
882.252	3268
882.378	3283
882.505	3401
882.631	3245
882.757	3123
882.883	3188
883.01	3207
883.136	3135
883.262	3112
883.388	3081
883.514	3298
883.64	3378
883.766	3298
883.892	3180
884.018	3230
884.143	3439
884.269	3504
884.395	3207
884.52	3138
884.646	3195
884.772	3089
884.897	3097
885.023	3214
885.148	3317
885.274	3378
885.399	3344
885.524	3260
885.65	3245
885.775	3321
885.9	3264
886.025	3405
886.15	3344
886.275	3321
886.4	3222
886.525	3279
886.65	3279
886.775	3268
886.9	3485
887.025	3629
887.149	3370
887.274	3222
887.399	3154
887.523	3199
887.648	3192
887.773	3199
887.897	3355
888.021	3382
888.146	3283
888.27	3397
888.395	3511
888.519	3428
888.643	3439
888.767	3435
888.891	3306
889.015	3241
889.139	3302
889.263	3233
889.387	3374
889.511	3515
889.635	3439
889.759	3302
889.883	3287
890.006	3367
890.13	3466
890.254	3313
890.377	3317
890.501	3180
890.624	3116
890.748	3306
890.871	3150
890.995	3089
891.118	3070
891.241	3195
891.364	3214
891.488	3355
891.611	3184
891.734	3203
891.857	3313
891.98	3199
892.103	3325
892.226	3279
892.349	3188
892.471	3097
892.594	3222
892.717	3241
892.839	3313
892.962	3306
893.085	3344
893.207	3279
893.33	3165
893.452	3192
893.575	3344
893.697	3268
893.819	3485
893.941	3488
894.064	3447
894.186	3268
894.308	3256
894.43	3466
894.552	3538
894.674	3439
894.796	3249
894.918	3291
895.04	3264
895.161	3454
895.283	3397
895.405	3348
895.526	3367
895.648	3405
895.769	3393
895.891	3420
896.012	3473
896.134	3435
896.255	3378
896.376	3313
896.498	3340
896.619	3428
896.74	3351
896.861	3374
896.982	3709
897.103	3842
897.224	3549
897.345	3488
897.466	3389
897.587	3515
897.708	3603
897.828	3545
897.949	3416
898.07	3291
898.19	3397
898.311	3595
898.431	3450
898.552	3507
898.672	3606
898.792	3572
898.913	3523
899.033	3424
899.153	3275
899.273	3203
899.393	3302
899.513	3321
899.633	3310
899.753	3306
899.873	3329
899.993	3389
900.113	3321
900.232	3393
900.352	3291
900.472	3253
900.591	3203
900.711	3291
900.83	3226
900.95	3389
901.069	3507
901.189	3340
901.308	3169
901.427	3112
901.546	3173
901.665	3336
901.784	3275
901.904	3207
902.023	3146
902.141	3020
902.26	3001
902.379	3165
902.498	3081
902.617	3039
902.735	3184
902.854	3207
902.973	3184
903.091	3036
903.21	3074
903.328	3112
903.446	3085
903.565	3058
903.683	3176
903.801	3138
903.919	3233
904.038	3321
904.156	3138
904.274	3253
904.392	3241
904.51	3298
904.627	3329
904.745	3401
904.863	3473
904.981	3233
905.098	3161
905.216	3222
905.334	3249
905.451	3268
905.569	3351
905.686	3439
905.803	3447
905.921	3260
906.038	3401
906.155	3332
906.272	3241
906.389	3370
906.506	3207
906.623	3233
906.74	3249
906.857	3192
906.974	3241
907.091	3431
907.208	3561
907.324	3481
907.441	3389
907.557	3203
907.674	3245
907.79	3214
907.907	3321
908.023	3412
908.139	3393
908.256	3329
908.372	3382
908.488	3351
908.604	3275
908.72	3211
908.836	3256
908.952	3253
909.068	3359
909.184	3458
909.3	3389
909.415	3511
909.531	3454
909.647	3302
909.762	3283
909.878	3268
909.993	3363
910.108	3344
910.224	3317
910.339	3443
910.454	3329
910.57	3279
910.685	3268
910.8	3606
910.915	3568
911.03	3439
911.145	3249
911.259	3260
911.374	3325
911.489	3237
911.604	3245
911.718	3116
911.833	3157
911.947	3062
912.062	2994
912.176	3157
912.291	3176
912.405	3214
912.519	3435
912.633	3435
912.748	3298
912.862	3302
912.976	3146
913.09	3047
913.204	3146
913.318	3230
913.431	3340
913.545	3321
913.659	3416
913.772	3359
913.886	3203
914	3195
914.113	3336
914.226	3386
914.34	3359
914.453	3180
914.566	3420
914.68	3310
914.793	3291
914.906	3138
915.019	3116
915.132	3085
915.245	3192
915.358	3218
915.47	3226
915.583	3245
915.696	3287
915.809	3401
915.921	3424
916.034	3256
916.146	3214
916.259	3173
916.371	3416
916.483	3386
916.595	3268
916.708	3374
916.82	3279
916.932	3359
917.044	3317
917.156	3332
917.268	3226
917.38	3268
917.491	3306
917.603	3310
917.715	3443
917.826	3462
917.938	3348
918.049	3256
918.161	3405
918.272	3584
918.384	3576
918.495	3473
918.606	3332
918.717	3245
918.828	3378
918.939	3412
919.05	3298
919.161	3363
919.272	3195
919.383	3260
919.494	3492
919.604	3686
919.715	3504
919.826	3382
919.936	3443
920.047	3572
920.157	3576
920.267	3762
920.378	3625
920.488	3549
920.598	3778
920.708	3964
920.818	3861
920.928	3808
921.038	4074
921.148	3991
921.258	3705
921.368	3618
921.477	3584
921.587	3534
921.697	3469
921.806	3648
921.916	3515
922.025	3344
922.134	3386
922.244	3294
922.353	3412
922.462	3313
922.571	3180
922.68	3104
922.789	3062
922.898	3146
923.007	3097
923.116	3199
923.224	3176
923.333	3165
923.442	3100
923.55	3077
923.659	3154
923.767	3260
923.876	3146
923.984	3241
924.092	3062
924.201	3184
924.309	3184
924.417	3245
924.525	3176
924.633	3237
924.741	4169
924.849	3017
924.956	3260
925.064	3112
925.172	3036
925.279	3081
925.387	3188
925.494	3203
925.602	3325
925.709	3344
925.816	3176
925.924	3298
926.031	3389
926.138	3279
926.245	3298
926.352	3226
926.459	3370
926.566	3447
926.673	3294
926.779	3237
926.886	3207
926.993	3138
927.099	3127
927.206	3097
927.312	3100
927.419	3214
927.525	3214
927.631	3245
927.737	3135
927.843	3100
927.95	3009
928.056	3135
928.162	3180
928.267	3218
928.373	3884
928.479	3310
928.585	3058
928.69	3272
928.796	3233
928.901	3142
929.007	3055
929.112	3253
929.218	3161
929.323	3150
929.428	3184
929.533	3325
929.638	3119
929.743	3157
929.848	3245
929.953	3218
930.058	3127
930.163	2998
930.267	3032
930.372	3176
930.477	3020
930.581	3310
930.685	3154
930.79	3062
930.894	3131
930.998	3066
931.103	3264
931.207	2948
931.311	2948
931.415	2899
931.519	2804
931.623	2769
