Data from test_V78500241_1126.txt Node
Date: Fri Mar 25 16:23:00 CST 2022
User: usil
Spectrometer: V785-0024
Trigger mode: 0
Integration Time (sec): 4.000000E-1
Scans to average: 1
Nonlinearity correction enabled: false
Boxcar width: 0
Storing dark spectrum: false
XAxis mode: Wavelengths
Number of Pixels in Spectrum: 1024
>>>>>Begin Spectral Data<<<<<
801.071	2891
801.214	2952
801.356	2876
801.499	2899
801.641	2845
801.783	2891
801.926	3017
802.068	2982
802.211	3009
802.353	3001
802.496	2948
802.638	3009
802.78	3051
802.923	3028
803.065	3005
803.208	2899
803.35	2887
803.492	2929
803.635	2925
803.777	2739
803.919	2853
804.061	3218
804.204	2952
804.346	2948
804.488	2804
804.63	2994
804.773	2887
804.915	2876
805.057	3089
805.199	2910
805.341	2948
805.483	3028
805.626	2975
805.768	2944
805.91	3112
806.052	3066
806.194	3032
806.336	3199
806.478	3028
806.62	2918
806.762	2948
806.904	3051
807.046	3135
807.188	2941
807.33	2914
807.472	2963
807.614	2880
807.756	2975
807.898	2914
808.04	2872
808.182	2994
808.324	2933
808.465	2853
808.607	2880
808.749	2792
808.891	2834
809.033	2967
809.174	2948
809.316	2872
809.458	2944
809.6	2739
809.741	2777
809.883	2743
810.025	2842
810.166	2906
810.308	2819
810.45	2845
810.591	2773
810.733	2743
810.875	2804
811.016	2777
811.158	2720
811.299	2792
811.441	2922
811.582	2902
811.724	2842
811.865	2842
812.007	2906
812.148	2853
812.29	2857
812.431	2899
812.573	2906
812.714	2963
812.855	3039
812.997	3024
813.138	3104
813.279	3013
813.421	2963
813.562	2944
813.703	2861
813.845	2906
813.986	2754
814.127	2746
814.268	2826
814.41	2849
814.551	2792
814.692	2842
814.833	2845
814.974	2880
815.115	2967
815.256	2853
815.397	2830
815.539	2864
815.68	2804
815.821	2777
815.962	2906
816.103	2922
816.244	2891
816.385	2838
816.526	3009
816.666	2933
816.807	2735
816.948	2902
817.089	2941
817.23	2842
817.371	2754
817.512	2792
817.653	2834
817.793	2823
817.934	2876
818.075	2963
818.216	3013
818.356	3013
818.497	2868
818.638	2800
818.778	2811
818.919	2804
819.06	2796
819.2	2876
819.341	2788
819.481	2807
819.622	2906
819.762	3066
819.903	3047
820.043	2941
820.184	2952
820.324	2868
820.465	3013
820.605	2994
820.746	2994
820.886	2918
821.026	3112
821.167	3176
821.307	3260
821.447	3283
821.588	3233
821.728	3192
821.868	3176
822.008	3104
822.149	3195
822.289	3180
822.429	3123
822.569	3062
822.709	3154
822.849	3009
822.99	3013
823.13	3157
823.27	3184
823.41	3093
823.55	3146
823.69	3135
823.83	3184
823.97	3062
824.11	2975
824.25	2975
824.389	3051
824.529	3104
824.669	3028
824.809	3180
824.949	3260
825.089	3233
825.228	3142
825.368	2967
825.508	2971
825.648	2967
825.787	2986
825.927	2994
826.067	2971
826.206	2956
826.346	3013
826.485	3077
826.625	3119
826.765	3253
826.904	3165
827.044	3013
827.183	2941
827.323	2861
827.462	2967
827.601	2922
827.741	2910
827.88	2944
828.02	2853
828.159	2971
828.298	3043
828.437	3089
828.577	3039
828.716	3256
828.855	3024
828.994	2929
829.134	2883
829.273	2910
829.412	2853
829.551	2857
829.69	2861
829.829	2982
829.968	3097
830.107	3009
830.246	3039
830.385	2925
830.524	2868
830.663	2823
830.802	2716
830.941	2629
831.08	2667
831.219	2735
831.357	2754
831.496	2933
831.635	2720
831.774	2640
831.913	2667
832.051	2549
832.19	2549
832.329	2689
832.467	2537
832.606	2495
832.744	2560
832.883	2598
833.022	2598
833.16	2606
833.299	2686
833.437	2705
833.576	2670
833.714	2701
833.852	2731
833.991	2766
834.129	2842
834.267	2815
834.406	2785
834.544	2876
834.682	2910
834.821	2853
834.959	3020
835.097	2902
835.235	3028
835.373	2979
835.511	3005
835.65	2925
835.788	2948
835.926	2823
836.064	2796
836.202	2861
836.34	3077
836.478	3150
836.615	3055
836.753	3165
836.891	3157
837.029	3184
837.167	3135
837.305	3074
837.443	3017
837.58	2963
837.718	3138
837.856	3058
837.993	3009
838.131	3127
838.269	3058
838.406	3093
838.544	3100
838.681	2941
838.819	2910
838.956	2781
839.094	2796
839.231	2925
839.369	2986
839.506	3393
839.643	3226
839.781	3028
839.918	2960
840.055	3020
840.193	3036
840.33	3020
840.467	3074
840.604	3146
840.742	3389
840.879	3062
841.016	3005
841.153	3097
841.29	3325
841.427	3264
841.564	3249
841.701	3298
841.838	3184
841.975	3169
842.112	3195
842.249	3043
842.385	3024
842.522	3256
842.659	3093
842.796	3028
842.933	3112
843.069	3024
843.206	3039
843.343	3173
843.479	3108
843.616	3165
843.752	2883
843.889	2880
844.025	3097
844.162	2842
844.298	3074
844.435	2925
844.571	2933
844.708	3032
844.844	3150
844.98	3211
845.117	3161
845.253	3051
845.389	2963
845.525	3077
845.661	3089
845.798	3032
845.934	3150
846.07	3043
846.206	3203
846.342	3325
846.478	3214
846.614	3081
846.75	3070
846.886	3032
847.022	3226
847.158	3112
847.294	3188
847.429	3245
847.565	3192
847.701	3443
847.837	3039
847.972	2956
848.108	3169
848.244	3142
848.379	2971
848.515	2937
848.65	2914
848.786	2910
848.921	2986
849.057	3104
849.192	3169
849.328	3043
849.463	3108
849.598	3047
849.734	3047
849.869	2933
850.004	2880
850.14	2967
850.275	2971
850.41	2834
850.545	2864
850.68	2925
850.815	2948
850.95	2914
851.085	3176
851.22	3085
851.355	3013
851.49	2967
851.625	3017
851.76	2986
851.895	2929
852.03	2937
852.165	3058
852.299	3089
852.434	3169
852.569	3127
852.703	3146
852.838	3222
852.973	3374
853.107	3332
853.242	3138
853.376	3074
853.511	2960
853.645	3020
853.78	3241
853.914	3116
854.048	3081
854.183	3104
854.317	3135
854.451	3279
854.585	3119
854.72	3081
854.854	3203
854.988	3047
855.122	3108
855.256	2956
855.39	3108
855.524	3214
855.658	3203
855.792	3112
855.926	3203
856.06	3199
856.194	3226
856.327	3135
856.461	3085
856.595	3036
856.729	3032
856.862	3211
856.996	3161
857.13	3214
857.263	3222
857.397	3256
857.53	3066
857.664	3226
857.797	3233
857.931	3211
858.064	3146
858.197	3241
858.331	3135
858.464	3097
858.597	2986
858.731	3112
858.864	3116
858.997	3070
859.13	3116
859.263	3169
859.396	3207
859.529	3066
859.662	3089
859.795	3032
859.928	3085
860.061	3268
860.194	3256
860.327	3104
860.46	3081
860.592	3203
860.725	3222
860.858	3249
860.99	3093
861.123	3009
861.256	3055
861.388	3108
861.521	3736
861.653	3001
861.786	2956
861.918	2998
862.05	3055
862.183	3077
862.315	3123
862.447	3192
862.58	3093
862.712	2937
862.844	2857
862.976	2994
863.108	2998
863.24	3332
863.372	2864
863.504	2937
863.636	2925
863.768	3039
863.9	2948
864.032	2883
864.164	2910
864.296	3005
864.428	3077
864.559	3097
864.691	3089
864.823	3089
864.954	3039
865.086	3039
865.217	2982
865.349	2967
865.48	2975
865.612	3020
865.743	3169
865.875	2963
866.006	2910
866.137	2952
866.269	2922
866.4	2929
866.531	2899
866.662	2895
866.793	2887
866.924	2895
867.055	2990
867.186	2918
867.317	2830
867.448	2830
867.579	2826
867.71	2834
867.841	2800
867.972	2895
868.103	2902
868.233	2861
868.364	2861
868.495	2914
868.625	3043
868.756	3154
868.886	3001
869.017	3005
869.147	3157
869.278	3135
869.408	3039
869.539	3009
869.669	3081
869.799	2998
869.929	3093
870.06	3135
870.19	3302
870.32	3313
870.45	3313
870.58	3382
870.71	3401
870.84	3420
870.97	3287
871.1	3241
871.23	3466
871.36	3481
871.489	3344
871.619	3374
871.749	3378
871.879	3431
872.008	3454
872.138	3378
872.267	3241
872.397	3138
872.526	3062
872.656	3005
872.785	3100
872.915	3226
873.044	3310
873.173	3180
873.303	3233
873.432	3214
873.561	3253
873.69	3169
873.819	3135
873.948	3150
874.077	3116
874.206	3032
874.335	3070
874.464	3176
874.593	3321
874.722	3241
874.851	3351
874.979	3340
875.108	3313
875.237	3195
875.365	3150
875.494	3169
875.623	3211
875.751	3089
875.88	3074
876.008	3195
876.136	3230
876.265	3370
876.393	3481
876.521	3389
876.65	3397
876.778	3344
876.906	3264
877.034	3157
877.162	3214
877.29	3176
877.418	3233
877.546	3199
877.674	3245
877.802	3222
877.93	3207
878.058	3146
878.185	3097
878.313	3169
878.441	3230
878.568	3089
878.696	3138
878.824	3226
878.951	3310
879.079	3424
879.206	3599
879.333	3447
879.461	3317
879.588	3378
879.715	3511
879.842	3591
879.97	3374
880.097	3154
880.224	3119
880.351	3154
880.478	3173
880.605	3199
880.732	3176
880.859	3492
880.986	3249
881.112	3329
881.239	3169
881.366	3039
881.493	3036
881.619	3013
881.746	3093
881.872	3093
881.999	3081
882.125	3142
882.252	3279
882.378	3279
882.505	3386
882.631	3264
882.757	3104
882.883	3218
883.01	3241
883.136	3123
883.262	3058
883.388	3108
883.514	3302
883.64	3389
883.766	3275
883.892	3157
884.018	3233
884.143	3428
884.269	3515
884.395	3173
884.52	3119
884.646	3180
884.772	3112
884.897	3058
885.023	3203
885.148	3302
885.274	3397
885.399	3367
885.524	3260
885.65	3256
885.775	3302
885.9	3256
886.025	3389
886.15	3374
886.275	3260
886.4	3218
886.525	3283
886.65	3268
886.775	3245
886.9	3526
887.025	3633
887.149	3386
887.274	3260
887.399	3161
887.523	3192
887.648	3188
887.773	3188
887.897	3340
888.021	3363
888.146	3298
888.27	3382
888.395	3504
888.519	3386
888.643	3450
888.767	3412
888.891	3287
889.015	3218
889.139	3264
889.263	3192
889.387	3374
889.511	3549
889.635	3382
889.759	3313
889.883	3256
890.006	3351
890.13	3485
890.254	3268
890.377	3329
890.501	3184
890.624	3138
890.748	3264
890.871	3192
890.995	3127
891.118	3058
891.241	3188
891.364	3199
891.488	3321
891.611	3173
891.734	3233
891.857	3283
891.98	3272
892.103	3340
892.226	3260
892.349	3218
892.471	3123
892.594	3211
892.717	3294
892.839	3241
892.962	3302
893.085	3374
893.207	3268
893.33	3119
893.452	3188
893.575	3344
893.697	3268
893.819	3507
893.941	3534
894.064	3435
894.186	3272
894.308	3256
894.43	3466
894.552	3561
894.674	3420
894.796	3287
894.918	3317
895.04	3306
895.161	3496
895.283	3428
895.405	3321
895.526	3382
895.648	3447
895.769	3439
895.891	3504
896.012	3485
896.134	3511
896.255	3428
896.376	3367
896.498	3409
896.619	3466
896.74	3374
896.861	3420
896.982	3686
897.103	3876
897.224	3648
897.345	3500
897.466	3435
897.587	3538
897.708	3660
897.828	3641
897.949	3492
898.07	3351
898.19	3431
898.311	3648
898.431	3477
898.552	3545
898.672	3648
898.792	3652
898.913	3526
899.033	3473
899.153	3336
899.273	3283
899.393	3340
899.513	3378
899.633	3329
899.753	3374
899.873	3329
899.993	3405
900.113	3351
900.232	3393
900.352	3386
900.472	3325
900.591	3283
900.711	3332
900.83	3253
900.95	3488
901.069	3545
901.189	3393
901.308	3192
901.427	3199
901.546	3203
901.665	3336
901.784	3367
901.904	3298
902.023	3180
902.141	3077
902.26	3024
902.379	3165
902.498	3100
902.617	3097
902.735	3226
902.854	3260
902.973	3268
903.091	3070
903.21	3108
903.328	3169
903.446	3131
903.565	3135
903.683	3222
903.801	3169
903.919	3275
904.038	3294
904.156	3188
904.274	3355
904.392	3306
904.51	3329
904.627	3367
904.745	3447
904.863	3534
904.981	3317
905.098	3211
905.216	3264
905.334	3332
905.451	3310
905.569	3351
905.686	3450
905.803	3477
905.921	3313
906.038	3435
906.155	3378
906.272	3298
906.389	3351
906.506	3218
906.623	3256
906.74	3310
906.857	3230
906.974	3302
907.091	3466
907.208	3572
907.324	3526
907.441	3416
907.557	3291
907.674	3272
907.79	3260
907.907	3294
908.023	3416
908.139	3412
908.256	3367
908.372	3374
908.488	3374
908.604	3291
908.72	3272
908.836	3332
908.952	3332
909.068	3382
909.184	3519
909.3	3428
909.415	3526
909.531	3477
909.647	3317
909.762	3317
909.878	3294
909.993	3397
910.108	3344
910.224	3340
910.339	3409
910.454	3386
910.57	3325
910.685	3272
910.8	3652
910.915	3549
911.03	3477
911.145	3272
911.259	3294
911.374	3382
911.489	3291
911.604	3222
911.718	3150
911.833	3146
911.947	3081
912.062	2994
912.176	3203
912.291	3241
912.405	3230
912.519	3488
912.633	3496
912.748	3389
912.862	3294
912.976	3214
913.09	3097
913.204	3173
913.318	3264
913.431	3367
913.545	3359
913.659	3431
913.772	3359
913.886	3283
914	3203
914.113	3367
914.226	3435
914.34	3450
914.453	3241
914.566	3469
914.68	3302
914.793	3363
914.906	3138
915.019	3154
915.132	3058
915.245	3222
915.358	3245
915.47	3230
915.583	3264
915.696	3348
915.809	3409
915.921	3485
916.034	3310
916.146	3310
916.259	3260
916.371	3405
916.483	3420
916.595	3260
916.708	3348
916.82	3359
916.932	3340
917.044	3401
917.156	3355
917.268	3237
917.38	3340
917.491	3344
917.603	3405
917.715	3523
917.826	3473
917.938	3405
918.049	3348
918.161	3412
918.272	3564
918.384	3606
918.495	3488
918.606	3344
918.717	3279
918.828	3428
918.939	3412
919.05	3351
919.161	3393
919.272	3222
919.383	3310
919.494	3538
919.604	3667
919.715	3530
919.826	3469
919.936	3492
920.047	3629
920.157	3561
920.267	3816
920.378	3625
920.488	3622
920.598	3755
920.708	3987
920.818	3861
920.928	3865
921.038	4013
921.148	4051
921.258	3709
921.368	3690
921.477	3564
921.587	3542
921.697	3488
921.806	3656
921.916	3549
922.025	3348
922.134	3359
922.244	3306
922.353	3431
922.462	3310
922.571	3268
922.68	3176
922.789	3077
922.898	3138
923.007	3085
923.116	3226
923.224	3176
923.333	3203
923.442	3142
923.55	3093
923.659	3211
923.767	3245
923.876	3135
923.984	3268
924.092	3142
924.201	3203
924.309	3249
924.417	3321
924.525	3211
924.633	3310
924.741	4109
924.849	3055
924.956	3279
925.064	3119
925.172	3077
925.279	3157
925.387	3226
925.494	3222
925.602	3382
925.709	3370
925.816	3173
925.924	3317
926.031	3397
926.138	3340
926.245	3409
926.352	3249
926.459	3409
926.566	3515
926.673	3367
926.779	3306
926.886	3256
926.993	3176
927.099	3138
927.206	3150
927.312	3116
927.419	3233
927.525	3233
927.631	3283
927.737	3195
927.843	3165
927.95	3039
928.056	3207
928.162	3195
928.267	3279
928.373	3873
928.479	3340
928.585	3074
928.69	3237
928.796	3283
928.901	3176
929.007	3104
929.112	3195
929.218	3192
929.323	3146
929.428	3165
929.533	3344
929.638	3146
929.743	3176
929.848	3275
929.953	3233
930.058	3154
930.163	2986
930.267	3100
930.372	3245
930.477	3055
930.581	3321
930.685	3192
930.79	3051
930.894	3173
930.998	3085
931.103	3298
931.207	2971
931.311	2979
931.415	2937
931.519	2804
931.623	2826
