Data from test_V78500241_1744.txt Node
Date: Fri Mar 25 16:27:17 CST 2022
User: usil
Spectrometer: V785-0024
Trigger mode: 0
Integration Time (sec): 4.000000E-1
Scans to average: 1
Nonlinearity correction enabled: false
Boxcar width: 0
Storing dark spectrum: false
XAxis mode: Wavelengths
Number of Pixels in Spectrum: 1024
>>>>>Begin Spectral Data<<<<<
801.071	2941
801.214	2944
801.356	2872
801.499	2929
801.641	2857
801.783	2910
801.926	3043
802.068	2944
802.211	2994
802.353	3009
802.496	2937
802.638	3009
802.78	3005
802.923	3066
803.065	3020
803.208	2880
803.35	2895
803.492	2918
803.635	2914
803.777	2750
803.919	2876
804.061	3195
804.204	2948
804.346	2922
804.488	2857
804.63	2982
804.773	2872
804.915	2918
805.057	3077
805.199	2952
805.341	2982
805.483	3009
805.626	3020
805.768	2971
805.91	3074
806.052	3081
806.194	3043
806.336	3207
806.478	3051
806.62	2960
806.762	2982
806.904	3093
807.046	3138
807.188	2975
807.33	2925
807.472	2975
807.614	2910
807.756	2963
807.898	2895
808.04	2910
808.182	2990
808.324	2971
808.465	2853
808.607	2853
808.749	2804
808.891	2826
809.033	3001
809.174	2982
809.316	2906
809.458	2883
809.6	2804
809.741	2807
809.883	2766
810.025	2849
810.166	2864
810.308	2788
810.45	2849
810.591	2754
810.733	2777
810.875	2834
811.016	2754
811.158	2739
811.299	2796
811.441	2937
811.582	2861
811.724	2823
811.865	2853
812.007	2902
812.148	2868
812.29	2853
812.431	2933
812.573	2902
812.714	2963
812.855	3077
812.997	3070
813.138	3154
813.279	3024
813.421	2982
813.562	2906
813.703	2872
813.845	2918
813.986	2800
814.127	2708
814.268	2804
814.41	2826
814.551	2800
814.692	2868
814.833	2834
814.974	2918
815.115	2944
815.256	2815
815.397	2823
815.539	2853
815.68	2727
815.821	2766
815.962	2941
816.103	2929
816.244	2902
816.385	2826
816.526	2952
816.666	2941
816.807	2766
816.948	2872
817.089	2914
817.23	2868
817.371	2769
817.512	2792
817.653	2842
817.793	2834
817.934	2925
818.075	2975
818.216	3020
818.356	3055
818.497	2899
818.638	2792
818.778	2857
818.919	2788
819.06	2781
819.2	2899
819.341	2785
819.481	2807
819.622	2948
819.762	3077
819.903	3005
820.043	2914
820.184	2902
820.324	2880
820.465	3009
820.605	3001
820.746	2979
820.886	2944
821.026	3070
821.167	3188
821.307	3260
821.447	3291
821.588	3260
821.728	3184
821.868	3184
822.008	3097
822.149	3169
822.289	3245
822.429	3077
822.569	3077
822.709	3161
822.849	2998
822.99	3066
823.13	3165
823.27	3203
823.41	3104
823.55	3138
823.69	3135
823.83	3161
823.97	3112
824.11	2998
824.25	2990
824.389	3081
824.529	3097
824.669	3039
824.809	3222
824.949	3226
825.089	3207
825.228	3150
825.368	2994
825.508	2960
825.648	2982
825.787	2963
825.927	3017
826.067	2944
826.206	2975
826.346	3055
826.485	3074
826.625	3116
826.765	3264
826.904	3203
827.044	2986
827.183	2937
827.323	2838
827.462	2986
827.601	2895
827.741	2960
827.88	2941
828.02	2834
828.159	2941
828.298	3043
828.437	3119
828.577	3043
828.716	3211
828.855	3089
828.994	2922
829.134	2922
829.273	2918
829.412	2845
829.551	2823
829.69	2872
829.829	2967
829.968	3165
830.107	2994
830.246	3013
830.385	2906
830.524	2842
830.663	2796
830.802	2735
830.941	2625
831.08	2655
831.219	2724
831.357	2743
831.496	2956
831.635	2674
831.774	2636
831.913	2674
832.051	2579
832.19	2568
832.329	2674
832.467	2518
832.606	2480
832.744	2571
832.883	2568
833.022	2587
833.16	2632
833.299	2682
833.437	2708
833.576	2693
833.714	2720
833.852	2731
833.991	2739
834.129	2842
834.267	2838
834.406	2762
834.544	2857
834.682	2895
834.821	2838
834.959	3077
835.097	2925
835.235	3047
835.373	3017
835.511	3043
835.65	2948
835.788	2906
835.926	2819
836.064	2796
836.202	2838
836.34	3093
836.478	3188
836.615	3032
836.753	3085
836.891	3195
837.029	3180
837.167	3119
837.305	3066
837.443	3020
837.58	2960
837.718	3135
837.856	3077
837.993	3070
838.131	3138
838.269	3074
838.406	3123
838.544	3089
838.681	2952
838.819	2918
838.956	2823
839.094	2861
839.231	2891
839.369	3028
839.506	3355
839.643	3192
839.781	3017
839.918	2994
840.055	3039
840.193	3058
840.33	3055
840.467	3085
840.604	3150
840.742	3367
840.879	3039
841.016	3017
841.153	3097
841.29	3317
841.427	3275
841.564	3279
841.701	3302
841.838	3154
841.975	3173
842.112	3199
842.249	3081
842.385	3005
842.522	3233
842.659	3070
842.796	3077
842.933	3097
843.069	3039
843.206	3024
843.343	3150
843.479	3081
843.616	3142
843.752	2883
843.889	2857
844.025	3066
844.162	2887
844.298	3089
844.435	2941
844.571	2922
844.708	3047
844.844	3188
844.98	3230
845.117	3214
845.253	3039
845.389	3001
845.525	3097
845.661	3081
845.798	2986
845.934	3112
846.07	3062
846.206	3188
846.342	3275
846.478	3188
846.614	3097
846.75	3028
846.886	2982
847.022	3237
847.158	3165
847.294	3184
847.429	3241
847.565	3237
847.701	3462
847.837	2998
847.972	2990
848.108	3173
848.244	3154
848.379	2960
848.515	2986
848.65	2914
848.786	2979
848.921	3024
849.057	3093
849.192	3131
849.328	3055
849.463	3089
849.598	3062
849.734	3055
849.869	2948
850.004	2906
850.14	2979
850.275	2906
850.41	2857
850.545	2864
850.68	2944
850.815	2941
850.95	2979
851.085	3180
851.22	3070
851.355	3036
851.49	3005
851.625	2967
851.76	3005
851.895	2910
852.03	2857
852.165	2990
852.299	3093
852.434	3173
852.569	3135
852.703	3161
852.838	3230
852.973	3294
853.107	3302
853.242	3142
853.376	3066
853.511	3001
853.645	3039
853.78	3184
853.914	3131
854.048	3108
854.183	3085
854.317	3138
854.451	3272
854.585	3093
854.72	3051
854.854	3226
854.988	3028
855.122	3112
855.256	2986
855.39	3119
855.524	3195
855.658	3169
855.792	3138
855.926	3192
856.06	3207
856.194	3241
856.327	3150
856.461	3081
856.595	3066
856.729	3100
856.862	3222
856.996	3146
857.13	3195
857.263	3233
857.397	3275
857.53	3100
857.664	3180
857.797	3211
857.931	3237
858.064	3154
858.197	3233
858.331	3089
858.464	3150
858.597	3028
858.731	3104
858.864	3112
858.997	3077
859.13	3165
859.263	3184
859.396	3180
859.529	3085
859.662	3070
859.795	3032
859.928	3142
860.061	3245
860.194	3287
860.327	3138
860.46	3070
860.592	3218
860.725	3256
860.858	3218
860.99	3070
861.123	3028
861.256	3032
861.388	3150
861.521	3915
861.653	3005
861.786	2986
861.918	2975
862.05	3043
862.183	3123
862.315	3161
862.447	3165
862.58	3108
862.712	2902
862.844	2887
862.976	3043
863.108	3009
863.24	3329
863.372	2880
863.504	2914
863.636	2963
863.768	2998
863.9	2982
864.032	2899
864.164	2922
864.296	3005
864.428	3097
864.559	3070
864.691	3043
864.823	3036
864.954	3047
865.086	3043
865.217	3017
865.349	2963
865.48	2990
865.612	2967
865.743	3173
865.875	2960
866.006	2910
866.137	2971
866.269	2910
866.4	2925
866.531	2902
866.662	2876
866.793	2861
866.924	2895
867.055	2948
867.186	2918
867.317	2914
867.448	2819
867.579	2842
867.71	2845
867.841	2819
867.972	2910
868.103	2864
868.233	2868
868.364	2849
868.495	2899
868.625	3077
868.756	3146
868.886	2979
869.017	3024
869.147	3150
869.278	3165
869.408	3062
869.539	3020
869.669	3062
869.799	3017
869.929	3116
870.06	3131
870.19	3313
870.32	3321
870.45	3283
870.58	3393
870.71	3439
870.84	3469
870.97	3306
871.1	3226
871.23	3481
871.36	3462
871.489	3367
871.619	3397
871.749	3416
871.879	3420
872.008	3462
872.138	3359
872.267	3313
872.397	3116
872.526	3097
872.656	3017
872.785	3074
872.915	3218
873.044	3298
873.173	3241
873.303	3264
873.432	3275
873.561	3180
873.69	3127
873.819	3157
873.948	3180
874.077	3093
874.206	3032
874.335	3058
874.464	3192
874.593	3317
874.722	3260
874.851	3348
874.979	3332
875.108	3237
875.237	3180
875.365	3169
875.494	3161
875.623	3268
875.751	3081
875.88	3104
876.008	3192
876.136	3249
876.265	3348
876.393	3500
876.521	3405
876.65	3401
876.778	3359
876.906	3249
877.034	3207
877.162	3207
877.29	3157
877.418	3245
877.546	3218
877.674	3237
877.802	3226
877.93	3230
878.058	3150
878.185	3112
878.313	3169
878.441	3188
878.568	3066
878.696	3138
878.824	3237
878.951	3298
879.079	3416
879.206	3568
879.333	3416
879.461	3321
879.588	3294
879.715	3485
879.842	3526
879.97	3374
880.097	3138
880.224	3081
880.351	3165
880.478	3214
880.605	3203
880.732	3165
880.859	3454
880.986	3272
881.112	3302
881.239	3218
881.366	3047
881.493	3047
881.619	2979
881.746	3066
881.872	3077
881.999	3131
882.125	3097
882.252	3218
882.378	3230
882.505	3370
882.631	3275
882.757	3119
882.883	3218
883.01	3218
883.136	3108
883.262	3104
883.388	3089
883.514	3306
883.64	3348
883.766	3291
883.892	3199
884.018	3241
884.143	3389
884.269	3553
884.395	3173
884.52	3150
884.646	3157
884.772	3108
884.897	3097
885.023	3222
885.148	3355
885.274	3401
885.399	3374
885.524	3264
885.65	3272
885.775	3306
885.9	3294
886.025	3416
886.15	3340
886.275	3256
886.4	3226
886.525	3298
886.65	3226
886.775	3253
886.9	3473
887.025	3641
887.149	3409
887.274	3256
887.399	3169
887.523	3218
887.648	3131
887.773	3203
887.897	3351
888.021	3405
888.146	3260
888.27	3450
888.395	3534
888.519	3393
888.643	3412
888.767	3462
888.891	3310
889.015	3241
889.139	3268
889.263	3218
889.387	3401
889.511	3473
889.635	3439
889.759	3253
889.883	3268
890.006	3409
890.13	3462
890.254	3222
890.377	3329
890.501	3226
890.624	3173
890.748	3306
890.871	3165
890.995	3123
891.118	3062
891.241	3165
891.364	3214
891.488	3340
891.611	3192
891.734	3214
891.857	3291
891.98	3226
892.103	3310
892.226	3279
892.349	3222
892.471	3093
892.594	3203
892.717	3272
892.839	3256
892.962	3306
893.085	3367
893.207	3291
893.33	3138
893.452	3195
893.575	3332
893.697	3211
893.819	3477
893.941	3481
894.064	3447
894.186	3291
894.308	3241
894.43	3389
894.552	3519
894.674	3477
894.796	3214
894.918	3325
895.04	3310
895.161	3439
895.283	3367
895.405	3321
895.526	3382
895.648	3397
895.769	3378
895.891	3439
896.012	3485
896.134	3439
896.255	3382
896.376	3370
896.498	3363
896.619	3389
896.74	3317
896.861	3367
896.982	3690
897.103	3808
897.224	3572
897.345	3549
897.466	3401
897.587	3496
897.708	3606
897.828	3515
897.949	3378
898.07	3313
898.19	3386
898.311	3580
898.431	3389
898.552	3481
898.672	3641
898.792	3549
898.913	3500
899.033	3359
899.153	3275
899.273	3192
899.393	3253
899.513	3291
899.633	3321
899.753	3348
899.873	3302
899.993	3389
900.113	3370
900.232	3401
900.352	3340
900.472	3313
900.591	3214
900.711	3298
900.83	3230
900.95	3397
901.069	3504
901.189	3332
901.308	3157
901.427	3093
901.546	3203
901.665	3275
901.784	3310
901.904	3207
902.023	3116
902.141	2994
902.26	2971
902.379	3127
902.498	3085
902.617	3062
902.735	3169
902.854	3256
902.973	3188
903.091	3009
903.21	3036
903.328	3146
903.446	3062
903.565	3081
903.683	3237
903.801	3100
903.919	3306
904.038	3249
904.156	3150
904.274	3294
904.392	3260
904.51	3275
904.627	3321
904.745	3473
904.863	3481
904.981	3260
905.098	3142
905.216	3188
905.334	3275
905.451	3294
905.569	3302
905.686	3409
905.803	3435
905.921	3256
906.038	3405
906.155	3355
906.272	3226
906.389	3310
906.506	3233
906.623	3272
906.74	3275
906.857	3173
906.974	3222
907.091	3431
907.208	3542
907.324	3496
907.441	3378
907.557	3260
907.674	3207
907.79	3176
907.907	3310
908.023	3351
908.139	3367
908.256	3321
908.372	3386
908.488	3332
908.604	3226
908.72	3222
908.836	3245
908.952	3233
909.068	3325
909.184	3447
909.3	3389
909.415	3504
909.531	3469
909.647	3260
909.762	3294
909.878	3230
909.993	3351
910.108	3329
910.224	3336
910.339	3393
910.454	3336
910.57	3245
910.685	3230
910.8	3591
910.915	3538
911.03	3424
911.145	3233
911.259	3245
911.374	3325
911.489	3207
911.604	3180
911.718	3123
911.833	3104
911.947	3013
912.062	2982
912.176	3165
912.291	3180
912.405	3211
912.519	3401
912.633	3439
912.748	3294
912.862	3291
912.976	3123
913.09	3047
913.204	3081
913.318	3146
913.431	3329
913.545	3340
913.659	3370
913.772	3317
913.886	3188
914	3180
914.113	3332
914.226	3386
914.34	3291
914.453	3222
914.566	3443
914.68	3275
914.793	3260
914.906	3146
915.019	3112
915.132	3043
915.245	3119
915.358	3188
915.47	3237
915.583	3245
915.696	3287
915.809	3363
915.921	3393
916.034	3222
916.146	3230
916.259	3211
916.371	3363
916.483	3351
916.595	3241
916.708	3321
916.82	3321
916.932	3321
917.044	3287
917.156	3363
917.268	3283
917.38	3306
917.491	3253
917.603	3355
917.715	3416
917.826	3462
917.938	3405
918.049	3256
918.161	3424
918.272	3572
918.384	3595
918.495	3485
918.606	3329
918.717	3275
918.828	3355
918.939	3405
919.05	3313
919.161	3348
919.272	3192
919.383	3306
919.494	3481
919.604	3698
919.715	3496
919.826	3443
919.936	3435
920.047	3584
920.157	3553
920.267	3808
920.378	3610
920.488	3603
920.598	3823
920.708	3991
920.818	3896
920.928	3842
921.038	4063
921.148	4013
921.258	3759
921.368	3656
921.477	3618
921.587	3587
921.697	3542
921.806	3701
921.916	3584
922.025	3389
922.134	3370
922.244	3340
922.353	3443
922.462	3291
922.571	3298
922.68	3150
922.789	3112
922.898	3203
923.007	3142
923.116	3313
923.224	3222
923.333	3237
923.442	3184
923.55	3097
923.659	3211
923.767	3264
923.876	3173
923.984	3268
924.092	3161
924.201	3237
924.309	3253
924.417	3317
924.525	3211
924.633	3245
924.741	4044
924.849	3104
924.956	3298
925.064	3157
925.172	3085
925.279	3123
925.387	3226
925.494	3253
925.602	3401
925.709	3370
925.816	3195
925.924	3367
926.031	3443
926.138	3382
926.245	3416
926.352	3279
926.459	3466
926.566	3488
926.673	3355
926.779	3294
926.886	3332
926.993	3192
927.099	3154
927.206	3154
927.312	3161
927.419	3291
927.525	3207
927.631	3313
927.737	3207
927.843	3169
927.95	3051
928.056	3180
928.162	3233
928.267	3268
928.373	3903
928.479	3325
928.585	3100
928.69	3275
928.796	3332
928.901	3203
929.007	3074
929.112	3211
929.218	3233
929.323	3180
929.428	3165
929.533	3313
929.638	3161
929.743	3173
929.848	3283
929.953	3222
930.058	3150
930.163	3036
930.267	3051
930.372	3211
930.477	3062
930.581	3355
930.685	3226
930.79	3097
930.894	3180
930.998	3104
931.103	3344
931.207	2975
931.311	2982
931.415	2941
931.519	2811
931.623	2838
