Data from test_V78500241_945.txt Node
Date: Fri Mar 25 16:21:44 CST 2022
User: usil
Spectrometer: V785-0024
Trigger mode: 0
Integration Time (sec): 4.000000E-1
Scans to average: 1
Nonlinearity correction enabled: false
Boxcar width: 0
Storing dark spectrum: false
XAxis mode: Wavelengths
Number of Pixels in Spectrum: 1024
>>>>>Begin Spectral Data<<<<<
801.071	2937
801.214	2941
801.356	2868
801.499	2937
801.641	2883
801.783	2914
801.926	3020
802.068	2990
802.211	2982
802.353	3047
802.496	3009
802.638	3032
802.78	3020
802.923	3039
803.065	2986
803.208	2887
803.35	2864
803.492	2929
803.635	2929
803.777	2773
803.919	2853
804.061	3180
804.204	2963
804.346	2922
804.488	2842
804.63	3005
804.773	2887
804.915	2956
805.057	3112
805.199	2952
805.341	3005
805.483	3081
805.626	3017
805.768	2982
805.91	3077
806.052	3123
806.194	3077
806.336	3264
806.478	3028
806.62	2971
806.762	3017
806.904	3085
807.046	3188
807.188	2986
807.33	2906
807.472	3017
807.614	2944
807.756	2994
807.898	2906
808.04	2933
808.182	2952
808.324	2990
808.465	2895
808.607	2868
808.749	2792
808.891	2838
809.033	2956
809.174	2994
809.316	2922
809.458	2902
809.6	2807
809.741	2766
809.883	2777
810.025	2883
810.166	2868
810.308	2853
810.45	2842
810.591	2804
810.733	2788
810.875	2819
811.016	2785
811.158	2754
811.299	2826
811.441	2944
811.582	2899
811.724	2849
811.865	2830
812.007	2902
812.148	2910
812.29	2872
812.431	2880
812.573	2979
812.714	2963
812.855	3032
812.997	3066
813.138	3108
813.279	3009
813.421	2986
813.562	2963
813.703	2902
813.845	2883
813.986	2785
814.127	2735
814.268	2845
814.41	2849
814.551	2796
814.692	2868
814.833	2845
814.974	2887
815.115	2944
815.256	2834
815.397	2819
815.539	2861
815.68	2773
815.821	2807
815.962	2914
816.103	2937
816.244	2868
816.385	2895
816.526	2963
816.666	2922
816.807	2792
816.948	2891
817.089	2918
817.23	2845
817.371	2834
817.512	2800
817.653	2823
817.793	2826
817.934	2880
818.075	2990
818.216	2998
818.356	3070
818.497	2914
818.638	2750
818.778	2834
818.919	2826
819.06	2781
819.2	2868
819.341	2815
819.481	2792
819.622	2895
819.762	3100
819.903	3028
820.043	2941
820.184	2895
820.324	2887
820.465	3001
820.605	3032
820.746	3028
820.886	2979
821.026	3100
821.167	3150
821.307	3249
821.447	3268
821.588	3249
821.728	3192
821.868	3176
822.008	3070
822.149	3188
822.289	3272
822.429	3100
822.569	3062
822.709	3169
822.849	3017
822.99	3055
823.13	3154
823.27	3180
823.41	3123
823.55	3142
823.69	3142
823.83	3192
823.97	3100
824.11	2982
824.25	2982
824.389	3055
824.529	3070
824.669	3055
824.809	3180
824.949	3241
825.089	3195
825.228	3184
825.368	3009
825.508	2967
825.648	2979
825.787	3001
825.927	2990
826.067	3020
826.206	2982
826.346	3043
826.485	3085
826.625	3127
826.765	3306
826.904	3233
827.044	2982
827.183	2929
827.323	2891
827.462	2971
827.601	2918
827.741	2925
827.88	2952
828.02	2826
828.159	2960
828.298	2986
828.437	3100
828.577	3039
828.716	3241
828.855	3097
828.994	2922
829.134	2895
829.273	2902
829.412	2830
829.551	2868
829.69	2891
829.829	3005
829.968	3154
830.107	3001
830.246	3024
830.385	2910
830.524	2887
830.663	2838
830.802	2720
830.941	2674
831.08	2659
831.219	2754
831.357	2762
831.496	2933
831.635	2686
831.774	2659
831.913	2644
832.051	2549
832.19	2587
832.329	2724
832.467	2556
832.606	2488
832.744	2552
832.883	2583
833.022	2590
833.16	2663
833.299	2632
833.437	2693
833.576	2708
833.714	2712
833.852	2750
833.991	2720
834.129	2838
834.267	2800
834.406	2762
834.544	2895
834.682	2876
834.821	2861
834.959	3039
835.097	2922
835.235	3051
835.373	3028
835.511	2963
835.65	2944
835.788	2956
835.926	2845
836.064	2792
836.202	2830
836.34	3081
836.478	3142
836.615	3043
836.753	3142
836.891	3207
837.029	3188
837.167	3108
837.305	3039
837.443	3032
837.58	2967
837.718	3116
837.856	3108
837.993	3036
838.131	3131
838.269	3085
838.406	3093
838.544	3043
838.681	2910
838.819	2925
838.956	2804
839.094	2845
839.231	2910
839.369	2982
839.506	3374
839.643	3176
839.781	3009
839.918	2925
840.055	3062
840.193	3005
840.33	3062
840.467	3089
840.604	3169
840.742	3386
840.879	3051
841.016	3032
841.153	3104
841.29	3329
841.427	3298
841.564	3264
841.701	3344
841.838	3192
841.975	3169
842.112	3165
842.249	3104
842.385	3036
842.522	3260
842.659	3108
842.796	3051
842.933	3119
843.069	3055
843.206	3047
843.343	3184
843.479	3085
843.616	3157
843.752	2906
843.889	2845
844.025	3058
844.162	2910
844.298	3074
844.435	2922
844.571	2933
844.708	3055
844.844	3176
844.98	3188
845.117	3184
845.253	3043
845.389	2990
845.525	3108
845.661	3100
845.798	2963
845.934	3116
846.07	3039
846.206	3184
846.342	3302
846.478	3283
846.614	3100
846.75	3058
846.886	3028
847.022	3279
847.158	3131
847.294	3173
847.429	3268
847.565	3195
847.701	3485
847.837	3020
847.972	2990
848.108	3154
848.244	3123
848.379	2952
848.515	2929
848.65	2937
848.786	2960
848.921	3009
849.057	3085
849.192	3131
849.328	3070
849.463	3100
849.598	3089
849.734	3032
849.869	2971
850.004	2922
850.14	2971
850.275	2902
850.41	2857
850.545	2868
850.68	2925
850.815	2956
850.95	2956
851.085	3176
851.22	3138
851.355	3043
851.49	2971
851.625	2971
851.76	2986
851.895	2910
852.03	2929
852.165	2998
852.299	3119
852.434	3184
852.569	3138
852.703	3161
852.838	3253
852.973	3329
853.107	3329
853.242	3154
853.376	3093
853.511	2963
853.645	3039
853.78	3241
853.914	3081
854.048	3100
854.183	3097
854.317	3150
854.451	3291
854.585	3104
854.72	3100
854.854	3249
854.988	3043
855.122	3074
855.256	2941
855.39	3085
855.524	3237
855.658	3173
855.792	3180
855.926	3188
856.06	3245
856.194	3226
856.327	3154
856.461	3066
856.595	3093
856.729	3077
856.862	3214
856.996	3142
857.13	3203
857.263	3237
857.397	3249
857.53	3150
857.664	3218
857.797	3207
857.931	3279
858.064	3138
858.197	3211
858.331	3112
858.464	3043
858.597	2986
858.731	3138
858.864	3173
858.997	3100
859.13	3142
859.263	3161
859.396	3180
859.529	3036
859.662	3043
859.795	3081
859.928	3150
860.061	3256
860.194	3291
860.327	3116
860.46	3066
860.592	3226
860.725	3245
860.858	3253
860.99	3127
861.123	3051
861.256	3009
861.388	3157
861.521	3804
861.653	3028
861.786	2986
861.918	2975
862.05	3097
862.183	3089
862.315	3161
862.447	3176
862.58	3116
862.712	2937
862.844	2902
862.976	3009
863.108	2998
863.24	3431
863.372	2864
863.504	2933
863.636	2899
863.768	3074
863.9	2960
864.032	2922
864.164	2952
864.296	3036
864.428	3070
864.559	3085
864.691	3074
864.823	3043
864.954	3039
865.086	3032
865.217	3005
865.349	2925
865.48	2979
865.612	3028
865.743	3161
865.875	2990
866.006	2925
866.137	2948
866.269	2941
866.4	2982
866.531	2918
866.662	2891
866.793	2887
866.924	2895
867.055	2963
867.186	2944
867.317	2902
867.448	2853
867.579	2868
867.71	2811
867.841	2792
867.972	2914
868.103	2902
868.233	2864
868.364	2853
868.495	2910
868.625	3100
868.756	3161
868.886	2986
869.017	3051
869.147	3157
869.278	3173
869.408	3005
869.539	3017
869.669	3100
869.799	3055
869.929	3135
870.06	3104
870.19	3321
870.32	3298
870.45	3294
870.58	3359
870.71	3431
870.84	3431
870.97	3279
871.1	3207
871.23	3428
871.36	3431
871.489	3336
871.619	3397
871.749	3431
871.879	3454
872.008	3462
872.138	3355
872.267	3279
872.397	3108
872.526	3104
872.656	2979
872.785	3104
872.915	3218
873.044	3351
873.173	3211
873.303	3256
873.432	3222
873.561	3218
873.69	3199
873.819	3097
873.948	3192
874.077	3108
874.206	3043
874.335	3077
874.464	3211
874.593	3351
874.722	3249
874.851	3386
874.979	3389
875.108	3351
875.237	3222
875.365	3192
875.494	3123
875.623	3249
875.751	3081
875.88	3070
876.008	3199
876.136	3218
876.265	3344
876.393	3515
876.521	3397
876.65	3424
876.778	3302
876.906	3253
877.034	3195
877.162	3268
877.29	3176
877.418	3218
877.546	3233
877.674	3233
877.802	3211
877.93	3233
878.058	3119
878.185	3093
878.313	3180
878.441	3195
878.568	3070
878.696	3150
878.824	3260
878.951	3268
879.079	3431
879.206	3606
879.333	3397
879.461	3329
879.588	3355
879.715	3496
879.842	3576
879.97	3340
880.097	3150
880.224	3146
880.351	3211
880.478	3226
880.605	3192
880.732	3188
880.859	3485
880.986	3283
881.112	3325
881.239	3180
881.366	3081
881.493	3055
881.619	3005
881.746	3058
881.872	3074
881.999	3097
882.125	3150
882.252	3260
882.378	3279
882.505	3416
882.631	3260
882.757	3142
882.883	3237
883.01	3203
883.136	3154
883.262	3066
883.388	3119
883.514	3340
883.64	3389
883.766	3283
883.892	3195
884.018	3230
884.143	3409
884.269	3542
884.395	3180
884.52	3138
884.646	3180
884.772	3131
884.897	3093
885.023	3188
885.148	3283
885.274	3397
885.399	3359
885.524	3249
885.65	3230
885.775	3272
885.9	3260
886.025	3397
886.15	3329
886.275	3264
886.4	3245
886.525	3310
886.65	3264
886.775	3218
886.9	3466
887.025	3637
887.149	3374
887.274	3272
887.399	3161
887.523	3214
887.648	3169
887.773	3176
887.897	3363
888.021	3397
888.146	3298
888.27	3439
888.395	3530
888.519	3458
888.643	3454
888.767	3466
888.891	3332
889.015	3268
889.139	3317
889.263	3256
889.387	3397
889.511	3485
889.635	3469
889.759	3313
889.883	3306
890.006	3386
890.13	3473
890.254	3260
890.377	3291
890.501	3211
890.624	3169
890.748	3302
890.871	3184
890.995	3123
891.118	3043
891.241	3214
891.364	3241
891.488	3329
891.611	3135
891.734	3199
891.857	3317
891.98	3241
892.103	3332
892.226	3275
892.349	3211
892.471	3127
892.594	3222
892.717	3283
892.839	3264
892.962	3268
893.085	3367
893.207	3268
893.33	3146
893.452	3214
893.575	3340
893.697	3260
893.819	3473
893.941	3534
894.064	3458
894.186	3283
894.308	3302
894.43	3431
894.552	3542
894.674	3473
894.796	3264
894.918	3306
895.04	3245
895.161	3424
895.283	3378
895.405	3310
895.526	3374
895.648	3439
895.769	3420
895.891	3458
896.012	3466
896.134	3428
896.255	3374
896.376	3439
896.498	3329
896.619	3420
896.74	3340
896.861	3389
896.982	3663
897.103	3816
897.224	3576
897.345	3542
897.466	3454
897.587	3488
897.708	3599
897.828	3576
897.949	3447
898.07	3294
898.19	3412
898.311	3606
898.431	3443
898.552	3496
898.672	3557
898.792	3599
898.913	3481
899.033	3412
899.153	3268
899.273	3192
899.393	3253
899.513	3325
899.633	3336
899.753	3317
899.873	3310
899.993	3389
900.113	3344
900.232	3382
900.352	3363
900.472	3268
900.591	3222
900.711	3283
900.83	3211
900.95	3424
901.069	3488
901.189	3374
901.308	3173
901.427	3085
901.546	3142
901.665	3287
901.784	3336
901.904	3214
902.023	3150
902.141	3028
902.26	2937
902.379	3131
902.498	3100
902.617	3058
902.735	3195
902.854	3214
902.973	3214
903.091	3047
903.21	3051
903.328	3142
903.446	3112
903.565	3108
903.683	3161
903.801	3112
903.919	3264
904.038	3279
904.156	3135
904.274	3272
904.392	3264
904.51	3268
904.627	3329
904.745	3431
904.863	3485
904.981	3245
905.098	3165
905.216	3253
905.334	3298
905.451	3291
905.569	3298
905.686	3393
905.803	3428
905.921	3283
906.038	3428
906.155	3344
906.272	3283
906.389	3317
906.506	3245
906.623	3279
906.74	3268
906.857	3180
906.974	3256
907.091	3420
907.208	3549
907.324	3462
907.441	3409
907.557	3237
907.674	3222
907.79	3233
907.907	3264
908.023	3420
908.139	3389
908.256	3332
908.372	3367
908.488	3344
908.604	3256
908.72	3253
908.836	3283
908.952	3291
909.068	3344
909.184	3466
909.3	3405
909.415	3504
909.531	3469
909.647	3203
909.762	3348
909.878	3230
909.993	3359
910.108	3367
910.224	3298
910.339	3443
910.454	3310
910.57	3287
910.685	3237
910.8	3561
910.915	3545
911.03	3420
911.145	3260
911.259	3233
911.374	3294
911.489	3222
911.604	3233
911.718	3097
911.833	3165
911.947	3032
912.062	3001
912.176	3146
912.291	3195
912.405	3256
912.519	3374
912.633	3469
912.748	3351
912.862	3241
912.976	3184
913.09	3047
913.204	3108
913.318	3203
913.431	3363
913.545	3351
913.659	3405
913.772	3317
913.886	3222
914	3226
914.113	3359
914.226	3450
914.34	3348
914.453	3184
914.566	3393
914.68	3287
914.793	3351
914.906	3157
915.019	3135
915.132	3081
915.245	3195
915.358	3226
915.47	3268
915.583	3264
915.696	3313
915.809	3409
915.921	3401
916.034	3283
916.146	3253
916.259	3207
916.371	3378
916.483	3367
916.595	3241
916.708	3329
916.82	3340
916.932	3321
917.044	3306
917.156	3351
917.268	3325
917.38	3317
917.491	3279
917.603	3374
917.715	3500
917.826	3435
917.938	3431
918.049	3279
918.161	3409
918.272	3572
918.384	3549
918.495	3458
918.606	3332
918.717	3249
918.828	3447
918.939	3439
919.05	3283
919.161	3348
919.272	3226
919.383	3275
919.494	3477
919.604	3671
919.715	3500
919.826	3401
919.936	3428
920.047	3637
920.157	3549
920.267	3740
920.378	3580
920.488	3599
920.598	3781
920.708	3979
920.818	3846
920.928	3835
921.038	4074
921.148	3979
921.258	3713
921.368	3637
921.477	3572
921.587	3549
921.697	3439
921.806	3637
921.916	3526
922.025	3367
922.134	3351
922.244	3310
922.353	3443
922.462	3256
922.571	3226
922.68	3123
922.789	3062
922.898	3135
923.007	3093
923.116	3199
923.224	3173
923.333	3176
923.442	3085
923.55	3055
923.659	3150
923.767	3192
923.876	3097
923.984	3260
924.092	3108
924.201	3199
924.309	3226
924.417	3199
924.525	3184
924.633	3230
924.741	4143
924.849	3074
924.956	3268
925.064	3112
925.172	3043
925.279	3055
925.387	3192
925.494	3188
925.602	3351
925.709	3313
925.816	3180
925.924	3291
926.031	3348
926.138	3336
926.245	3363
926.352	3245
926.459	3409
926.566	3477
926.673	3332
926.779	3214
926.886	3218
926.993	3195
927.099	3138
927.206	3108
927.312	3093
927.419	3222
927.525	3180
927.631	3237
927.737	3116
927.843	3100
927.95	3005
928.056	3127
928.162	3203
928.267	3233
928.373	3880
928.479	3279
928.585	3062
928.69	3180
928.796	3253
928.901	3169
929.007	3058
929.112	3165
929.218	3207
929.323	3161
929.428	3123
929.533	3355
929.638	3104
929.743	3161
929.848	3237
929.953	3211
930.058	3119
930.163	3009
930.267	3028
930.372	3218
930.477	3100
930.581	3348
930.685	3195
930.79	3085
930.894	3131
930.998	3108
931.103	3294
931.207	2975
931.311	2944
931.415	2937
931.519	2804
931.623	2815
