Data from test_V78500241_1591.txt Node
Date: Fri Mar 25 16:26:13 CST 2022
User: usil
Spectrometer: V785-0024
Trigger mode: 0
Integration Time (sec): 4.000000E-1
Scans to average: 1
Nonlinearity correction enabled: false
Boxcar width: 0
Storing dark spectrum: false
XAxis mode: Wavelengths
Number of Pixels in Spectrum: 1024
>>>>>Begin Spectral Data<<<<<
801.071	2952
801.214	2941
801.356	2883
801.499	2906
801.641	2876
801.783	2944
801.926	3047
802.068	3001
802.211	3020
802.353	3055
802.496	2990
802.638	3005
802.78	3058
802.923	3085
803.065	2990
803.208	2906
803.35	2929
803.492	2960
803.635	2922
803.777	2769
803.919	2872
804.061	3199
804.204	2971
804.346	2906
804.488	2834
804.63	2967
804.773	2853
804.915	2906
805.057	3055
805.199	2925
805.341	2990
805.483	3066
805.626	2986
805.768	2944
805.91	3108
806.052	3104
806.194	3032
806.336	3230
806.478	3009
806.62	2941
806.762	2967
806.904	3051
807.046	3157
807.188	2963
807.33	2941
807.472	2944
807.614	2883
807.756	2956
807.898	2880
808.04	2887
808.182	3009
808.324	2941
808.465	2872
808.607	2876
808.749	2773
808.891	2826
809.033	2975
809.174	2975
809.316	2845
809.458	2853
809.6	2781
809.741	2769
809.883	2773
810.025	2830
810.166	2864
810.308	2853
810.45	2864
810.591	2811
810.733	2796
810.875	2853
811.016	2781
811.158	2746
811.299	2804
811.441	2910
811.582	2891
811.724	2811
811.865	2838
812.007	2914
812.148	2819
812.29	2815
812.431	2872
812.573	2929
812.714	2941
812.855	3032
812.997	3024
813.138	3112
813.279	2994
813.421	2986
813.562	2971
813.703	2880
813.845	2864
813.986	2746
814.127	2712
814.268	2796
814.41	2826
814.551	2815
814.692	2876
814.833	2777
814.974	2880
815.115	2937
815.256	2819
815.397	2834
815.539	2861
815.68	2750
815.821	2815
815.962	2922
816.103	2941
816.244	2880
816.385	2880
816.526	2952
816.666	2902
816.807	2735
816.948	2899
817.089	2899
817.23	2876
817.371	2769
817.512	2807
817.653	2834
817.793	2838
817.934	2868
818.075	2975
818.216	2979
818.356	3024
818.497	2864
818.638	2807
818.778	2830
818.919	2766
819.06	2739
819.2	2895
819.341	2800
819.481	2807
819.622	2910
819.762	3074
819.903	3043
820.043	2922
820.184	2891
820.324	2868
820.465	2963
820.605	3017
820.746	3005
820.886	2910
821.026	3131
821.167	3138
821.307	3310
821.447	3287
821.588	3249
821.728	3222
821.868	3211
822.008	3058
822.149	3233
822.289	3260
822.429	3108
822.569	3119
822.709	3180
822.849	3085
822.99	3081
823.13	3165
823.27	3233
823.41	3123
823.55	3188
823.69	3176
823.83	3253
823.97	3150
824.11	2986
824.25	3005
824.389	3081
824.529	3127
824.669	3077
824.809	3233
824.949	3291
825.089	3283
825.228	3207
825.368	3039
825.508	2990
825.648	2994
825.787	3043
825.927	3062
826.067	3017
826.206	2998
826.346	3070
826.485	3123
826.625	3146
826.765	3260
826.904	3253
827.044	3055
827.183	2979
827.323	2914
827.462	3017
827.601	2929
827.741	2960
827.88	2979
828.02	2895
828.159	2967
828.298	3074
828.437	3142
828.577	3097
828.716	3272
828.855	3089
828.994	2918
829.134	2891
829.273	2979
829.412	2910
829.551	2895
829.69	2925
829.829	3009
829.968	3199
830.107	3074
830.246	3085
830.385	2971
830.524	2925
830.663	2857
830.802	2754
830.941	2701
831.08	2670
831.219	2785
831.357	2804
831.496	3013
831.635	2788
831.774	2701
831.913	2693
832.051	2560
832.19	2617
832.329	2758
832.467	2568
832.606	2530
832.744	2602
832.883	2617
833.022	2644
833.16	2674
833.299	2705
833.437	2735
833.576	2781
833.714	2724
833.852	2746
833.991	2773
834.129	2883
834.267	2861
834.406	2826
834.544	2914
834.682	2922
834.821	2895
834.959	3112
835.097	2960
835.235	3123
835.373	3013
835.511	3097
835.65	2998
835.788	2982
835.926	2838
836.064	2845
836.202	2906
836.34	3161
836.478	3211
836.615	3104
836.753	3131
836.891	3211
837.029	3245
837.167	3142
837.305	3074
837.443	3039
837.58	2982
837.718	3150
837.856	3112
837.993	3070
838.131	3169
838.269	3123
838.406	3127
838.544	3085
838.681	2963
838.819	2918
838.956	2853
839.094	2830
839.231	2952
839.369	3058
839.506	3389
839.643	3214
839.781	3047
839.918	3028
840.055	3051
840.193	3062
840.33	3116
840.467	3135
840.604	3199
840.742	3447
840.879	3108
841.016	3085
841.153	3142
841.29	3367
841.427	3283
841.564	3302
841.701	3332
841.838	3249
841.975	3233
842.112	3306
842.249	3116
842.385	3058
842.522	3325
842.659	3142
842.796	3074
842.933	3146
843.069	3089
843.206	3070
843.343	3199
843.479	3180
843.616	3173
843.752	2929
843.889	2876
844.025	3097
844.162	2922
844.298	3119
844.435	2990
844.571	2925
844.708	3100
844.844	3188
844.98	3268
845.117	3207
845.253	3104
845.389	3013
845.525	3192
845.661	3135
845.798	3066
845.934	3154
846.07	3085
846.206	3249
846.342	3325
846.478	3245
846.614	3093
846.75	3066
846.886	3043
847.022	3294
847.158	3157
847.294	3260
847.429	3272
847.565	3260
847.701	3492
847.837	3077
847.972	3036
848.108	3173
848.244	3199
848.379	3001
848.515	2963
848.65	2979
848.786	2986
848.921	3009
849.057	3108
849.192	3131
849.328	3104
849.463	3165
849.598	3039
849.734	3085
849.869	3009
850.004	2937
850.14	2979
850.275	2963
850.41	2861
850.545	2902
850.68	2952
850.815	2998
850.95	3024
851.085	3218
851.22	3097
851.355	3055
851.49	2982
851.625	3039
851.76	3039
851.895	2967
852.03	2922
852.165	3062
852.299	3135
852.434	3214
852.569	3173
852.703	3214
852.838	3291
852.973	3367
853.107	3325
853.242	3211
853.376	3093
853.511	3001
853.645	3051
853.78	3214
853.914	3169
854.048	3154
854.183	3119
854.317	3161
854.451	3272
854.585	3154
854.72	3104
854.854	3264
854.988	3097
855.122	3104
855.256	2998
855.39	3138
855.524	3245
855.658	3207
855.792	3188
855.926	3230
856.06	3260
856.194	3249
856.327	3180
856.461	3085
856.595	3131
856.729	3127
856.862	3237
856.996	3207
857.13	3199
857.263	3275
857.397	3306
857.53	3127
857.664	3222
857.797	3199
857.931	3279
858.064	3180
858.197	3245
858.331	3157
858.464	3131
858.597	3043
858.731	3108
858.864	3146
858.997	3089
859.13	3157
859.263	3180
859.396	3192
859.529	3104
859.662	3104
859.795	3070
859.928	3119
860.061	3306
860.194	3294
860.327	3146
860.46	3116
860.592	3253
860.725	3249
860.858	3317
860.99	3116
861.123	3055
861.256	3112
861.388	3165
861.521	3880
861.653	3070
861.786	2975
861.918	3036
862.05	3055
862.183	3135
862.315	3207
862.447	3226
862.58	3131
862.712	3001
862.844	2933
862.976	3070
863.108	3028
863.24	3310
863.372	2868
863.504	2998
863.636	2971
863.768	3066
863.9	3032
864.032	2956
864.164	2986
864.296	3036
864.428	3108
864.559	3123
864.691	3112
864.823	3074
864.954	3066
865.086	3093
865.217	2994
865.349	2933
865.48	3005
865.612	3028
865.743	3154
865.875	3009
866.006	2971
866.137	3001
866.269	2979
866.4	2967
866.531	2971
866.662	2914
866.793	2941
866.924	2925
867.055	3001
867.186	2963
867.317	2918
867.448	2872
867.579	2872
867.71	2883
867.841	2830
867.972	2906
868.103	2918
868.233	2880
868.364	2883
868.495	2910
868.625	3104
868.756	3135
868.886	3013
869.017	3028
869.147	3222
869.278	3207
869.408	3074
869.539	3039
869.669	3097
869.799	3043
869.929	3146
870.06	3123
870.19	3332
870.32	3306
870.45	3302
870.58	3378
870.71	3447
870.84	3485
870.97	3321
871.1	3294
871.23	3488
871.36	3447
871.489	3367
871.619	3443
871.749	3431
871.879	3435
872.008	3500
872.138	3359
872.267	3291
872.397	3161
872.526	3157
872.656	3024
872.785	3138
872.915	3275
873.044	3336
873.173	3256
873.303	3256
873.432	3298
873.561	3256
873.69	3157
873.819	3154
873.948	3222
874.077	3108
874.206	3051
874.335	3085
874.464	3222
874.593	3355
874.722	3268
874.851	3382
874.979	3367
875.108	3321
875.237	3226
875.365	3180
875.494	3188
875.623	3272
875.751	3112
875.88	3104
876.008	3249
876.136	3245
876.265	3393
876.393	3519
876.521	3409
876.65	3370
876.778	3332
876.906	3237
877.034	3192
877.162	3214
877.29	3188
877.418	3306
877.546	3256
877.674	3233
877.802	3253
877.93	3230
878.058	3154
878.185	3119
878.313	3230
878.441	3230
878.568	3093
878.696	3157
878.824	3268
878.951	3306
879.079	3469
879.206	3629
879.333	3431
879.461	3348
879.588	3344
879.715	3481
879.842	3595
879.97	3405
880.097	3188
880.224	3165
880.351	3195
880.478	3256
880.605	3173
880.732	3199
880.859	3523
880.986	3344
881.112	3355
881.239	3199
881.366	3112
881.493	3017
881.619	3028
881.746	3074
881.872	3116
881.999	3085
882.125	3123
882.252	3279
882.378	3313
882.505	3485
882.631	3287
882.757	3165
882.883	3184
883.01	3268
883.136	3161
883.262	3097
883.388	3119
883.514	3306
883.64	3424
883.766	3336
883.892	3211
884.018	3241
884.143	3412
884.269	3564
884.395	3222
884.52	3176
884.646	3218
884.772	3112
884.897	3100
885.023	3226
885.148	3351
885.274	3428
885.399	3363
885.524	3279
885.65	3256
885.775	3329
885.9	3260
886.025	3428
886.15	3374
886.275	3325
886.4	3245
886.525	3306
886.65	3294
886.775	3291
886.9	3496
887.025	3641
887.149	3420
887.274	3249
887.399	3188
887.523	3233
887.648	3230
887.773	3195
887.897	3378
888.021	3378
888.146	3321
888.27	3428
888.395	3564
888.519	3454
888.643	3477
888.767	3439
888.891	3306
889.015	3256
889.139	3291
889.263	3249
889.387	3412
889.511	3542
889.635	3466
889.759	3306
889.883	3321
890.006	3351
890.13	3523
890.254	3283
890.377	3351
890.501	3222
890.624	3188
890.748	3294
890.871	3176
890.995	3127
891.118	3089
891.241	3173
891.364	3214
891.488	3317
891.611	3188
891.734	3188
891.857	3344
891.98	3313
892.103	3336
892.226	3310
892.349	3211
892.471	3180
892.594	3264
892.717	3344
892.839	3291
892.962	3279
893.085	3363
893.207	3321
893.33	3169
893.452	3237
893.575	3340
893.697	3241
893.819	3477
893.941	3507
894.064	3374
894.186	3275
894.308	3264
894.43	3454
894.552	3576
894.674	3466
894.796	3264
894.918	3329
895.04	3268
895.161	3477
895.283	3416
895.405	3291
895.526	3351
895.648	3458
895.769	3439
895.891	3481
896.012	3492
896.134	3469
896.255	3374
896.376	3409
896.498	3389
896.619	3447
896.74	3348
896.861	3424
896.982	3698
897.103	3819
897.224	3599
897.345	3519
897.466	3420
897.587	3492
897.708	3591
897.828	3549
897.949	3443
898.07	3370
898.19	3401
898.311	3580
898.431	3443
898.552	3545
898.672	3587
898.792	3549
898.913	3549
899.033	3409
899.153	3321
899.273	3214
899.393	3298
899.513	3348
899.633	3298
899.753	3332
899.873	3336
899.993	3424
900.113	3321
900.232	3393
900.352	3367
900.472	3298
900.591	3207
900.711	3291
900.83	3211
900.95	3431
901.069	3504
901.189	3321
901.308	3192
901.427	3123
901.546	3222
901.665	3317
901.784	3363
901.904	3237
902.023	3173
902.141	3043
902.26	3017
902.379	3173
902.498	3104
902.617	3028
902.735	3218
902.854	3233
902.973	3230
903.091	3047
903.21	3051
903.328	3135
903.446	3131
903.565	3081
903.683	3199
903.801	3150
903.919	3249
904.038	3306
904.156	3142
904.274	3302
904.392	3287
904.51	3272
904.627	3321
904.745	3416
904.863	3462
904.981	3298
905.098	3192
905.216	3226
905.334	3336
905.451	3321
905.569	3287
905.686	3439
905.803	3431
905.921	3302
906.038	3401
906.155	3348
906.272	3279
906.389	3351
906.506	3249
906.623	3226
906.74	3302
906.857	3184
906.974	3260
907.091	3458
907.208	3587
907.324	3469
907.441	3382
907.557	3287
907.674	3253
907.79	3184
907.907	3283
908.023	3359
908.139	3344
908.256	3359
908.372	3378
908.488	3359
908.604	3287
908.72	3230
908.836	3325
908.952	3321
909.068	3340
909.184	3458
909.3	3393
909.415	3485
909.531	3469
909.647	3268
909.762	3298
909.878	3253
909.993	3363
910.108	3313
910.224	3370
910.339	3424
910.454	3294
910.57	3306
910.685	3272
910.8	3564
910.915	3504
911.03	3439
911.145	3253
911.259	3283
911.374	3313
911.489	3237
911.604	3256
911.718	3119
911.833	3157
911.947	3032
912.062	2967
912.176	3138
912.291	3207
912.405	3199
912.519	3458
912.633	3439
912.748	3355
912.862	3275
912.976	3146
913.09	3055
913.204	3157
913.318	3222
913.431	3355
913.545	3332
913.659	3386
913.772	3344
913.886	3222
914	3184
914.113	3397
914.226	3378
914.34	3386
914.453	3218
914.566	3393
914.68	3313
914.793	3317
914.906	3123
915.019	3093
915.132	3070
915.245	3211
915.358	3226
915.47	3218
915.583	3264
915.696	3283
915.809	3397
915.921	3389
916.034	3230
916.146	3241
916.259	3214
916.371	3420
916.483	3389
916.595	3306
916.708	3344
916.82	3310
916.932	3348
917.044	3355
917.156	3363
917.268	3260
917.38	3253
917.491	3279
917.603	3386
917.715	3431
917.826	3473
917.938	3378
918.049	3275
918.161	3416
918.272	3576
918.384	3568
918.495	3519
918.606	3367
918.717	3249
918.828	3363
918.939	3412
919.05	3310
919.161	3393
919.272	3146
919.383	3260
919.494	3500
919.604	3648
919.715	3523
919.826	3443
919.936	3454
920.047	3610
920.157	3515
920.267	3762
920.378	3610
920.488	3568
920.598	3800
920.708	3949
920.818	3816
920.928	3823
921.038	4002
921.148	4032
921.258	3679
921.368	3663
921.477	3576
921.587	3603
921.697	3481
921.806	3625
921.916	3511
922.025	3363
922.134	3359
922.244	3329
922.353	3382
922.462	3279
922.571	3218
922.68	3138
922.789	3077
922.898	3123
923.007	3131
923.116	3218
923.224	3188
923.333	3176
923.442	3081
923.55	3123
923.659	3188
923.767	3222
923.876	3119
923.984	3241
924.092	3093
924.201	3180
924.309	3188
924.417	3253
924.525	3192
924.633	3233
924.741	4181
924.849	3032
924.956	3245
925.064	3108
925.172	3036
925.279	3085
925.387	3180
925.494	3214
925.602	3348
925.709	3317
925.816	3195
925.924	3256
926.031	3382
926.138	3321
926.245	3351
926.352	3272
926.459	3424
926.566	3458
926.673	3287
926.779	3256
926.886	3275
926.993	3165
927.099	3169
927.206	3097
927.312	3119
927.419	3233
927.525	3211
927.631	3298
927.737	3142
927.843	3112
927.95	3055
928.056	3131
928.162	3146
928.267	3226
928.373	3896
928.479	3325
928.585	3043
928.69	3207
928.796	3256
928.901	3154
929.007	3028
929.112	3218
929.218	3161
929.323	3161
929.428	3146
929.533	3336
929.638	3161
929.743	3165
929.848	3230
929.953	3226
930.058	3108
930.163	2979
930.267	3043
930.372	3157
930.477	3070
930.581	3302
930.685	3142
930.79	3062
930.894	3108
930.998	3112
931.103	3291
931.207	2979
931.311	2952
931.415	2952
931.519	2769
931.623	2773
