Data from test_V78500241_2009.txt Node
Date: Fri Mar 25 16:29:07 CST 2022
User: usil
Spectrometer: V785-0024
Trigger mode: 0
Integration Time (sec): 4.000000E-1
Scans to average: 1
Nonlinearity correction enabled: false
Boxcar width: 0
Storing dark spectrum: false
XAxis mode: Wavelengths
Number of Pixels in Spectrum: 1024
>>>>>Begin Spectral Data<<<<<
801.071	2899
801.214	2941
801.356	2849
801.499	2876
801.641	2849
801.783	2914
801.926	3032
802.068	2952
802.211	2986
802.353	3032
802.496	2925
802.638	3009
802.78	2990
802.923	3100
803.065	3013
803.208	2861
803.35	2899
803.492	2933
803.635	2910
803.777	2746
803.919	2857
804.061	3146
804.204	2944
804.346	2895
804.488	2864
804.63	2960
804.773	2861
804.915	2929
805.057	3081
805.199	2887
805.341	2960
805.483	3051
805.626	3020
805.768	2967
805.91	3070
806.052	3108
806.194	3028
806.336	3207
806.478	2990
806.62	2937
806.762	2975
806.904	3074
807.046	3142
807.188	2933
807.33	2914
807.472	2963
807.614	2899
807.756	3028
807.898	2944
808.04	2918
808.182	2975
808.324	2960
808.465	2880
808.607	2864
808.749	2788
808.891	2883
809.033	2986
809.174	2952
809.316	2880
809.458	2922
809.6	2762
809.741	2788
809.883	2750
810.025	2864
810.166	2849
810.308	2826
810.45	2785
810.591	2746
810.733	2754
810.875	2815
811.016	2758
811.158	2743
811.299	2819
811.441	2914
811.582	2876
811.724	2796
811.865	2849
812.007	2891
812.148	2876
812.29	2853
812.431	2868
812.573	2929
812.714	2956
812.855	3043
812.997	3039
813.138	3108
813.279	3020
813.421	2971
813.562	2952
813.703	2849
813.845	2910
813.986	2823
814.127	2697
814.268	2800
814.41	2849
814.551	2792
814.692	2883
814.833	2830
814.974	2880
815.115	2941
815.256	2804
815.397	2842
815.539	2842
815.68	2800
815.821	2800
815.962	2941
816.103	2937
816.244	2899
816.385	2853
816.526	2982
816.666	2918
816.807	2739
816.948	2883
817.089	2880
817.23	2861
817.371	2796
817.512	2815
817.653	2834
817.793	2796
817.934	2899
818.075	2994
818.216	2979
818.356	3047
818.497	2880
818.638	2788
818.778	2807
818.919	2815
819.06	2769
819.2	2891
819.341	2788
819.481	2811
819.622	2941
819.762	3104
819.903	3047
820.043	2925
820.184	2910
820.324	2876
820.465	3017
820.605	3001
820.746	3009
820.886	2933
821.026	3077
821.167	3169
821.307	3222
821.447	3291
821.588	3237
821.728	3195
821.868	3176
822.008	3097
822.149	3173
822.289	3226
822.429	3081
822.569	3081
822.709	3184
822.849	3036
822.99	3058
823.13	3157
823.27	3180
823.41	3112
823.55	3146
823.69	3154
823.83	3192
823.97	3135
824.11	2971
824.25	2990
824.389	3074
824.529	3089
824.669	3058
824.809	3207
824.949	3233
825.089	3230
825.228	3116
825.368	2967
825.508	2918
825.648	2937
825.787	2990
825.927	2998
826.067	2952
826.206	2956
826.346	3028
826.485	3043
826.625	3097
826.765	3249
826.904	3184
827.044	2994
827.183	2899
827.323	2868
827.462	2963
827.601	2887
827.741	2944
827.88	2937
828.02	2845
828.159	2952
828.298	2982
828.437	3100
828.577	2998
828.716	3211
828.855	3066
828.994	2906
829.134	2883
829.273	2925
829.412	2868
829.551	2883
829.69	2853
829.829	3017
829.968	3119
830.107	3009
830.246	3047
830.385	2899
830.524	2849
830.663	2838
830.802	2727
830.941	2625
831.08	2648
831.219	2743
831.357	2735
831.496	2899
831.635	2689
831.774	2598
831.913	2655
832.051	2552
832.19	2587
832.329	2632
832.467	2518
832.606	2450
832.744	2552
832.883	2594
833.022	2568
833.16	2644
833.299	2663
833.437	2716
833.576	2682
833.714	2727
833.852	2720
833.991	2727
834.129	2823
834.267	2800
834.406	2819
834.544	2868
834.682	2887
834.821	2845
834.959	3070
835.097	2914
835.235	3074
835.373	2967
835.511	3013
835.65	2929
835.788	2910
835.926	2804
836.064	2815
836.202	2823
836.34	3112
836.478	3169
836.615	3032
836.753	3116
836.891	3214
837.029	3169
837.167	3093
837.305	3013
837.443	3055
837.58	2914
837.718	3131
837.856	3089
837.993	3047
838.131	3119
838.269	3100
838.406	3089
838.544	3036
838.681	2906
838.819	2933
838.956	2781
839.094	2849
839.231	2902
839.369	3005
839.506	3386
839.643	3230
839.781	2986
839.918	2963
840.055	3043
840.193	3001
840.33	3024
840.467	3104
840.604	3131
840.742	3382
840.879	3024
841.016	2986
841.153	3142
841.29	3344
841.427	3287
841.564	3272
841.701	3283
841.838	3230
841.975	3169
842.112	3184
842.249	3074
842.385	3024
842.522	3180
842.659	3093
842.796	3039
842.933	3093
843.069	3043
843.206	3032
843.343	3192
843.479	3097
843.616	3131
843.752	2895
843.889	2857
844.025	3047
844.162	2861
844.298	3055
844.435	2922
844.571	2899
844.708	3097
844.844	3127
844.98	3218
845.117	3176
845.253	3100
845.389	3005
845.525	3070
845.661	3116
845.798	2998
845.934	3085
846.07	3089
846.206	3188
846.342	3302
846.478	3230
846.614	3074
846.75	3020
846.886	2986
847.022	3226
847.158	3116
847.294	3169
847.429	3253
847.565	3207
847.701	3488
847.837	3043
847.972	2994
848.108	3161
848.244	3150
848.379	3001
848.515	2960
848.65	2902
848.786	2963
848.921	2971
849.057	3116
849.192	3146
849.328	3093
849.463	3119
849.598	3051
849.734	3032
849.869	2929
850.004	2899
850.14	2933
850.275	2891
850.41	2823
850.545	2864
850.68	2937
850.815	2979
850.95	2952
851.085	3195
851.22	3138
851.355	3001
851.49	2990
851.625	2990
851.76	3005
851.895	2899
852.03	2899
852.165	3039
852.299	3104
852.434	3180
852.569	3135
852.703	3154
852.838	3199
852.973	3329
853.107	3329
853.242	3142
853.376	3077
853.511	2944
853.645	3005
853.78	3230
853.914	3135
854.048	3116
854.183	3097
854.317	3127
854.451	3245
854.585	3138
854.72	3077
854.854	3245
854.988	3024
855.122	3066
855.256	2971
855.39	3123
855.524	3233
855.658	3165
855.792	3169
855.926	3176
856.06	3226
856.194	3279
856.327	3169
856.461	3074
856.595	3081
856.729	3116
856.862	3173
856.996	3176
857.13	3180
857.263	3230
857.397	3241
857.53	3077
857.664	3188
857.797	3237
857.931	3222
858.064	3154
858.197	3214
858.331	3173
858.464	3081
858.597	2963
858.731	3116
858.864	3097
858.997	3074
859.13	3161
859.263	3150
859.396	3184
859.529	3081
859.662	3036
859.795	3020
859.928	3138
860.061	3245
860.194	3245
860.327	3131
860.46	3100
860.592	3222
860.725	3264
860.858	3203
860.99	3077
861.123	3055
861.256	3051
861.388	3135
861.521	3819
861.653	2994
861.786	3005
861.918	2979
862.05	3070
862.183	3074
862.315	3195
862.447	3218
862.58	3123
862.712	2960
862.844	2891
862.976	3070
863.108	3036
863.24	3302
863.372	2880
863.504	2941
863.636	2922
863.768	3036
863.9	2975
864.032	2922
864.164	2963
864.296	3013
864.428	3112
864.559	3062
864.691	3089
864.823	3062
864.954	3024
865.086	3043
865.217	2979
865.349	2944
865.48	2986
865.612	2979
865.743	3116
865.875	2960
866.006	2929
866.137	2960
866.269	2941
866.4	2910
866.531	2891
866.662	2876
866.793	2895
866.924	2914
867.055	2975
867.186	2895
867.317	2861
867.448	2830
867.579	2876
867.71	2857
867.841	2811
867.972	2941
868.103	2918
868.233	2895
868.364	2853
868.495	2910
868.625	3058
868.756	3154
868.886	2933
869.017	3013
869.147	3131
869.278	3157
869.408	3032
869.539	3051
869.669	3116
869.799	3051
869.929	3123
870.06	3081
870.19	3329
870.32	3268
870.45	3272
870.58	3416
870.71	3447
870.84	3420
870.97	3237
871.1	3226
871.23	3439
871.36	3469
871.489	3340
871.619	3382
871.749	3409
871.879	3412
872.008	3488
872.138	3348
872.267	3275
872.397	3165
872.526	3104
872.656	3005
872.785	3058
872.915	3218
873.044	3329
873.173	3203
873.303	3249
873.432	3264
873.561	3184
873.69	3146
873.819	3146
873.948	3203
874.077	3074
874.206	3036
874.335	3062
874.464	3199
874.593	3348
874.722	3233
874.851	3355
874.979	3321
875.108	3306
875.237	3173
875.365	3127
875.494	3184
875.623	3233
875.751	3066
875.88	3142
876.008	3184
876.136	3237
876.265	3378
876.393	3515
876.521	3431
876.65	3363
876.778	3336
876.906	3268
877.034	3192
877.162	3222
877.29	3142
877.418	3241
877.546	3214
877.674	3260
877.802	3211
877.93	3226
878.058	3165
878.185	3108
878.313	3214
878.441	3207
878.568	3062
878.696	3154
878.824	3268
878.951	3283
879.079	3405
879.206	3587
879.333	3443
879.461	3298
879.588	3348
879.715	3458
879.842	3606
879.97	3378
880.097	3176
880.224	3135
880.351	3150
880.478	3207
880.605	3176
880.732	3180
880.859	3507
880.986	3317
881.112	3291
881.239	3169
881.366	3089
881.493	3032
881.619	2986
881.746	3112
881.872	3085
881.999	3074
882.125	3127
882.252	3260
882.378	3249
882.505	3393
882.631	3291
882.757	3108
882.883	3203
883.01	3195
883.136	3100
883.262	3074
883.388	3119
883.514	3332
883.64	3340
883.766	3302
883.892	3169
884.018	3226
884.143	3416
884.269	3511
884.395	3203
884.52	3154
884.646	3184
884.772	3146
884.897	3104
885.023	3192
885.148	3348
885.274	3443
885.399	3367
885.524	3253
885.65	3237
885.775	3340
885.9	3264
886.025	3447
886.15	3348
886.275	3287
886.4	3245
886.525	3355
886.65	3253
886.775	3260
886.9	3496
887.025	3629
887.149	3355
887.274	3230
887.399	3161
887.523	3176
887.648	3203
887.773	3199
887.897	3329
888.021	3412
888.146	3325
888.27	3443
888.395	3507
888.519	3374
888.643	3439
888.767	3424
888.891	3291
889.015	3253
889.139	3291
889.263	3230
889.387	3386
889.511	3526
889.635	3435
889.759	3298
889.883	3272
890.006	3363
890.13	3458
890.254	3245
890.377	3268
890.501	3214
890.624	3169
890.748	3272
890.871	3150
890.995	3077
891.118	3077
891.241	3188
891.364	3173
891.488	3287
891.611	3233
891.734	3226
891.857	3275
891.98	3260
892.103	3325
892.226	3279
892.349	3214
892.471	3097
892.594	3192
892.717	3272
892.839	3272
892.962	3344
893.085	3348
893.207	3268
893.33	3154
893.452	3192
893.575	3340
893.697	3214
893.819	3450
893.941	3523
894.064	3466
894.186	3253
894.308	3249
894.43	3469
894.552	3496
894.674	3485
894.796	3260
894.918	3291
895.04	3260
895.161	3424
895.283	3363
895.405	3306
895.526	3367
895.648	3462
895.769	3466
895.891	3462
896.012	3458
896.134	3454
896.255	3409
896.376	3344
896.498	3348
896.619	3428
896.74	3351
896.861	3405
896.982	3698
897.103	3819
897.224	3580
897.345	3496
897.466	3374
897.587	3473
897.708	3637
897.828	3553
897.949	3435
898.07	3317
898.19	3401
898.311	3580
898.431	3382
898.552	3492
898.672	3584
898.792	3572
898.913	3504
899.033	3378
899.153	3279
899.273	3237
899.393	3291
899.513	3325
899.633	3317
899.753	3275
899.873	3268
899.993	3397
900.113	3374
900.232	3363
900.352	3306
900.472	3275
900.591	3214
900.711	3291
900.83	3203
900.95	3348
901.069	3511
901.189	3325
901.308	3199
901.427	3119
901.546	3169
901.665	3249
901.784	3359
901.904	3241
902.023	3154
902.141	2979
902.26	2986
902.379	3135
902.498	3089
902.617	3028
902.735	3211
902.854	3214
902.973	3173
903.091	3032
903.21	3077
903.328	3146
903.446	3077
903.565	3085
903.683	3218
903.801	3123
903.919	3241
904.038	3256
904.156	3180
904.274	3275
904.392	3241
904.51	3291
904.627	3363
904.745	3420
904.863	3466
904.981	3249
905.098	3127
905.216	3199
905.334	3253
905.451	3294
905.569	3313
905.686	3374
905.803	3439
905.921	3241
906.038	3363
906.155	3317
906.272	3283
906.389	3363
906.506	3222
906.623	3268
906.74	3256
906.857	3195
906.974	3256
907.091	3409
907.208	3580
907.324	3454
907.441	3367
907.557	3241
907.674	3226
907.79	3218
907.907	3287
908.023	3393
908.139	3332
908.256	3340
908.372	3370
908.488	3325
908.604	3245
908.72	3192
908.836	3287
908.952	3294
909.068	3298
909.184	3473
909.3	3386
909.415	3462
909.531	3439
909.647	3264
909.762	3260
909.878	3272
909.993	3332
910.108	3355
910.224	3325
910.339	3363
910.454	3340
910.57	3310
910.685	3199
910.8	3568
910.915	3523
911.03	3424
911.145	3237
911.259	3260
911.374	3275
911.489	3173
911.604	3203
911.718	3108
911.833	3150
911.947	3009
912.062	2952
912.176	3154
912.291	3157
912.405	3199
912.519	3405
912.633	3473
912.748	3355
912.862	3264
912.976	3146
913.09	3051
913.204	3142
913.318	3195
913.431	3329
913.545	3348
913.659	3382
913.772	3363
913.886	3188
914	3207
914.113	3370
914.226	3405
914.34	3389
914.453	3222
914.566	3389
914.68	3321
914.793	3351
914.906	3161
915.019	3119
915.132	3077
915.245	3218
915.358	3214
915.47	3275
915.583	3264
915.696	3321
915.809	3428
915.921	3443
916.034	3272
916.146	3287
916.259	3245
916.371	3401
916.483	3355
916.595	3287
916.708	3313
916.82	3313
916.932	3367
917.044	3431
917.156	3401
917.268	3294
917.38	3344
917.491	3310
917.603	3386
917.715	3488
917.826	3492
917.938	3443
918.049	3294
918.161	3393
918.272	3584
918.384	3633
918.495	3523
918.606	3344
918.717	3317
918.828	3409
918.939	3420
919.05	3336
919.161	3412
919.272	3233
919.383	3351
919.494	3538
919.604	3736
919.715	3473
919.826	3458
919.936	3500
920.047	3625
920.157	3610
920.267	3774
920.378	3667
920.488	3622
920.598	3770
920.708	3987
920.818	3888
920.928	3865
921.038	4086
921.148	4013
921.258	3740
921.368	3671
921.477	3606
921.587	3606
921.697	3485
921.806	3622
921.916	3515
922.025	3435
922.134	3405
922.244	3412
922.353	3462
922.462	3325
922.571	3272
922.68	3154
922.789	3119
922.898	3192
923.007	3131
923.116	3256
923.224	3188
923.333	3195
923.442	3154
923.55	3116
923.659	3135
923.767	3264
923.876	3157
923.984	3298
924.092	3150
924.201	3237
924.309	3256
924.417	3283
924.525	3218
924.633	3264
924.741	4223
924.849	3093
924.956	3298
925.064	3116
925.172	3043
925.279	3138
925.387	3184
925.494	3222
925.602	3405
925.709	3374
925.816	3218
925.924	3348
926.031	3355
926.138	3348
926.245	3416
926.352	3279
926.459	3458
926.566	3500
926.673	3393
926.779	3268
926.886	3313
926.993	3199
927.099	3176
927.206	3176
927.312	3199
927.419	3256
927.525	3222
927.631	3279
927.737	3142
927.843	3142
927.95	3039
928.056	3154
928.162	3157
928.267	3321
928.373	3873
928.479	3310
928.585	3100
928.69	3268
928.796	3268
928.901	3211
929.007	3070
929.112	3203
929.218	3199
929.323	3176
929.428	3203
929.533	3291
929.638	3142
929.743	3214
929.848	3287
929.953	3241
930.058	3180
930.163	3013
930.267	3081
930.372	3226
930.477	3062
930.581	3359
930.685	3207
930.79	3097
930.894	3154
930.998	3138
931.103	3294
931.207	2960
931.311	2944
931.415	2963
931.519	2815
931.623	2857
