Data from test_V78500241_1426.txt Node
Date: Fri Mar 25 16:25:04 CST 2022
User: usil
Spectrometer: V785-0024
Trigger mode: 0
Integration Time (sec): 4.000000E-1
Scans to average: 1
Nonlinearity correction enabled: false
Boxcar width: 0
Storing dark spectrum: false
XAxis mode: Wavelengths
Number of Pixels in Spectrum: 1024
>>>>>Begin Spectral Data<<<<<
801.071	2891
801.214	2944
801.356	2864
801.499	2952
801.641	2876
801.783	2933
801.926	3062
802.068	2998
802.211	3009
802.353	3047
802.496	2963
802.638	3005
802.78	3039
802.923	3081
803.065	2963
803.208	2887
803.35	2918
803.492	2937
803.635	2952
803.777	2777
803.919	2845
804.061	3199
804.204	2960
804.346	2857
804.488	2861
804.63	2979
804.773	2845
804.915	2906
805.057	3108
805.199	2941
805.341	2960
805.483	3051
805.626	2990
805.768	2944
805.91	3077
806.052	3081
806.194	3028
806.336	3199
806.478	3024
806.62	2952
806.762	2963
806.904	3036
807.046	3154
807.188	2990
807.33	2902
807.472	2986
807.614	2914
807.756	2971
807.898	2914
808.04	2868
808.182	2963
808.324	2941
808.465	2899
808.607	2891
808.749	2777
808.891	2853
809.033	2948
809.174	2952
809.316	2891
809.458	2899
809.6	2746
809.741	2758
809.883	2769
810.025	2823
810.166	2891
810.308	2853
810.45	2853
810.591	2769
810.733	2769
810.875	2834
811.016	2769
811.158	2758
811.299	2826
811.441	2929
811.582	2880
811.724	2830
811.865	2826
812.007	2914
812.148	2864
812.29	2861
812.431	2902
812.573	2929
812.714	2975
812.855	3047
812.997	3028
813.138	3127
813.279	3028
813.421	2979
813.562	2956
813.703	2838
813.845	2880
813.986	2788
814.127	2708
814.268	2823
814.41	2849
814.551	2792
814.692	2853
814.833	2807
814.974	2906
815.115	2914
815.256	2819
815.397	2826
815.539	2864
815.68	2750
815.821	2800
815.962	2937
816.103	2910
816.244	2853
816.385	2857
816.526	2952
816.666	2902
816.807	2743
816.948	2883
817.089	2891
817.23	2823
817.371	2773
817.512	2773
817.653	2849
817.793	2838
817.934	2922
818.075	2933
818.216	2994
818.356	2998
818.497	2853
818.638	2811
818.778	2853
818.919	2792
819.06	2743
819.2	2895
819.341	2777
819.481	2769
819.622	2918
819.762	3085
819.903	3032
820.043	2895
820.184	2876
820.324	2891
820.465	3047
820.605	3070
820.746	3051
820.886	2937
821.026	3112
821.167	3180
821.307	3230
821.447	3264
821.588	3233
821.728	3157
821.868	3169
822.008	3085
822.149	3184
822.289	3203
822.429	3085
822.569	3100
822.709	3135
822.849	3020
822.99	3039
823.13	3146
823.27	3192
823.41	3123
823.55	3165
823.69	3150
823.83	3165
823.97	3108
824.11	2990
824.25	3013
824.389	3036
824.529	3112
824.669	3074
824.809	3203
824.949	3260
825.089	3233
825.228	3211
825.368	2994
825.508	2963
825.648	2975
825.787	3001
825.927	2990
826.067	2944
826.206	2925
826.346	3066
826.485	3047
826.625	3085
826.765	3260
826.904	3233
827.044	2990
827.183	2944
827.323	2872
827.462	2982
827.601	2902
827.741	2963
827.88	2937
828.02	2864
828.159	2975
828.298	3036
828.437	3097
828.577	3017
828.716	3226
828.855	3074
828.994	2925
829.134	2857
829.273	2899
829.412	2807
829.551	2853
829.69	2910
829.829	2963
829.968	3097
830.107	2982
830.246	3001
830.385	2883
830.524	2857
830.663	2807
830.802	2716
830.941	2655
831.08	2636
831.219	2758
831.357	2739
831.496	2967
831.635	2701
831.774	2644
831.913	2651
832.051	2552
832.19	2587
832.329	2670
832.467	2530
832.606	2442
832.744	2533
832.883	2598
833.022	2606
833.16	2655
833.299	2651
833.437	2712
833.576	2674
833.714	2678
833.852	2750
833.991	2785
834.129	2788
834.267	2800
834.406	2826
834.544	2853
834.682	2861
834.821	2834
834.959	3085
835.097	2883
835.235	3051
835.373	2967
835.511	3028
835.65	2929
835.788	2982
835.926	2796
836.064	2815
836.202	2785
836.34	3085
836.478	3135
836.615	3070
836.753	3100
836.891	3207
837.029	3176
837.167	3112
837.305	3089
837.443	3036
837.58	2956
837.718	3131
837.856	3093
837.993	3055
838.131	3077
838.269	3074
838.406	3066
838.544	3066
838.681	2899
838.819	2876
838.956	2807
839.094	2815
839.231	2895
839.369	3001
839.506	3382
839.643	3180
839.781	3009
839.918	2952
840.055	3070
840.193	3013
840.33	3077
840.467	3070
840.604	3142
840.742	3382
840.879	3062
841.016	3036
841.153	3100
841.29	3332
841.427	3287
841.564	3256
841.701	3287
841.838	3203
841.975	3169
842.112	3184
842.249	3043
842.385	3028
842.522	3230
842.659	3089
842.796	3047
842.933	3089
843.069	3032
843.206	3043
843.343	3138
843.479	3097
843.616	3138
843.752	2857
843.889	2861
844.025	3058
844.162	2918
844.298	3066
844.435	2948
844.571	2883
844.708	3039
844.844	3192
844.98	3211
845.117	3161
845.253	3036
845.389	2979
845.525	3077
845.661	3062
845.798	2963
845.934	3123
846.07	3043
846.206	3218
846.342	3310
846.478	3207
846.614	3108
846.75	3047
846.886	3036
847.022	3226
847.158	3119
847.294	3180
847.429	3253
847.565	3222
847.701	3507
847.837	3017
847.972	2956
848.108	3135
848.244	3131
848.379	2967
848.515	2956
848.65	2883
848.786	2971
848.921	2990
849.057	3123
849.192	3135
849.328	3017
849.463	3062
849.598	3070
849.734	3009
849.869	2929
850.004	2910
850.14	2967
850.275	2887
850.41	2842
850.545	2857
850.68	2910
850.815	2918
850.95	2994
851.085	3176
851.22	3131
851.355	3017
851.49	2952
851.625	2952
851.76	3024
851.895	2922
852.03	2895
852.165	2967
852.299	3123
852.434	3203
852.569	3154
852.703	3138
852.838	3199
852.973	3329
853.107	3340
853.242	3146
853.376	3097
853.511	2952
853.645	3039
853.78	3203
853.914	3116
854.048	3104
854.183	3070
854.317	3146
854.451	3294
854.585	3138
854.72	3066
854.854	3218
854.988	3062
855.122	3085
855.256	2952
855.39	3097
855.524	3256
855.658	3173
855.792	3138
855.926	3188
856.06	3230
856.194	3226
856.327	3161
856.461	3032
856.595	3081
856.729	3058
856.862	3180
856.996	3116
857.13	3211
857.263	3230
857.397	3268
857.53	3112
857.664	3180
857.797	3222
857.931	3260
858.064	3138
858.197	3207
858.331	3108
858.464	3077
858.597	2998
858.731	3100
858.864	3150
858.997	3081
859.13	3119
859.263	3150
859.396	3192
859.529	3116
859.662	3100
859.795	3013
859.928	3093
860.061	3272
860.194	3264
860.327	3135
860.46	3055
860.592	3218
860.725	3241
860.858	3222
860.99	3093
861.123	3036
861.256	3020
861.388	3119
861.521	3850
861.653	3005
861.786	2994
861.918	2979
862.05	3119
862.183	3097
862.315	3173
862.447	3184
862.58	3085
862.712	2941
862.844	2887
862.976	3020
863.108	3013
863.24	3317
863.372	2853
863.504	2929
863.636	2922
863.768	3036
863.9	2967
864.032	2876
864.164	2963
864.296	3009
864.428	3104
864.559	3108
864.691	3077
864.823	3058
864.954	3020
865.086	3039
865.217	2986
865.349	2937
865.48	2960
865.612	3013
865.743	3150
865.875	2952
866.006	2933
866.137	2975
866.269	2944
866.4	2956
866.531	2914
866.662	2842
866.793	2868
866.924	2883
867.055	2956
867.186	2906
867.317	2883
867.448	2838
867.579	2845
867.71	2834
867.841	2800
867.972	2864
868.103	2891
868.233	2849
868.364	2868
868.495	2910
868.625	3081
868.756	3180
868.886	2971
869.017	3009
869.147	3173
869.278	3138
869.408	3036
869.539	3001
869.669	3081
869.799	3055
869.929	3138
870.06	3104
870.19	3329
870.32	3241
870.45	3279
870.58	3389
870.71	3435
870.84	3424
870.97	3264
871.1	3226
871.23	3458
871.36	3447
871.489	3344
871.619	3409
871.749	3351
871.879	3443
872.008	3458
872.138	3325
872.267	3237
872.397	3104
872.526	3062
872.656	2994
872.785	3077
872.915	3249
873.044	3329
873.173	3222
873.303	3245
873.432	3245
873.561	3222
873.69	3161
873.819	3100
873.948	3165
874.077	3077
874.206	3066
874.335	3097
874.464	3165
874.593	3348
874.722	3241
874.851	3359
874.979	3348
875.108	3275
875.237	3199
875.365	3135
875.494	3173
875.623	3218
875.751	3097
875.88	3093
876.008	3150
876.136	3218
876.265	3386
876.393	3466
876.521	3397
876.65	3378
876.778	3336
876.906	3222
877.034	3192
877.162	3245
877.29	3165
877.418	3253
877.546	3184
877.674	3249
877.802	3245
877.93	3176
878.058	3150
878.185	3070
878.313	3184
878.441	3184
878.568	3051
878.696	3146
878.824	3203
878.951	3283
879.079	3447
879.206	3622
879.333	3462
879.461	3313
879.588	3370
879.715	3462
879.842	3610
879.97	3393
880.097	3169
880.224	3146
880.351	3207
880.478	3214
880.605	3199
880.732	3161
880.859	3511
880.986	3313
881.112	3336
881.239	3211
881.366	3127
881.493	3028
881.619	3036
881.746	3093
881.872	3123
881.999	3112
882.125	3180
882.252	3268
882.378	3268
882.505	3424
882.631	3344
882.757	3135
882.883	3249
883.01	3260
883.136	3173
883.262	3131
883.388	3100
883.514	3344
883.64	3370
883.766	3351
883.892	3207
884.018	3256
884.143	3428
884.269	3572
884.395	3272
884.52	3207
884.646	3195
884.772	3207
884.897	3127
885.023	3260
885.148	3344
885.274	3481
885.399	3420
885.524	3313
885.65	3291
885.775	3351
885.9	3306
886.025	3458
886.15	3378
886.275	3359
886.4	3256
886.525	3363
886.65	3325
886.775	3336
886.9	3485
887.025	3701
887.149	3473
887.274	3294
887.399	3199
887.523	3249
887.648	3241
887.773	3291
887.897	3389
888.021	3447
888.146	3351
888.27	3466
888.395	3599
888.519	3458
888.643	3492
888.767	3500
888.891	3325
889.015	3268
889.139	3306
889.263	3287
889.387	3454
889.511	3557
889.635	3466
889.759	3310
889.883	3351
890.006	3393
890.13	3523
890.254	3336
890.377	3409
890.501	3272
890.624	3195
890.748	3363
890.871	3237
890.995	3165
891.118	3108
891.241	3211
891.364	3264
891.488	3332
891.611	3241
891.734	3245
891.857	3306
891.98	3260
892.103	3363
892.226	3291
892.349	3264
892.471	3165
892.594	3291
892.717	3294
892.839	3298
892.962	3351
893.085	3405
893.207	3298
893.33	3184
893.452	3230
893.575	3405
893.697	3306
893.819	3507
893.941	3523
894.064	3477
894.186	3310
894.308	3268
894.43	3534
894.552	3561
894.674	3534
894.796	3313
894.918	3351
895.04	3310
895.161	3458
895.283	3416
895.405	3340
895.526	3405
895.648	3409
895.769	3496
895.891	3534
896.012	3439
896.134	3488
896.255	3424
896.376	3389
896.498	3409
896.619	3507
896.74	3382
896.861	3412
896.982	3705
897.103	3842
897.224	3641
897.345	3488
897.466	3428
897.587	3515
897.708	3637
897.828	3587
897.949	3447
898.07	3363
898.19	3428
898.311	3603
898.431	3466
898.552	3515
898.672	3656
898.792	3572
898.913	3530
899.033	3424
899.153	3325
899.273	3226
899.393	3332
899.513	3325
899.633	3325
899.753	3389
899.873	3367
899.993	3393
900.113	3355
900.232	3389
900.352	3317
900.472	3332
900.591	3249
900.711	3340
900.83	3233
900.95	3431
901.069	3504
901.189	3386
901.308	3211
901.427	3207
901.546	3195
901.665	3321
901.784	3367
901.904	3272
902.023	3131
902.141	3020
902.26	3020
902.379	3176
902.498	3097
902.617	3097
902.735	3195
902.854	3245
902.973	3230
903.091	3089
903.21	3074
903.328	3154
903.446	3154
903.565	3142
903.683	3203
903.801	3157
903.919	3256
904.038	3306
904.156	3233
904.274	3317
904.392	3272
904.51	3332
904.627	3370
904.745	3492
904.863	3576
904.981	3275
905.098	3211
905.216	3294
905.334	3306
905.451	3363
905.569	3348
905.686	3481
905.803	3462
905.921	3310
906.038	3458
906.155	3412
906.272	3272
906.389	3382
906.506	3211
906.623	3291
906.74	3275
906.857	3214
906.974	3287
907.091	3450
907.208	3625
907.324	3450
907.441	3409
907.557	3253
907.674	3237
907.79	3165
907.907	3283
908.023	3409
908.139	3382
908.256	3329
908.372	3405
908.488	3363
908.604	3340
908.72	3260
908.836	3313
908.952	3332
909.068	3363
909.184	3515
909.3	3405
909.415	3534
909.531	3500
909.647	3294
909.762	3340
909.878	3325
909.993	3359
910.108	3431
910.224	3382
910.339	3416
910.454	3351
910.57	3291
910.685	3264
910.8	3660
910.915	3553
911.03	3420
911.145	3294
911.259	3275
911.374	3287
911.489	3291
911.604	3264
911.718	3142
911.833	3203
911.947	3039
912.062	3005
912.176	3199
912.291	3222
912.405	3222
912.519	3462
912.633	3481
912.748	3389
912.862	3306
912.976	3214
913.09	3100
913.204	3165
913.318	3233
913.431	3329
913.545	3363
913.659	3431
913.772	3370
913.886	3218
914	3249
914.113	3393
914.226	3443
914.34	3401
914.453	3275
914.566	3439
914.68	3298
914.793	3294
914.906	3150
915.019	3131
915.132	3062
915.245	3207
915.358	3233
915.47	3218
915.583	3294
915.696	3283
915.809	3389
915.921	3450
916.034	3264
916.146	3302
916.259	3241
916.371	3428
916.483	3382
916.595	3302
916.708	3363
916.82	3359
916.932	3348
917.044	3393
917.156	3386
917.268	3287
917.38	3310
917.491	3340
917.603	3420
917.715	3454
917.826	3496
917.938	3409
918.049	3294
918.161	3416
918.272	3587
918.384	3580
918.495	3515
918.606	3344
918.717	3279
918.828	3401
918.939	3416
919.05	3348
919.161	3382
919.272	3192
919.383	3291
919.494	3519
919.604	3682
919.715	3553
919.826	3450
919.936	3492
920.047	3576
920.157	3580
920.267	3785
920.378	3663
920.488	3568
920.598	3774
920.708	3941
920.818	3808
920.928	3854
921.038	4063
921.148	4013
921.258	3774
921.368	3641
921.477	3622
921.587	3568
921.697	3469
921.806	3599
921.916	3526
922.025	3393
922.134	3378
922.244	3321
922.353	3454
922.462	3279
922.571	3233
922.68	3165
922.789	3116
922.898	3161
923.007	3104
923.116	3226
923.224	3207
923.333	3203
923.442	3116
923.55	3123
923.659	3176
923.767	3241
923.876	3135
923.984	3214
924.092	3116
924.201	3199
924.309	3230
924.417	3275
924.525	3214
924.633	3279
924.741	4207
924.849	3062
924.956	3279
925.064	3131
925.172	3036
925.279	3108
925.387	3207
925.494	3207
925.602	3363
925.709	3329
925.816	3233
925.924	3279
926.031	3378
926.138	3348
926.245	3412
926.352	3253
926.459	3428
926.566	3488
926.673	3359
926.779	3245
926.886	3268
926.993	3157
927.099	3176
927.206	3127
927.312	3138
927.419	3272
927.525	3211
927.631	3302
927.737	3150
927.843	3195
927.95	3024
928.056	3150
928.162	3192
928.267	3256
928.373	3854
928.479	3321
928.585	3089
928.69	3260
928.796	3268
928.901	3192
929.007	3020
929.112	3237
929.218	3214
929.323	3161
929.428	3176
929.533	3336
929.638	3127
929.743	3211
929.848	3272
929.953	3256
930.058	3146
930.163	3005
930.267	3108
930.372	3214
930.477	3039
930.581	3344
930.685	3192
930.79	3062
930.894	3142
930.998	3108
931.103	3310
931.207	2941
931.311	2941
931.415	2944
931.519	2804
931.623	2823
