Data from test_V78500241_1667.txt Node
Date: Fri Mar 25 16:26:45 CST 2022
User: usil
Spectrometer: V785-0024
Trigger mode: 0
Integration Time (sec): 4.000000E-1
Scans to average: 1
Nonlinearity correction enabled: false
Boxcar width: 0
Storing dark spectrum: false
XAxis mode: Wavelengths
Number of Pixels in Spectrum: 1024
>>>>>Begin Spectral Data<<<<<
801.071	2914
801.214	2960
801.356	2891
801.499	2902
801.641	2868
801.783	2937
801.926	3074
802.068	2994
802.211	3001
802.353	3028
802.496	2982
802.638	2998
802.78	3005
802.923	3097
803.065	3043
803.208	2883
803.35	2956
803.492	2918
803.635	2914
803.777	2785
803.919	2876
804.061	3207
804.204	2956
804.346	2937
804.488	2861
804.63	2986
804.773	2872
804.915	2899
805.057	3081
805.199	2880
805.341	2986
805.483	3047
805.626	3024
805.768	2982
805.91	3097
806.052	3135
806.194	3017
806.336	3199
806.478	3043
806.62	2963
806.762	3017
806.904	3043
807.046	3169
807.188	3001
807.33	2880
807.472	2986
807.614	2914
807.756	2963
807.898	2891
808.04	2887
808.182	2982
808.324	2952
808.465	2887
808.607	2880
808.749	2800
808.891	2849
809.033	2960
809.174	2963
809.316	2861
809.458	2883
809.6	2773
809.741	2750
809.883	2754
810.025	2807
810.166	2826
810.308	2823
810.45	2815
810.591	2727
810.733	2762
810.875	2857
811.016	2762
811.158	2758
811.299	2796
811.441	2922
811.582	2910
811.724	2804
811.865	2845
812.007	2899
812.148	2876
812.29	2853
812.431	2849
812.573	2960
812.714	2941
812.855	3028
812.997	3047
813.138	3104
813.279	3001
813.421	3005
813.562	2944
813.703	2864
813.845	2880
813.986	2754
814.127	2724
814.268	2785
814.41	2842
814.551	2796
814.692	2868
814.833	2807
814.974	2880
815.115	2956
815.256	2792
815.397	2826
815.539	2823
815.68	2781
815.821	2762
815.962	2948
816.103	2922
816.244	2876
816.385	2899
816.526	2944
816.666	2933
816.807	2746
816.948	2887
817.089	2937
817.23	2845
817.371	2769
817.512	2792
817.653	2834
817.793	2804
817.934	2902
818.075	2948
818.216	2963
818.356	3043
818.497	2876
818.638	2773
818.778	2830
818.919	2807
819.06	2743
819.2	2876
819.341	2800
819.481	2796
819.622	2922
819.762	3070
819.903	3043
820.043	2967
820.184	2929
820.324	2880
820.465	2979
820.605	3024
820.746	3055
820.886	2952
821.026	3127
821.167	3173
821.307	3260
821.447	3287
821.588	3241
821.728	3222
821.868	3226
822.008	3142
822.149	3211
822.289	3233
822.429	3089
822.569	3062
822.709	3195
822.849	3074
822.99	3074
823.13	3237
823.27	3211
823.41	3142
823.55	3184
823.69	3180
823.83	3169
823.97	3089
824.11	3017
824.25	3036
824.389	3055
824.529	3123
824.669	3097
824.809	3214
824.949	3245
825.089	3222
825.228	3233
825.368	3081
825.508	2986
825.648	3028
825.787	3066
825.927	3028
826.067	3001
826.206	3032
826.346	3093
826.485	3097
826.625	3119
826.765	3283
826.904	3222
827.044	3047
827.183	2971
827.323	2887
827.462	3017
827.601	2963
827.741	3001
827.88	3020
828.02	2918
828.159	3028
828.298	3047
828.437	3150
828.577	3077
828.716	3275
828.855	3100
828.994	2948
829.134	2906
829.273	2944
829.412	2902
829.551	2880
829.69	2956
829.829	3032
829.968	3146
830.107	3005
830.246	3077
830.385	2960
830.524	2910
830.663	2868
830.802	2773
830.941	2708
831.08	2682
831.219	2811
831.357	2804
831.496	2967
831.635	2712
831.774	2682
831.913	2727
832.051	2579
832.19	2590
832.329	2731
832.467	2625
832.606	2514
832.744	2651
832.883	2621
833.022	2606
833.16	2674
833.299	2743
833.437	2701
833.576	2720
833.714	2750
833.852	2766
833.991	2773
834.129	2876
834.267	2830
834.406	2792
834.544	2906
834.682	2887
834.821	2895
834.959	3051
835.097	2902
835.235	3074
835.373	3017
835.511	3047
835.65	2967
835.788	2994
835.926	2853
836.064	2880
836.202	2922
836.34	3116
836.478	3180
836.615	3043
836.753	3161
836.891	3268
837.029	3184
837.167	3131
837.305	3097
837.443	3085
837.58	3024
837.718	3154
837.856	3108
837.993	3043
838.131	3161
838.269	3135
838.406	3112
838.544	3116
838.681	2979
838.819	2971
838.956	2838
839.094	2899
839.231	2963
839.369	3039
839.506	3424
839.643	3237
839.781	3070
839.918	2990
840.055	3058
840.193	3089
840.33	3112
840.467	3123
840.604	3176
840.742	3409
840.879	3081
841.016	3108
841.153	3150
841.29	3363
841.427	3329
841.564	3332
841.701	3306
841.838	3249
841.975	3211
842.112	3279
842.249	3097
842.385	3108
842.522	3287
842.659	3112
842.796	3127
842.933	3085
843.069	3055
843.206	3047
843.343	3180
843.479	3138
843.616	3146
843.752	2910
843.889	2872
844.025	3123
844.162	2944
844.298	3100
844.435	2998
844.571	2967
844.708	3097
844.844	3211
844.98	3287
845.117	3214
845.253	3070
845.389	3024
845.525	3097
845.661	3127
845.798	3055
845.934	3165
846.07	3100
846.206	3256
846.342	3298
846.478	3226
846.614	3097
846.75	3066
846.886	3070
847.022	3287
847.158	3165
847.294	3199
847.429	3272
847.565	3249
847.701	3488
847.837	3043
847.972	3039
848.108	3176
848.244	3176
848.379	2982
848.515	2975
848.65	2944
848.786	3024
848.921	3032
849.057	3108
849.192	3169
849.328	3112
849.463	3146
849.598	3085
849.734	3043
849.869	2982
850.004	2941
850.14	2998
850.275	2922
850.41	2876
850.545	2910
850.68	2982
850.815	2960
850.95	2960
851.085	3207
851.22	3116
851.355	3055
851.49	3024
851.625	3017
851.76	3017
851.895	2982
852.03	2960
852.165	3055
852.299	3104
852.434	3188
852.569	3150
852.703	3203
852.838	3230
852.973	3340
853.107	3359
853.242	3165
853.376	3112
853.511	2971
853.645	3036
853.78	3268
853.914	3108
854.048	3089
854.183	3123
854.317	3157
854.451	3336
854.585	3142
854.72	3116
854.854	3249
854.988	3058
855.122	3089
855.256	3020
855.39	3123
855.524	3226
855.658	3169
855.792	3188
855.926	3211
856.06	3260
856.194	3264
856.327	3154
856.461	3066
856.595	3127
856.729	3135
856.862	3233
856.996	3192
857.13	3222
857.263	3233
857.397	3306
857.53	3100
857.664	3195
857.797	3226
857.931	3317
858.064	3161
858.197	3230
858.331	3180
858.464	3097
858.597	3020
858.731	3100
858.864	3138
858.997	3119
859.13	3169
859.263	3214
859.396	3287
859.529	3100
859.662	3089
859.795	3093
859.928	3138
860.061	3249
860.194	3310
860.327	3150
860.46	3127
860.592	3245
860.725	3294
860.858	3283
860.99	3112
861.123	3066
861.256	3104
861.388	3138
861.521	3876
861.653	3047
861.786	2986
861.918	3028
862.05	3081
862.183	3085
862.315	3211
862.447	3226
862.58	3093
862.712	2967
862.844	2933
862.976	3058
863.108	2994
863.24	3431
863.372	2910
863.504	2952
863.636	2933
863.768	3055
863.9	2990
864.032	2933
864.164	2963
864.296	3066
864.428	3119
864.559	3127
864.691	3089
864.823	3070
864.954	3062
865.086	3070
865.217	3017
865.349	3009
865.48	3017
865.612	3047
865.743	3161
865.875	2994
866.006	2952
866.137	2986
866.269	2956
866.4	2952
866.531	2960
866.662	2910
866.793	2918
866.924	2902
867.055	2994
867.186	2944
867.317	2899
867.448	2872
867.579	2880
867.71	2830
867.841	2842
867.972	2918
868.103	2937
868.233	2891
868.364	2895
868.495	2952
868.625	3097
868.756	3211
868.886	2963
869.017	3039
869.147	3180
869.278	3146
869.408	3055
869.539	3020
869.669	3131
869.799	3055
869.929	3135
870.06	3119
870.19	3351
870.32	3329
870.45	3367
870.58	3424
870.71	3458
870.84	3492
870.97	3294
871.1	3245
871.23	3500
871.36	3507
871.489	3393
871.619	3443
871.749	3412
871.879	3428
872.008	3462
872.138	3397
872.267	3287
872.397	3157
872.526	3108
872.656	3013
872.785	3089
872.915	3249
873.044	3378
873.173	3218
873.303	3287
873.432	3256
873.561	3256
873.69	3173
873.819	3146
873.948	3226
874.077	3116
874.206	3032
874.335	3108
874.464	3230
874.593	3317
874.722	3264
874.851	3382
874.979	3393
875.108	3340
875.237	3188
875.365	3161
875.494	3169
875.623	3233
875.751	3123
875.88	3173
876.008	3230
876.136	3264
876.265	3382
876.393	3500
876.521	3435
876.65	3389
876.778	3344
876.906	3279
877.034	3237
877.162	3233
877.29	3214
877.418	3272
877.546	3241
877.674	3291
877.802	3237
877.93	3237
878.058	3138
878.185	3089
878.313	3192
878.441	3199
878.568	3070
878.696	3146
878.824	3279
878.951	3260
879.079	3466
879.206	3595
879.333	3416
879.461	3378
879.588	3363
879.715	3439
879.842	3584
879.97	3386
880.097	3199
880.224	3131
880.351	3195
880.478	3237
880.605	3199
880.732	3218
880.859	3519
880.986	3348
881.112	3348
881.239	3199
881.366	3093
881.493	2998
881.619	3043
881.746	3058
881.872	3150
881.999	3146
882.125	3165
882.252	3272
882.378	3317
882.505	3435
882.631	3336
882.757	3150
882.883	3218
883.01	3192
883.136	3176
883.262	3135
883.388	3138
883.514	3313
883.64	3367
883.766	3325
883.892	3203
884.018	3233
884.143	3462
884.269	3542
884.395	3199
884.52	3161
884.646	3146
884.772	3123
884.897	3131
885.023	3203
885.148	3332
885.274	3416
885.399	3348
885.524	3287
885.65	3291
885.775	3325
885.9	3253
886.025	3492
886.15	3386
886.275	3340
886.4	3279
886.525	3329
886.65	3298
886.775	3313
886.9	3519
887.025	3618
887.149	3428
887.274	3291
887.399	3184
887.523	3245
887.648	3230
887.773	3165
887.897	3416
888.021	3405
888.146	3291
888.27	3428
888.395	3549
888.519	3416
888.643	3496
888.767	3492
888.891	3298
889.015	3245
889.139	3329
889.263	3241
889.387	3420
889.511	3511
889.635	3447
889.759	3298
889.883	3279
890.006	3359
890.13	3466
890.254	3256
890.377	3378
890.501	3230
890.624	3192
890.748	3294
890.871	3218
890.995	3108
891.118	3055
891.241	3218
891.364	3241
891.488	3306
891.611	3203
891.734	3218
891.857	3260
891.98	3237
892.103	3355
892.226	3287
892.349	3233
892.471	3138
892.594	3264
892.717	3310
892.839	3291
892.962	3275
893.085	3397
893.207	3294
893.33	3161
893.452	3203
893.575	3370
893.697	3272
893.819	3443
893.941	3553
894.064	3435
894.186	3272
894.308	3287
894.43	3488
894.552	3534
894.674	3473
894.796	3256
894.918	3332
895.04	3313
895.161	3435
895.283	3420
895.405	3313
895.526	3374
895.648	3473
895.769	3386
895.891	3469
896.012	3515
896.134	3439
896.255	3367
896.376	3405
896.498	3355
896.619	3454
896.74	3374
896.861	3367
896.982	3724
897.103	3800
897.224	3580
897.345	3542
897.466	3416
897.587	3538
897.708	3663
897.828	3580
897.949	3458
898.07	3370
898.19	3393
898.311	3595
898.431	3458
898.552	3515
898.672	3622
898.792	3534
898.913	3538
899.033	3389
899.153	3310
899.273	3237
899.393	3291
899.513	3317
899.633	3306
899.753	3348
899.873	3329
899.993	3420
900.113	3310
900.232	3420
900.352	3351
900.472	3283
900.591	3249
900.711	3294
900.83	3230
900.95	3435
901.069	3485
901.189	3332
901.308	3203
901.427	3165
901.546	3222
901.665	3245
901.784	3306
901.904	3180
902.023	3142
902.141	3024
902.26	2998
902.379	3135
902.498	3081
902.617	3058
902.735	3222
902.854	3230
902.973	3195
903.091	3028
903.21	3119
903.328	3161
903.446	3127
903.565	3070
903.683	3260
903.801	3119
903.919	3222
904.038	3302
904.156	3192
904.274	3287
904.392	3241
904.51	3313
904.627	3313
904.745	3443
904.863	3466
904.981	3241
905.098	3180
905.216	3222
905.334	3268
905.451	3336
905.569	3302
905.686	3420
905.803	3458
905.921	3317
906.038	3439
906.155	3351
906.272	3279
906.389	3344
906.506	3268
906.623	3298
906.74	3275
906.857	3214
906.974	3214
907.091	3458
907.208	3587
907.324	3435
907.441	3397
907.557	3214
907.674	3272
907.79	3245
907.907	3279
908.023	3344
908.139	3409
908.256	3264
908.372	3382
908.488	3351
908.604	3241
908.72	3260
908.836	3279
908.952	3268
909.068	3325
909.184	3458
909.3	3370
909.415	3519
909.531	3466
909.647	3321
909.762	3298
909.878	3226
909.993	3359
910.108	3294
910.224	3294
910.339	3401
910.454	3313
910.57	3313
910.685	3272
910.8	3622
910.915	3542
911.03	3412
911.145	3256
911.259	3264
911.374	3332
911.489	3233
911.604	3180
911.718	3093
911.833	3135
911.947	3043
912.062	3001
912.176	3161
912.291	3226
912.405	3226
912.519	3405
912.633	3462
912.748	3344
912.862	3298
912.976	3184
913.09	3100
913.204	3142
913.318	3245
913.431	3348
913.545	3348
913.659	3416
913.772	3336
913.886	3237
914	3195
914.113	3329
914.226	3401
914.34	3367
914.453	3218
914.566	3401
914.68	3275
914.793	3310
914.906	3131
915.019	3116
915.132	3070
915.245	3150
915.358	3230
915.47	3233
915.583	3291
915.696	3298
915.809	3435
915.921	3389
916.034	3264
916.146	3233
916.259	3230
916.371	3409
916.483	3393
916.595	3268
916.708	3306
916.82	3348
916.932	3313
917.044	3340
917.156	3355
917.268	3226
917.38	3298
917.491	3298
917.603	3405
917.715	3466
917.826	3462
917.938	3386
918.049	3279
918.161	3458
918.272	3568
918.384	3542
918.495	3526
918.606	3348
918.717	3291
918.828	3340
918.939	3386
919.05	3306
919.161	3382
919.272	3184
919.383	3306
919.494	3530
919.604	3667
919.715	3443
919.826	3428
919.936	3435
920.047	3572
920.157	3549
920.267	3747
920.378	3599
920.488	3587
920.598	3720
920.708	3956
920.818	3842
920.928	3854
921.038	4036
921.148	4055
921.258	3701
921.368	3637
921.477	3557
921.587	3561
921.697	3447
921.806	3644
921.916	3538
922.025	3382
922.134	3348
922.244	3275
922.353	3401
922.462	3283
922.571	3253
922.68	3138
922.789	3051
922.898	3123
923.007	3055
923.116	3230
923.224	3173
923.333	3195
923.442	3119
923.55	3100
923.659	3135
923.767	3226
923.876	3138
923.984	3218
924.092	3127
924.201	3135
924.309	3214
924.417	3237
924.525	3195
924.633	3211
924.741	4200
924.849	3032
924.956	3245
925.064	3112
925.172	3028
925.279	3100
925.387	3192
925.494	3207
925.602	3348
925.709	3336
925.816	3230
925.924	3272
926.031	3355
926.138	3302
926.245	3351
926.352	3241
926.459	3450
926.566	3477
926.673	3313
926.779	3233
926.886	3275
926.993	3146
927.099	3116
927.206	3127
927.312	3123
927.419	3207
927.525	3203
927.631	3279
927.737	3127
927.843	3150
927.95	3032
928.056	3123
928.162	3138
928.267	3253
928.373	3854
928.479	3272
928.585	3077
928.69	3184
928.796	3253
928.901	3176
929.007	3058
929.112	3226
929.218	3161
929.323	3142
929.428	3142
929.533	3275
929.638	3104
929.743	3161
929.848	3233
929.953	3180
930.058	3142
930.163	2986
930.267	3051
930.372	3184
930.477	3062
930.581	3310
930.685	3138
930.79	3070
930.894	3161
930.998	3104
931.103	3272
931.207	3001
931.311	2933
931.415	2944
931.519	2785
931.623	2804
