Data from test_V78500241_1063.txt Node
Date: Fri Mar 25 16:22:33 CST 2022
User: usil
Spectrometer: V785-0024
Trigger mode: 0
Integration Time (sec): 4.000000E-1
Scans to average: 1
Nonlinearity correction enabled: false
Boxcar width: 0
Storing dark spectrum: false
XAxis mode: Wavelengths
Number of Pixels in Spectrum: 1024
>>>>>Begin Spectral Data<<<<<
801.071	2937
801.214	2971
801.356	2902
801.499	2933
801.641	2887
801.783	2979
801.926	3093
802.068	3005
802.211	3017
802.353	3036
802.496	2944
802.638	3032
802.78	3077
802.923	3104
803.065	2982
803.208	2910
803.35	2925
803.492	2963
803.635	2925
803.777	2815
803.919	2864
804.061	3237
804.204	2944
804.346	2944
804.488	2849
804.63	2967
804.773	2872
804.915	2941
805.057	3085
805.199	2944
805.341	2982
805.483	3017
805.626	2998
805.768	2998
805.91	3077
806.052	3093
806.194	3089
806.336	3253
806.478	3024
806.62	2933
806.762	3001
806.904	3074
807.046	3192
807.188	2979
807.33	2941
807.472	2986
807.614	2929
807.756	3009
807.898	2922
808.04	2910
808.182	2979
808.324	2971
808.465	2902
808.607	2906
808.749	2807
808.891	2857
809.033	2956
809.174	2963
809.316	2899
809.458	2883
809.6	2769
809.741	2758
809.883	2750
810.025	2811
810.166	2861
810.308	2826
810.45	2864
810.591	2781
810.733	2769
810.875	2823
811.016	2781
811.158	2766
811.299	2823
811.441	2952
811.582	2880
811.724	2807
811.865	2804
812.007	2899
812.148	2842
812.29	2872
812.431	2883
812.573	2929
812.714	2952
812.855	3066
812.997	3058
813.138	3169
813.279	3020
813.421	2982
813.562	2971
813.703	2861
813.845	2883
813.986	2766
814.127	2762
814.268	2819
814.41	2819
814.551	2800
814.692	2902
814.833	2830
814.974	2906
815.115	2971
815.256	2857
815.397	2807
815.539	2842
815.68	2777
815.821	2815
815.962	2956
816.103	2929
816.244	2895
816.385	2876
816.526	2990
816.666	2933
816.807	2750
816.948	2895
817.089	2933
817.23	2872
817.371	2788
817.512	2762
817.653	2796
817.793	2842
817.934	2887
818.075	2975
818.216	2979
818.356	3020
818.497	2880
818.638	2811
818.778	2815
818.919	2807
819.06	2777
819.2	2830
819.341	2762
819.481	2777
819.622	2929
819.762	3085
819.903	3062
820.043	2891
820.184	2922
820.324	2880
820.465	3009
820.605	3024
820.746	3009
820.886	2918
821.026	3051
821.167	3142
821.307	3275
821.447	3298
821.588	3264
821.728	3218
821.868	3192
822.008	3058
822.149	3184
822.289	3199
822.429	3077
822.569	3081
822.709	3173
822.849	3017
822.99	3077
823.13	3165
823.27	3180
823.41	3150
823.55	3138
823.69	3150
823.83	3146
823.97	3089
824.11	2994
824.25	2956
824.389	3043
824.529	3100
824.669	3077
824.809	3192
824.949	3249
825.089	3188
825.228	3142
825.368	3032
825.508	2944
825.648	2994
825.787	2994
825.927	3028
826.067	2925
826.206	2990
826.346	3066
826.485	3051
826.625	3127
826.765	3264
826.904	3226
827.044	2971
827.183	2952
827.323	2868
827.462	3005
827.601	2929
827.741	2918
827.88	2990
828.02	2902
828.159	2982
828.298	3051
828.437	3131
828.577	3070
828.716	3237
828.855	3138
828.994	2929
829.134	2941
829.273	2944
829.412	2895
829.551	2891
829.69	2929
829.829	3017
829.968	3188
830.107	3043
830.246	3039
830.385	2941
830.524	2918
830.663	2861
830.802	2746
830.941	2724
831.08	2708
831.219	2800
831.357	2781
831.496	2998
831.635	2743
831.774	2708
831.913	2720
832.051	2606
832.19	2610
832.329	2731
832.467	2610
832.606	2530
832.744	2632
832.883	2651
833.022	2606
833.16	2682
833.299	2686
833.437	2712
833.576	2727
833.714	2777
833.852	2754
833.991	2777
834.129	2883
834.267	2868
834.406	2819
834.544	2914
834.682	2933
834.821	2910
834.959	3093
835.097	2933
835.235	3104
835.373	3051
835.511	3062
835.65	3017
835.788	2982
835.926	2902
836.064	2826
836.202	2899
836.34	3112
836.478	3176
836.615	3077
836.753	3165
836.891	3237
837.029	3222
837.167	3154
837.305	3093
837.443	3104
837.58	3001
837.718	3176
837.856	3070
837.993	3066
838.131	3135
838.269	3154
838.406	3123
838.544	3112
838.681	2979
838.819	2948
838.956	2853
839.094	2883
839.231	2933
839.369	3055
839.506	3378
839.643	3233
839.781	3024
839.918	3009
840.055	3055
840.193	3077
840.33	3119
840.467	3146
840.604	3157
840.742	3405
840.879	3123
841.016	3116
841.153	3150
841.29	3332
841.427	3344
841.564	3279
841.701	3359
841.838	3260
841.975	3222
842.112	3237
842.249	3112
842.385	3081
842.522	3287
842.659	3127
842.796	3108
842.933	3154
843.069	3051
843.206	3074
843.343	3199
843.479	3119
843.616	3176
843.752	2929
843.889	2956
844.025	3081
844.162	2887
844.298	3127
844.435	2998
844.571	2925
844.708	3089
844.844	3218
844.98	3256
845.117	3241
845.253	3093
845.389	3039
845.525	3116
845.661	3150
845.798	3043
845.934	3161
846.07	3100
846.206	3256
846.342	3325
846.478	3275
846.614	3119
846.75	3047
846.886	3093
847.022	3302
847.158	3157
847.294	3237
847.429	3260
847.565	3249
847.701	3526
847.837	3066
847.972	3028
848.108	3161
848.244	3195
848.379	2990
848.515	2986
848.65	2963
848.786	2986
848.921	3024
849.057	3138
849.192	3176
849.328	3085
849.463	3211
849.598	3062
849.734	3039
849.869	2982
850.004	2941
850.14	3009
850.275	2960
850.41	2857
850.545	2910
850.68	2956
850.815	3013
850.95	2990
851.085	3207
851.22	3173
851.355	3066
851.49	3013
851.625	3039
851.76	3055
851.895	2963
852.03	2914
852.165	3100
852.299	3123
852.434	3241
852.569	3154
852.703	3180
852.838	3283
852.973	3397
853.107	3393
853.242	3142
853.376	3108
853.511	2998
853.645	3081
853.78	3253
853.914	3131
854.048	3123
854.183	3085
854.317	3142
854.451	3351
854.585	3135
854.72	3081
854.854	3233
854.988	3085
855.122	3131
855.256	2998
855.39	3184
855.524	3298
855.658	3230
855.792	3184
855.926	3222
856.06	3249
856.194	3268
856.327	3161
856.461	3104
856.595	3161
856.729	3089
856.862	3275
856.996	3173
857.13	3264
857.263	3230
857.397	3325
857.53	3131
857.664	3188
857.797	3268
857.931	3283
858.064	3184
858.197	3272
858.331	3150
858.464	3135
858.597	3009
858.731	3146
858.864	3131
858.997	3119
859.13	3203
859.263	3203
859.396	3226
859.529	3161
859.662	3077
859.795	3119
859.928	3146
860.061	3283
860.194	3306
860.327	3165
860.46	3112
860.592	3264
860.725	3294
860.858	3260
860.99	3146
861.123	3119
861.256	3070
861.388	3154
861.521	3960
861.653	3077
861.786	3017
861.918	3009
862.05	3066
862.183	3131
862.315	3135
862.447	3237
862.58	3135
862.712	2990
862.844	2918
862.976	3047
863.108	3020
863.24	3458
863.372	2891
863.504	2994
863.636	2986
863.768	3066
863.9	3001
864.032	2933
864.164	2986
864.296	3028
864.428	3104
864.559	3131
864.691	3100
864.823	3104
864.954	3062
865.086	3062
865.217	3032
865.349	2975
865.48	2998
865.612	3028
865.743	3169
865.875	2998
866.006	2941
866.137	3005
866.269	2971
866.4	2941
866.531	2971
866.662	2910
866.793	2929
866.924	2891
867.055	2994
867.186	2933
867.317	2910
867.448	2849
867.579	2830
867.71	2891
867.841	2849
867.972	2937
868.103	2944
868.233	2960
868.364	2899
868.495	2929
868.625	3077
868.756	3192
868.886	2982
869.017	3070
869.147	3180
869.278	3180
869.408	3074
869.539	3017
869.669	3131
869.799	3070
869.929	3161
870.06	3127
870.19	3317
870.32	3332
870.45	3310
870.58	3386
870.71	3466
870.84	3492
870.97	3336
871.1	3313
871.23	3515
871.36	3507
871.489	3363
871.619	3405
871.749	3443
871.879	3424
872.008	3496
872.138	3374
872.267	3287
872.397	3165
872.526	3123
872.656	3028
872.785	3127
872.915	3256
873.044	3336
873.173	3222
873.303	3264
873.432	3302
873.561	3233
873.69	3176
873.819	3176
873.948	3249
874.077	3138
874.206	3085
874.335	3097
874.464	3211
874.593	3367
874.722	3256
874.851	3428
874.979	3367
875.108	3351
875.237	3192
875.365	3188
875.494	3173
875.623	3291
875.751	3070
875.88	3127
876.008	3188
876.136	3287
876.265	3405
876.393	3549
876.521	3424
876.65	3435
876.778	3332
876.906	3249
877.034	3233
877.162	3245
877.29	3188
877.418	3222
877.546	3272
877.674	3268
877.802	3199
877.93	3211
878.058	3165
878.185	3100
878.313	3199
878.441	3214
878.568	3097
878.696	3180
878.824	3272
878.951	3272
879.079	3458
879.206	3663
879.333	3462
879.461	3382
879.588	3355
879.715	3538
879.842	3625
879.97	3428
880.097	3214
880.224	3135
880.351	3199
880.478	3226
880.605	3207
880.732	3218
880.859	3507
880.986	3332
881.112	3367
881.239	3195
881.366	3097
881.493	3077
881.619	3032
881.746	3123
881.872	3093
881.999	3146
882.125	3146
882.252	3253
882.378	3336
882.505	3458
882.631	3306
882.757	3169
882.883	3230
883.01	3241
883.136	3173
883.262	3127
883.388	3135
883.514	3294
883.64	3378
883.766	3287
883.892	3195
884.018	3264
884.143	3454
884.269	3545
884.395	3195
884.52	3184
884.646	3207
884.772	3192
884.897	3093
885.023	3214
885.148	3370
885.274	3458
885.399	3405
885.524	3313
885.65	3279
885.775	3325
885.9	3256
886.025	3439
886.15	3363
886.275	3279
886.4	3214
886.525	3321
886.65	3264
886.775	3310
886.9	3538
887.025	3660
887.149	3378
887.274	3264
887.399	3165
887.523	3203
887.648	3184
887.773	3203
887.897	3378
888.021	3370
888.146	3344
888.27	3454
888.395	3538
888.519	3420
888.643	3488
888.767	3462
888.891	3317
889.015	3256
889.139	3313
889.263	3253
889.387	3420
889.511	3504
889.635	3477
889.759	3287
889.883	3344
890.006	3397
890.13	3500
890.254	3279
890.377	3382
890.501	3275
890.624	3203
890.748	3340
890.871	3184
890.995	3123
891.118	3085
891.241	3211
891.364	3211
891.488	3359
891.611	3222
891.734	3249
891.857	3294
891.98	3249
892.103	3378
892.226	3298
892.349	3199
892.471	3135
892.594	3249
892.717	3310
892.839	3264
892.962	3302
893.085	3370
893.207	3275
893.33	3176
893.452	3222
893.575	3370
893.697	3272
893.819	3473
893.941	3545
894.064	3454
894.186	3310
894.308	3268
894.43	3473
894.552	3545
894.674	3462
894.796	3325
894.918	3325
895.04	3291
895.161	3424
895.283	3397
895.405	3363
895.526	3416
895.648	3458
895.769	3409
895.891	3447
896.012	3504
896.134	3450
896.255	3428
896.376	3382
896.498	3363
896.619	3435
896.74	3378
896.861	3389
896.982	3671
897.103	3857
897.224	3580
897.345	3538
897.466	3454
897.587	3481
897.708	3625
897.828	3587
897.949	3420
898.07	3329
898.19	3450
898.311	3637
898.431	3477
898.552	3542
898.672	3629
898.792	3557
898.913	3534
899.033	3435
899.153	3313
899.273	3233
899.393	3306
899.513	3294
899.633	3332
899.753	3321
899.873	3298
899.993	3412
900.113	3351
900.232	3416
900.352	3363
900.472	3329
900.591	3176
900.711	3302
900.83	3241
900.95	3450
901.069	3496
901.189	3359
901.308	3188
901.427	3169
901.546	3199
901.665	3344
901.784	3363
901.904	3207
902.023	3169
902.141	3024
902.26	3028
902.379	3146
902.498	3123
902.617	3055
902.735	3211
902.854	3249
902.973	3207
903.091	3081
903.21	3089
903.328	3104
903.446	3165
903.565	3093
903.683	3184
903.801	3127
903.919	3264
904.038	3302
904.156	3184
904.274	3302
904.392	3272
904.51	3294
904.627	3348
904.745	3428
904.863	3542
904.981	3268
905.098	3173
905.216	3313
905.334	3256
905.451	3325
905.569	3329
905.686	3428
905.803	3462
905.921	3249
906.038	3382
906.155	3370
906.272	3291
906.389	3317
906.506	3268
906.623	3249
906.74	3294
906.857	3207
906.974	3260
907.091	3488
907.208	3591
907.324	3473
907.441	3397
907.557	3272
907.674	3249
907.79	3203
907.907	3287
908.023	3374
908.139	3393
908.256	3317
908.372	3389
908.488	3351
908.604	3275
908.72	3260
908.836	3302
908.952	3321
909.068	3336
909.184	3466
909.3	3405
909.415	3500
909.531	3488
909.647	3264
909.762	3294
909.878	3249
909.993	3370
910.108	3321
910.224	3287
910.339	3412
910.454	3325
910.57	3294
910.685	3260
910.8	3622
910.915	3584
911.03	3416
911.145	3260
911.259	3310
911.374	3355
911.489	3249
911.604	3211
911.718	3116
911.833	3119
911.947	3051
912.062	2967
912.176	3195
912.291	3199
912.405	3256
912.519	3428
912.633	3454
912.748	3336
912.862	3275
912.976	3154
913.09	3058
913.204	3165
913.318	3207
913.431	3389
913.545	3370
913.659	3405
913.772	3363
913.886	3195
914	3157
914.113	3355
914.226	3424
914.34	3370
914.453	3211
914.566	3424
914.68	3302
914.793	3340
914.906	3146
915.019	3104
915.132	3074
915.245	3207
915.358	3233
915.47	3249
915.583	3332
915.696	3310
915.809	3386
915.921	3401
916.034	3253
916.146	3222
916.259	3173
916.371	3374
916.483	3386
916.595	3294
916.708	3367
916.82	3355
916.932	3348
917.044	3351
917.156	3344
917.268	3241
917.38	3306
917.491	3260
917.603	3382
917.715	3496
917.826	3481
917.938	3363
918.049	3268
918.161	3458
918.272	3572
918.384	3606
918.495	3462
918.606	3367
918.717	3260
918.828	3420
918.939	3424
919.05	3310
919.161	3370
919.272	3165
919.383	3302
919.494	3515
919.604	3660
919.715	3519
919.826	3420
919.936	3477
920.047	3564
920.157	3553
920.267	3781
920.378	3648
920.488	3603
920.598	3804
920.708	3945
920.818	3819
920.928	3842
921.038	4055
921.148	3975
921.258	3698
921.368	3663
921.477	3606
921.587	3553
921.697	3454
921.806	3629
921.916	3526
922.025	3351
922.134	3378
922.244	3310
922.353	3412
922.462	3272
922.571	3226
922.68	3089
922.789	3039
922.898	3123
923.007	3104
923.116	3203
923.224	3173
923.333	3218
923.442	3127
923.55	3100
923.659	3157
923.767	3211
923.876	3116
923.984	3241
924.092	3119
924.201	3180
924.309	3241
924.417	3199
924.525	3188
924.633	3260
924.741	4169
924.849	3058
924.956	3253
925.064	3104
925.172	3005
925.279	3093
925.387	3173
925.494	3192
925.602	3355
925.709	3321
925.816	3207
925.924	3272
926.031	3393
926.138	3351
926.245	3370
926.352	3306
926.459	3405
926.566	3473
926.673	3367
926.779	3241
926.886	3268
926.993	3135
927.099	3142
927.206	3150
927.312	3127
927.419	3256
927.525	3211
927.631	3294
927.737	3161
927.843	3157
927.95	3001
928.056	3131
928.162	3176
928.267	3249
928.373	3850
928.479	3279
928.585	3089
928.69	3218
928.796	3306
928.901	3195
929.007	3047
929.112	3184
929.218	3169
929.323	3180
929.428	3150
929.533	3340
929.638	3119
929.743	3173
929.848	3226
929.953	3211
930.058	3112
930.163	3013
930.267	3070
930.372	3157
930.477	2994
930.581	3298
930.685	3203
930.79	3032
930.894	3127
930.998	3123
931.103	3268
931.207	2941
931.311	2941
931.415	2899
931.519	2800
931.623	2842
