Data from test_V78500241_291.txt Node
Date: Fri Mar 25 16:17:13 CST 2022
User: usil
Spectrometer: V785-0024
Trigger mode: 0
Integration Time (sec): 4.000000E-1
Scans to average: 1
Nonlinearity correction enabled: false
Boxcar width: 0
Storing dark spectrum: false
XAxis mode: Wavelengths
Number of Pixels in Spectrum: 1024
>>>>>Begin Spectral Data<<<<<
801.071	2902
801.214	2986
801.356	2864
801.499	2899
801.641	2887
801.783	2922
801.926	3047
802.068	2952
802.211	3009
802.353	3043
802.496	2979
802.638	3028
802.78	3051
802.923	3077
803.065	2982
803.208	2906
803.35	2933
803.492	2948
803.635	2887
803.777	2769
803.919	2815
804.061	3192
804.204	2922
804.346	2902
804.488	2864
804.63	2971
804.773	2853
804.915	2918
805.057	3100
805.199	2944
805.341	2960
805.483	3001
805.626	3028
805.768	2925
805.91	3028
806.052	3131
806.194	3055
806.336	3230
806.478	3001
806.62	2918
806.762	2967
806.904	3074
807.046	3161
807.188	3013
807.33	2906
807.472	2956
807.614	2914
807.756	2982
807.898	2895
808.04	2883
808.182	2960
808.324	2902
808.465	2887
808.607	2853
808.749	2823
808.891	2849
809.033	2956
809.174	2971
809.316	2918
809.458	2876
809.6	2769
809.741	2727
809.883	2743
810.025	2819
810.166	2853
810.308	2830
810.45	2823
810.591	2781
810.733	2788
810.875	2804
811.016	2769
811.158	2750
811.299	2819
811.441	2933
811.582	2929
811.724	2842
811.865	2815
812.007	2883
812.148	2864
812.29	2861
812.431	2872
812.573	2937
812.714	2975
812.855	3020
812.997	3028
813.138	3116
813.279	3013
813.421	2982
813.562	2990
813.703	2853
813.845	2891
813.986	2762
814.127	2724
814.268	2823
814.41	2861
814.551	2819
814.692	2868
814.833	2819
814.974	2910
815.115	2975
815.256	2830
815.397	2804
815.539	2842
815.68	2777
815.821	2769
815.962	2944
816.103	2910
816.244	2929
816.385	2857
816.526	2895
816.666	2895
816.807	2735
816.948	2906
817.089	2929
817.23	2826
817.371	2766
817.512	2819
817.653	2853
817.793	2838
817.934	2868
818.075	2952
818.216	2952
818.356	3036
818.497	2830
818.638	2796
818.778	2807
818.919	2781
819.06	2773
819.2	2906
819.341	2811
819.481	2796
819.622	2925
819.762	3085
819.903	3017
820.043	2925
820.184	2902
820.324	2891
820.465	3013
820.605	2990
820.746	2986
820.886	2944
821.026	3100
821.167	3157
821.307	3218
821.447	3302
821.588	3211
821.728	3226
821.868	3157
822.008	3074
822.149	3154
822.289	3226
822.429	3100
822.569	3100
822.709	3176
822.849	3028
822.99	3074
823.13	3161
823.27	3192
823.41	3108
823.55	3165
823.69	3165
823.83	3188
823.97	3104
824.11	2986
824.25	2990
824.389	3036
824.529	3074
824.669	3024
824.809	3260
824.949	3207
825.089	3279
825.228	3138
825.368	3001
825.508	2960
825.648	2960
825.787	3028
825.927	3020
826.067	2975
826.206	2952
826.346	3013
826.485	3081
826.625	3123
826.765	3272
826.904	3195
827.044	2975
827.183	2925
827.323	2864
827.462	2975
827.601	2880
827.741	2929
827.88	2979
828.02	2883
828.159	3009
828.298	3013
828.437	3093
828.577	3070
828.716	3237
828.855	3043
828.994	2910
829.134	2891
829.273	2937
829.412	2876
829.551	2826
829.69	2910
829.829	3017
829.968	3112
830.107	3001
830.246	2982
830.385	2914
830.524	2899
830.663	2823
830.802	2754
830.941	2632
831.08	2648
831.219	2739
831.357	2746
831.496	2925
831.635	2686
831.774	2659
831.913	2651
832.051	2484
832.19	2598
832.329	2693
832.467	2545
832.606	2461
832.744	2602
832.883	2583
833.022	2575
833.16	2644
833.299	2648
833.437	2693
833.576	2682
833.714	2712
833.852	2758
833.991	2743
834.129	2834
834.267	2811
834.406	2781
834.544	2864
834.682	2849
834.821	2842
834.959	3005
835.097	2910
835.235	3077
835.373	3005
835.511	3039
835.65	2982
835.788	2948
835.926	2849
836.064	2792
836.202	2796
836.34	3097
836.478	3119
836.615	3009
836.753	3135
836.891	3199
837.029	3146
837.167	3085
837.305	3043
837.443	3032
837.58	2929
837.718	3112
837.856	3028
837.993	3005
838.131	3089
838.269	3123
838.406	3127
838.544	3089
838.681	2922
838.819	2929
838.956	2800
839.094	2823
839.231	2895
839.369	3013
839.506	3378
839.643	3195
839.781	3039
839.918	2963
840.055	3047
840.193	3024
840.33	3108
840.467	3135
840.604	3131
840.742	3401
840.879	3062
841.016	3043
841.153	3104
841.29	3294
841.427	3268
841.564	3340
841.701	3302
841.838	3222
841.975	3184
842.112	3176
842.249	3058
842.385	3024
842.522	3272
842.659	3081
842.796	3070
842.933	3085
843.069	3043
843.206	3055
843.343	3214
843.479	3093
843.616	3150
843.752	2895
843.889	2845
844.025	3081
844.162	2834
844.298	3062
844.435	2963
844.571	2876
844.708	3074
844.844	3161
844.98	3214
845.117	3207
845.253	3055
845.389	2990
845.525	3070
845.661	3089
845.798	3005
845.934	3127
846.07	3039
846.206	3207
846.342	3298
846.478	3222
846.614	3070
846.75	3058
846.886	3039
847.022	3237
847.158	3116
847.294	3180
847.429	3222
847.565	3199
847.701	3473
847.837	3009
847.972	2990
848.108	3142
848.244	3089
848.379	2960
848.515	2906
848.65	2929
848.786	2941
848.921	3001
849.057	3112
849.192	3127
849.328	3062
849.463	3097
849.598	3032
849.734	3001
849.869	2956
850.004	2906
850.14	2925
850.275	2887
850.41	2804
850.545	2864
850.68	2910
850.815	2941
850.95	2986
851.085	3169
851.22	3104
851.355	3055
851.49	2990
851.625	2982
851.76	3039
851.895	2933
852.03	2895
852.165	3032
852.299	3108
852.434	3157
852.569	3119
852.703	3173
852.838	3230
852.973	3279
853.107	3340
853.242	3146
853.376	3074
853.511	2963
853.645	3017
853.78	3245
853.914	3108
854.048	3119
854.183	3104
854.317	3157
854.451	3317
854.585	3116
854.72	3093
854.854	3211
854.988	3081
855.122	3070
855.256	2975
855.39	3146
855.524	3237
855.658	3192
855.792	3161
855.926	3165
856.06	3245
856.194	3310
856.327	3165
856.461	3074
856.595	3142
856.729	3135
856.862	3253
856.996	3146
857.13	3245
857.263	3275
857.397	3351
857.53	3165
857.664	3264
857.797	3287
857.931	3294
858.064	3161
858.197	3279
858.331	3150
858.464	3119
858.597	3051
858.731	3146
858.864	3154
858.997	3165
859.13	3180
859.263	3180
859.396	3249
859.529	3131
859.662	3138
859.795	3097
859.928	3203
860.061	3275
860.194	3344
860.327	3176
860.46	3165
860.592	3275
860.725	3279
860.858	3268
860.99	3135
861.123	3150
861.256	3131
861.388	3176
861.521	3857
861.653	3051
861.786	3020
861.918	3009
862.05	3108
862.183	3123
862.315	3211
862.447	3230
862.58	3112
862.712	2963
862.844	2887
862.976	3039
863.108	3077
863.24	3370
863.372	2944
863.504	3009
863.636	2967
863.768	3055
863.9	2986
864.032	2979
864.164	3024
864.296	3047
864.428	3135
864.559	3123
864.691	3119
864.823	3097
864.954	3055
865.086	3085
865.217	3005
865.349	3017
865.48	2971
865.612	3055
865.743	3165
865.875	3055
866.006	2975
866.137	3043
866.269	2975
866.4	3001
866.531	2922
866.662	2952
866.793	2933
866.924	2906
867.055	3020
867.186	2975
867.317	2906
867.448	2883
867.579	2864
867.71	2899
867.841	2853
867.972	2910
868.103	2929
868.233	2906
868.364	2876
868.495	2963
868.625	3085
868.756	3233
868.886	2982
869.017	3070
869.147	3214
869.278	3192
869.408	3085
869.539	3058
869.669	3119
869.799	3066
869.929	3154
870.06	3123
870.19	3355
870.32	3317
870.45	3325
870.58	3401
870.71	3488
870.84	3466
870.97	3336
871.1	3264
871.23	3549
871.36	3439
871.489	3374
871.619	3424
871.749	3393
871.879	3443
872.008	3523
872.138	3370
872.267	3275
872.397	3169
872.526	3146
872.656	3066
872.785	3142
872.915	3256
873.044	3355
873.173	3279
873.303	3283
873.432	3256
873.561	3264
873.69	3184
873.819	3150
873.948	3233
874.077	3097
874.206	3100
874.335	3074
874.464	3279
874.593	3355
874.722	3272
874.851	3469
874.979	3397
875.108	3359
875.237	3218
875.365	3222
875.494	3180
875.623	3268
875.751	3131
875.88	3150
876.008	3214
876.136	3241
876.265	3397
876.393	3526
876.521	3447
876.65	3405
876.778	3374
876.906	3279
877.034	3253
877.162	3230
877.29	3233
877.418	3317
877.546	3275
877.674	3294
877.802	3245
877.93	3249
878.058	3203
878.185	3161
878.313	3230
878.441	3218
878.568	3093
878.696	3188
878.824	3283
878.951	3348
879.079	3485
879.206	3656
879.333	3454
879.461	3344
879.588	3393
879.715	3504
879.842	3614
879.97	3443
880.097	3268
880.224	3176
880.351	3218
880.478	3203
880.605	3245
880.732	3214
880.859	3492
880.986	3344
881.112	3370
881.239	3218
881.366	3135
881.493	3093
881.619	3074
881.746	3112
881.872	3135
881.999	3135
882.125	3161
882.252	3264
882.378	3310
882.505	3477
882.631	3313
882.757	3218
882.883	3268
883.01	3268
883.136	3211
883.262	3116
883.388	3154
883.514	3336
883.64	3382
883.766	3374
883.892	3207
884.018	3245
884.143	3458
884.269	3584
884.395	3287
884.52	3161
884.646	3226
884.772	3135
884.897	3100
885.023	3253
885.148	3348
885.274	3393
885.399	3409
885.524	3325
885.65	3329
885.775	3351
885.9	3348
886.025	3473
886.15	3428
886.275	3294
886.4	3256
886.525	3351
886.65	3317
886.775	3310
886.9	3511
887.025	3686
887.149	3420
887.274	3279
887.399	3218
887.523	3260
887.648	3211
887.773	3218
887.897	3389
888.021	3435
888.146	3317
888.27	3450
888.395	3526
888.519	3469
888.643	3504
888.767	3458
888.891	3340
889.015	3287
889.139	3317
889.263	3291
889.387	3420
889.511	3542
889.635	3485
889.759	3348
889.883	3313
890.006	3386
890.13	3507
890.254	3302
890.377	3363
890.501	3207
890.624	3195
890.748	3367
890.871	3222
890.995	3116
891.118	3100
891.241	3226
891.364	3253
891.488	3332
891.611	3226
891.734	3253
891.857	3332
891.98	3291
892.103	3386
892.226	3306
892.349	3241
892.471	3150
892.594	3249
892.717	3332
892.839	3260
892.962	3336
893.085	3450
893.207	3302
893.33	3165
893.452	3222
893.575	3336
893.697	3306
893.819	3488
893.941	3507
894.064	3477
894.186	3329
894.308	3329
894.43	3412
894.552	3542
894.674	3515
894.796	3325
894.918	3344
895.04	3313
895.161	3431
895.283	3405
895.405	3363
895.526	3386
895.648	3431
895.769	3477
895.891	3473
896.012	3488
896.134	3473
896.255	3439
896.376	3458
896.498	3409
896.619	3492
896.74	3370
896.861	3462
896.982	3667
897.103	3884
897.224	3648
897.345	3553
897.466	3450
897.587	3572
897.708	3667
897.828	3584
897.949	3496
898.07	3332
898.19	3420
898.311	3641
898.431	3511
898.552	3530
898.672	3637
898.792	3599
898.913	3519
899.033	3405
899.153	3336
899.273	3218
899.393	3287
899.513	3355
899.633	3351
899.753	3397
899.873	3321
899.993	3409
900.113	3355
900.232	3416
900.352	3393
900.472	3336
900.591	3211
900.711	3313
900.83	3253
900.95	3439
901.069	3519
901.189	3378
901.308	3195
901.427	3135
901.546	3192
901.665	3329
901.784	3378
901.904	3241
902.023	3207
902.141	3066
902.26	3062
902.379	3119
902.498	3142
902.617	3043
902.735	3222
902.854	3256
902.973	3184
903.091	3039
903.21	3112
903.328	3180
903.446	3127
903.565	3123
903.683	3214
903.801	3169
903.919	3279
904.038	3249
904.156	3161
904.274	3291
904.392	3272
904.51	3291
904.627	3332
904.745	3439
904.863	3473
904.981	3245
905.098	3157
905.216	3260
905.334	3279
905.451	3306
905.569	3355
905.686	3431
905.803	3424
905.921	3332
906.038	3462
906.155	3393
906.272	3279
906.389	3351
906.506	3291
906.623	3291
906.74	3302
906.857	3188
906.974	3283
907.091	3466
907.208	3561
907.324	3496
907.441	3416
907.557	3256
907.674	3272
907.79	3260
907.907	3317
908.023	3412
908.139	3355
908.256	3351
908.372	3378
908.488	3409
908.604	3245
908.72	3233
908.836	3279
908.952	3287
909.068	3367
909.184	3515
909.3	3397
909.415	3523
909.531	3466
909.647	3291
909.762	3332
909.878	3302
909.993	3389
910.108	3355
910.224	3348
910.339	3439
910.454	3351
910.57	3336
910.685	3272
910.8	3663
910.915	3542
911.03	3424
911.145	3275
911.259	3272
911.374	3340
911.489	3287
911.604	3256
911.718	3157
911.833	3169
911.947	3032
912.062	2998
912.176	3222
912.291	3245
912.405	3237
912.519	3424
912.633	3496
912.748	3389
912.862	3275
912.976	3199
913.09	3093
913.204	3157
913.318	3203
913.431	3367
913.545	3348
913.659	3447
913.772	3340
913.886	3211
914	3226
914.113	3367
914.226	3424
914.34	3378
914.453	3264
914.566	3431
914.68	3351
914.793	3306
914.906	3184
915.019	3146
915.132	3116
915.245	3184
915.358	3199
915.47	3294
915.583	3298
915.696	3329
915.809	3409
915.921	3462
916.034	3245
916.146	3291
916.259	3237
916.371	3393
916.483	3382
916.595	3298
916.708	3355
916.82	3351
916.932	3340
917.044	3351
917.156	3313
917.268	3294
917.38	3302
917.491	3332
917.603	3355
917.715	3454
917.826	3492
917.938	3359
918.049	3344
918.161	3428
918.272	3576
918.384	3572
918.495	3504
918.606	3348
918.717	3291
918.828	3409
918.939	3420
919.05	3340
919.161	3378
919.272	3165
919.383	3275
919.494	3496
919.604	3690
919.715	3466
919.826	3416
919.936	3473
920.047	3603
920.157	3625
920.267	3781
920.378	3625
920.488	3606
920.598	3808
920.708	3949
920.818	3823
920.928	3850
921.038	4051
921.148	3968
921.258	3736
921.368	3660
921.477	3591
921.587	3526
921.697	3454
921.806	3633
921.916	3523
922.025	3374
922.134	3374
922.244	3336
922.353	3462
922.462	3294
922.571	3268
922.68	3119
922.789	3104
922.898	3165
923.007	3127
923.116	3264
923.224	3150
923.333	3192
923.442	3127
923.55	3123
923.659	3173
923.767	3245
923.876	3154
923.984	3256
924.092	3135
924.201	3253
924.309	3268
924.417	3287
924.525	3203
924.633	3245
924.741	4223
924.849	3116
924.956	3348
925.064	3119
925.172	3070
925.279	3176
925.387	3245
925.494	3272
925.602	3363
925.709	3344
925.816	3211
925.924	3329
926.031	3428
926.138	3409
926.245	3420
926.352	3302
926.459	3405
926.566	3523
926.673	3382
926.779	3275
926.886	3298
926.993	3199
927.099	3173
927.206	3192
927.312	3199
927.419	3287
927.525	3253
927.631	3294
927.737	3173
927.843	3184
927.95	3074
928.056	3169
928.162	3222
928.267	3367
928.373	3926
928.479	3386
928.585	3135
928.69	3279
928.796	3344
928.901	3199
929.007	3085
929.112	3268
929.218	3233
929.323	3207
929.428	3180
929.533	3351
929.638	3180
929.743	3184
929.848	3325
929.953	3268
930.058	3214
930.163	3055
930.267	3085
930.372	3283
930.477	3081
930.581	3363
930.685	3218
930.79	3112
930.894	3173
930.998	3173
931.103	3306
931.207	3013
931.311	2986
931.415	2956
931.519	2838
931.623	2868
