Data from test_V78500241_1952.txt Node
Date: Fri Mar 25 16:28:43 CST 2022
User: usil
Spectrometer: V785-0024
Trigger mode: 0
Integration Time (sec): 4.000000E-1
Scans to average: 1
Nonlinearity correction enabled: false
Boxcar width: 0
Storing dark spectrum: false
XAxis mode: Wavelengths
Number of Pixels in Spectrum: 1024
>>>>>Begin Spectral Data<<<<<
801.071	2944
801.214	3051
801.356	2914
801.499	2918
801.641	2887
801.783	2941
801.926	3093
802.068	3024
802.211	3017
802.353	3043
802.496	2971
802.638	3032
802.78	3085
802.923	3089
803.065	3013
803.208	2937
803.35	2979
803.492	2963
803.635	2944
803.777	2773
803.919	2887
804.061	3249
804.204	2967
804.346	2933
804.488	2857
804.63	3032
804.773	2872
804.915	2937
805.057	3093
805.199	2979
805.341	2994
805.483	3055
805.626	3009
805.768	2998
805.91	3104
806.052	3138
806.194	3043
806.336	3264
806.478	3009
806.62	2998
806.762	2967
806.904	3100
807.046	3180
807.188	2998
807.33	2925
807.472	3024
807.614	2914
807.756	3017
807.898	2948
808.04	2922
808.182	2994
808.324	2967
808.465	2902
808.607	2918
808.749	2838
808.891	2842
809.033	3017
809.174	2967
809.316	2895
809.458	2876
809.6	2804
809.741	2785
809.883	2792
810.025	2861
810.166	2887
810.308	2857
810.45	2895
810.591	2773
810.733	2788
810.875	2849
811.016	2807
811.158	2792
811.299	2826
811.441	2971
811.582	2941
811.724	2849
811.865	2872
812.007	2933
812.148	2925
812.29	2864
812.431	2918
812.573	2990
812.714	2986
812.855	3089
812.997	3013
813.138	3112
813.279	3036
813.421	2994
813.562	2998
813.703	2918
813.845	2929
813.986	2815
814.127	2766
814.268	2845
814.41	2849
814.551	2849
814.692	2914
814.833	2819
814.974	2887
815.115	2937
815.256	2834
815.397	2796
815.539	2868
815.68	2788
815.821	2838
815.962	2963
816.103	2933
816.244	2883
816.385	2902
816.526	2971
816.666	2975
816.807	2746
816.948	2880
817.089	2929
817.23	2887
817.371	2788
817.512	2857
817.653	2849
817.793	2826
817.934	2914
818.075	2975
818.216	3017
818.356	3055
818.497	2918
818.638	2796
818.778	2811
818.919	2845
819.06	2800
819.2	2902
819.341	2819
819.481	2830
819.622	2971
819.762	3127
819.903	3077
820.043	2922
820.184	2914
820.324	2891
820.465	3036
820.605	3043
820.746	3032
820.886	2948
821.026	3108
821.167	3184
821.307	3279
821.447	3287
821.588	3241
821.728	3253
821.868	3230
822.008	3077
822.149	3218
822.289	3218
822.429	3116
822.569	3131
822.709	3233
822.849	3032
822.99	3089
823.13	3169
823.27	3195
823.41	3123
823.55	3195
823.69	3165
823.83	3199
823.97	3108
824.11	3047
824.25	3055
824.389	3085
824.529	3097
824.669	3058
824.809	3226
824.949	3264
825.089	3233
825.228	3176
825.368	2979
825.508	3009
825.648	2994
825.787	3009
825.927	3017
826.067	2986
826.206	2975
826.346	3062
826.485	3081
826.625	3112
826.765	3287
826.904	3222
827.044	3028
827.183	2982
827.323	2925
827.462	2986
827.601	2925
827.741	2941
827.88	2979
828.02	2864
828.159	3005
828.298	3024
828.437	3135
828.577	3051
828.716	3264
828.855	3104
828.994	2929
829.134	2872
829.273	2963
829.412	2891
829.551	2838
829.69	2902
829.829	2994
829.968	3184
830.107	3039
830.246	3032
830.385	2963
830.524	2902
830.663	2845
830.802	2716
830.941	2655
831.08	2693
831.219	2773
831.357	2777
831.496	2994
831.635	2746
831.774	2659
831.913	2663
832.051	2579
832.19	2575
832.329	2693
832.467	2579
832.606	2499
832.744	2594
832.883	2594
833.022	2583
833.16	2663
833.299	2689
833.437	2708
833.576	2712
833.714	2746
833.852	2739
833.991	2796
834.129	2838
834.267	2826
834.406	2807
834.544	2880
834.682	2906
834.821	2883
834.959	3062
835.097	2899
835.235	3032
835.373	3051
835.511	2994
835.65	2956
835.788	2979
835.926	2895
836.064	2807
836.202	2849
836.34	3081
836.478	3165
836.615	3047
836.753	3142
836.891	3199
837.029	3150
837.167	3112
837.305	3066
837.443	3077
837.58	2963
837.718	3123
837.856	3093
837.993	3062
838.131	3112
838.269	3131
838.406	3119
838.544	3097
838.681	2956
838.819	2899
838.956	2826
839.094	2872
839.231	2883
839.369	3032
839.506	3351
839.643	3241
839.781	3036
839.918	2967
840.055	3043
840.193	3043
840.33	3100
840.467	3074
840.604	3173
840.742	3405
840.879	3089
841.016	3062
841.153	3112
841.29	3317
841.427	3313
841.564	3283
841.701	3291
841.838	3233
841.975	3173
842.112	3260
842.249	3077
842.385	3039
842.522	3275
842.659	3135
842.796	3055
842.933	3100
843.069	3051
843.206	3058
843.343	3192
843.479	3100
843.616	3146
843.752	2902
843.889	2922
844.025	3100
844.162	2887
844.298	3081
844.435	2925
844.571	2891
844.708	3062
844.844	3173
844.98	3211
845.117	3176
845.253	3070
845.389	3013
845.525	3104
845.661	3097
845.798	2998
845.934	3116
846.07	3097
846.206	3241
846.342	3329
846.478	3218
846.614	3119
846.75	3039
846.886	3017
847.022	3249
847.158	3161
847.294	3218
847.429	3268
847.565	3237
847.701	3496
847.837	3058
847.972	3009
848.108	3161
848.244	3127
848.379	2986
848.515	2952
848.65	2906
848.786	2979
848.921	3039
849.057	3081
849.192	3157
849.328	3062
849.463	3089
849.598	3081
849.734	3062
849.869	2979
850.004	2963
850.14	2979
850.275	2956
850.41	2849
850.545	2948
850.68	2963
850.815	2956
850.95	2982
851.085	3199
851.22	3127
851.355	3043
851.49	3001
851.625	3005
851.76	3047
851.895	2933
852.03	2922
852.165	3032
852.299	3119
852.434	3207
852.569	3157
852.703	3169
852.838	3287
852.973	3336
853.107	3325
853.242	3157
853.376	3100
853.511	2994
853.645	3070
853.78	3279
853.914	3116
854.048	3074
854.183	3093
854.317	3131
854.451	3310
854.585	3123
854.72	3074
854.854	3222
854.988	3066
855.122	3112
855.256	2971
855.39	3138
855.524	3226
855.658	3176
855.792	3184
855.926	3180
856.06	3249
856.194	3245
856.327	3165
856.461	3100
856.595	3097
856.729	3089
856.862	3226
856.996	3150
857.13	3218
857.263	3207
857.397	3283
857.53	3116
857.664	3142
857.797	3245
857.931	3245
858.064	3135
858.197	3272
858.331	3165
858.464	3104
858.597	3036
858.731	3135
858.864	3108
858.997	3093
859.13	3123
859.263	3154
859.396	3245
859.529	3070
859.662	3039
859.795	3039
859.928	3150
860.061	3237
860.194	3313
860.327	3116
860.46	3093
860.592	3218
860.725	3214
860.858	3241
860.99	3085
861.123	3028
861.256	3028
861.388	3146
861.521	3888
861.653	2982
861.786	3005
861.918	2975
862.05	3043
862.183	3089
862.315	3131
862.447	3214
862.58	3104
862.712	2952
862.844	2876
862.976	3009
863.108	3028
863.24	3306
863.372	2910
863.504	2963
863.636	2948
863.768	3047
863.9	2998
864.032	2925
864.164	2956
864.296	3062
864.428	3089
864.559	3089
864.691	3097
864.823	3093
864.954	3066
865.086	3047
865.217	2994
865.349	2944
865.48	2944
865.612	3024
865.743	3169
865.875	2994
866.006	2933
866.137	2982
866.269	2944
866.4	2922
866.531	2895
866.662	2880
866.793	2906
866.924	2902
867.055	2956
867.186	2906
867.317	2891
867.448	2823
867.579	2815
867.71	2845
867.841	2842
867.972	2929
868.103	2899
868.233	2902
868.364	2883
868.495	2906
868.625	3070
868.756	3131
868.886	3009
869.017	3020
869.147	3146
869.278	3142
869.408	3024
869.539	2994
869.669	3131
869.799	3066
869.929	3150
870.06	3093
870.19	3302
870.32	3313
870.45	3310
870.58	3344
870.71	3488
870.84	3424
870.97	3272
871.1	3275
871.23	3473
871.36	3454
871.489	3378
871.619	3378
871.749	3435
871.879	3435
872.008	3500
872.138	3370
872.267	3275
872.397	3135
872.526	3112
872.656	3009
872.785	3093
872.915	3222
873.044	3325
873.173	3214
873.303	3253
873.432	3237
873.561	3298
873.69	3165
873.819	3142
873.948	3169
874.077	3116
874.206	3055
874.335	3074
874.464	3260
874.593	3363
874.722	3211
874.851	3382
874.979	3370
875.108	3268
875.237	3169
875.365	3161
875.494	3165
875.623	3237
875.751	3104
875.88	3135
876.008	3165
876.136	3203
876.265	3374
876.393	3507
876.521	3431
876.65	3386
876.778	3348
876.906	3237
877.034	3192
877.162	3245
877.29	3173
877.418	3256
877.546	3256
877.674	3241
877.802	3226
877.93	3222
878.058	3150
878.185	3097
878.313	3211
878.441	3192
878.568	3047
878.696	3119
878.824	3298
878.951	3283
879.079	3439
879.206	3576
879.333	3450
879.461	3351
879.588	3344
879.715	3477
879.842	3576
879.97	3389
880.097	3184
880.224	3146
880.351	3180
880.478	3249
880.605	3176
880.732	3211
880.859	3496
880.986	3310
881.112	3348
881.239	3180
881.366	3062
881.493	3032
881.619	3013
881.746	3112
881.872	3104
881.999	3097
882.125	3146
882.252	3218
882.378	3313
882.505	3409
882.631	3279
882.757	3180
882.883	3230
883.01	3226
883.136	3150
883.262	3089
883.388	3104
883.514	3310
883.64	3344
883.766	3332
883.892	3188
884.018	3233
884.143	3416
884.269	3553
884.395	3199
884.52	3154
884.646	3214
884.772	3119
884.897	3123
885.023	3188
885.148	3329
885.274	3386
885.399	3302
885.524	3287
885.65	3249
885.775	3302
885.9	3294
886.025	3409
886.15	3355
886.275	3310
886.4	3230
886.525	3272
886.65	3279
886.775	3260
886.9	3492
887.025	3648
887.149	3412
887.274	3214
887.399	3180
887.523	3192
887.648	3169
887.773	3195
887.897	3397
888.021	3393
888.146	3272
888.27	3424
888.395	3519
888.519	3409
888.643	3401
888.767	3424
888.891	3310
889.015	3279
889.139	3287
889.263	3237
889.387	3409
889.511	3481
889.635	3469
889.759	3249
889.883	3310
890.006	3359
890.13	3488
890.254	3260
890.377	3340
890.501	3195
890.624	3184
890.748	3313
890.871	3161
890.995	3131
891.118	3066
891.241	3176
891.364	3214
891.488	3378
891.611	3211
891.734	3226
891.857	3298
891.98	3214
892.103	3355
892.226	3306
892.349	3203
892.471	3154
892.594	3264
892.717	3287
892.839	3283
892.962	3283
893.085	3409
893.207	3279
893.33	3142
893.452	3226
893.575	3329
893.697	3264
893.819	3443
893.941	3515
894.064	3466
894.186	3287
894.308	3230
894.43	3458
894.552	3557
894.674	3462
894.796	3260
894.918	3298
895.04	3302
895.161	3416
895.283	3389
895.405	3313
895.526	3363
895.648	3466
895.769	3420
895.891	3462
896.012	3492
896.134	3443
896.255	3401
896.376	3397
896.498	3340
896.619	3416
896.74	3351
896.861	3386
896.982	3705
897.103	3827
897.224	3572
897.345	3507
897.466	3409
897.587	3511
897.708	3622
897.828	3557
897.949	3431
898.07	3340
898.19	3443
898.311	3633
898.431	3447
898.552	3496
898.672	3603
898.792	3553
898.913	3519
899.033	3393
899.153	3268
899.273	3249
899.393	3268
899.513	3325
899.633	3367
899.753	3340
899.873	3310
899.993	3386
900.113	3329
900.232	3351
900.352	3344
900.472	3245
900.591	3214
900.711	3260
900.83	3241
900.95	3409
901.069	3492
901.189	3363
901.308	3176
901.427	3097
901.546	3161
901.665	3283
901.784	3374
901.904	3165
902.023	3161
902.141	3032
902.26	2990
902.379	3108
902.498	3093
902.617	3032
902.735	3211
902.854	3294
902.973	3180
903.091	3051
903.21	3043
903.328	3138
903.446	3157
903.565	3112
903.683	3237
903.801	3138
903.919	3230
904.038	3302
904.156	3169
904.274	3298
904.392	3241
904.51	3313
904.627	3313
904.745	3416
904.863	3500
904.981	3245
905.098	3154
905.216	3203
905.334	3275
905.451	3310
905.569	3291
905.686	3443
905.803	3435
905.921	3291
906.038	3439
906.155	3325
906.272	3294
906.389	3344
906.506	3237
906.623	3241
906.74	3272
906.857	3180
906.974	3230
907.091	3469
907.208	3542
907.324	3439
907.441	3363
907.557	3233
907.674	3253
907.79	3203
907.907	3237
908.023	3389
908.139	3370
908.256	3340
908.372	3370
908.488	3348
908.604	3256
908.72	3230
908.836	3298
908.952	3275
909.068	3340
909.184	3431
909.3	3397
909.415	3481
909.531	3447
909.647	3260
909.762	3321
909.878	3256
909.993	3329
910.108	3321
910.224	3336
910.339	3397
910.454	3294
910.57	3329
910.685	3260
910.8	3572
910.915	3515
911.03	3443
911.145	3233
911.259	3249
911.374	3310
911.489	3233
911.604	3184
911.718	3131
911.833	3165
911.947	3009
912.062	2952
912.176	3157
912.291	3176
912.405	3241
912.519	3473
912.633	3492
912.748	3351
912.862	3203
912.976	3207
913.09	3062
913.204	3131
913.318	3245
913.431	3306
913.545	3344
913.659	3409
913.772	3355
913.886	3237
914	3245
914.113	3348
914.226	3428
914.34	3344
914.453	3233
914.566	3374
914.68	3268
914.793	3306
914.906	3146
915.019	3077
915.132	3119
915.245	3203
915.358	3203
915.47	3264
915.583	3253
915.696	3268
915.809	3416
915.921	3420
916.034	3272
916.146	3222
916.259	3211
916.371	3386
916.483	3386
916.595	3249
916.708	3313
916.82	3329
916.932	3336
917.044	3367
917.156	3325
917.268	3233
917.38	3302
917.491	3313
917.603	3355
917.715	3424
917.826	3507
917.938	3374
918.049	3249
918.161	3435
918.272	3564
918.384	3572
918.495	3473
918.606	3329
918.717	3287
918.828	3340
918.939	3397
919.05	3272
919.161	3389
919.272	3180
919.383	3302
919.494	3504
919.604	3679
919.715	3454
919.826	3397
919.936	3435
920.047	3580
920.157	3568
920.267	3770
920.378	3629
920.488	3603
920.598	3781
920.708	3915
920.818	3800
920.928	3842
921.038	4002
921.148	3964
921.258	3682
921.368	3595
921.477	3603
921.587	3515
921.697	3477
921.806	3629
921.916	3553
922.025	3344
922.134	3310
922.244	3306
922.353	3420
922.462	3230
922.571	3230
922.68	3081
922.789	3089
922.898	3154
923.007	3097
923.116	3211
923.224	3184
923.333	3161
923.442	3070
923.55	3074
923.659	3100
923.767	3165
923.876	3131
923.984	3230
924.092	3116
924.201	3184
924.309	3214
924.417	3237
924.525	3192
924.633	3230
924.741	4147
924.849	3055
924.956	3237
925.064	3100
925.172	3024
925.279	3081
925.387	3169
925.494	3218
925.602	3355
925.709	3370
925.816	3180
925.924	3283
926.031	3355
926.138	3344
926.245	3367
926.352	3241
926.459	3412
926.566	3473
926.673	3317
926.779	3207
926.886	3218
926.993	3169
927.099	3123
927.206	3074
927.312	3146
927.419	3214
927.525	3218
927.631	3283
927.737	3176
927.843	3089
927.95	3020
928.056	3100
928.162	3195
928.267	3241
928.373	3892
928.479	3310
928.585	3043
928.69	3214
928.796	3275
928.901	3146
929.007	3005
929.112	3184
929.218	3146
929.323	3142
929.428	3127
929.533	3336
929.638	3104
929.743	3131
929.848	3214
929.953	3211
930.058	3184
930.163	3005
930.267	3081
930.372	3207
930.477	3051
930.581	3317
930.685	3203
930.79	3017
930.894	3112
930.998	3074
931.103	3260
931.207	2971
931.311	2929
931.415	2906
931.519	2788
931.623	2796
