Data from test_V78500241_1684.txt Node
Date: Fri Mar 25 16:26:52 CST 2022
User: usil
Spectrometer: V785-0024
Trigger mode: 0
Integration Time (sec): 4.000000E-1
Scans to average: 1
Nonlinearity correction enabled: false
Boxcar width: 0
Storing dark spectrum: false
XAxis mode: Wavelengths
Number of Pixels in Spectrum: 1024
>>>>>Begin Spectral Data<<<<<
801.071	2929
801.214	2982
801.356	2876
801.499	2880
801.641	2868
801.783	2914
801.926	3005
802.068	2952
802.211	2994
802.353	3032
802.496	2963
802.638	3043
802.78	3043
802.923	3085
803.065	2998
803.208	2902
803.35	2922
803.492	2902
803.635	2902
803.777	2731
803.919	2845
804.061	3161
804.204	2967
804.346	2883
804.488	2830
804.63	2937
804.773	2811
804.915	2922
805.057	3081
805.199	2918
805.341	2986
805.483	3024
805.626	2994
805.768	2937
805.91	3093
806.052	3093
806.194	2998
806.336	3268
806.478	3020
806.62	2948
806.762	2963
806.904	3024
807.046	3157
807.188	2963
807.33	2925
807.472	2941
807.614	2925
807.756	2979
807.898	2902
808.04	2868
808.182	2948
808.324	2948
808.465	2868
808.607	2853
808.749	2792
808.891	2861
809.033	2967
809.174	2929
809.316	2899
809.458	2868
809.6	2762
809.741	2746
809.883	2788
810.025	2861
810.166	2857
810.308	2834
810.45	2883
810.591	2800
810.733	2773
810.875	2868
811.016	2792
811.158	2750
811.299	2785
811.441	2937
811.582	2853
811.724	2796
811.865	2815
812.007	2941
812.148	2914
812.29	2876
812.431	2895
812.573	2906
812.714	2975
812.855	3013
812.997	3062
813.138	3138
813.279	2982
813.421	2967
813.562	2937
813.703	2883
813.845	2849
813.986	2754
814.127	2743
814.268	2804
814.41	2853
814.551	2773
814.692	2902
814.833	2826
814.974	2883
815.115	2960
815.256	2838
815.397	2788
815.539	2880
815.68	2785
815.821	2792
815.962	2910
816.103	2929
816.244	2895
816.385	2838
816.526	3009
816.666	2910
816.807	2724
816.948	2895
817.089	2925
817.23	2887
817.371	2800
817.512	2777
817.653	2834
817.793	2815
817.934	2861
818.075	2952
818.216	2998
818.356	3017
818.497	2883
818.638	2807
818.778	2788
818.919	2788
819.06	2796
819.2	2895
819.341	2819
819.481	2800
819.622	2952
819.762	3089
819.903	3066
820.043	2941
820.184	2910
820.324	2887
820.465	2998
820.605	3036
820.746	3005
820.886	2948
821.026	3093
821.167	3218
821.307	3272
821.447	3310
821.588	3233
821.728	3188
821.868	3180
822.008	3055
822.149	3184
822.289	3207
822.429	3131
822.569	3093
822.709	3173
822.849	3024
822.99	3066
823.13	3150
823.27	3226
823.41	3131
823.55	3154
823.69	3123
823.83	3173
823.97	3070
824.11	2994
824.25	2960
824.389	3062
824.529	3104
824.669	3032
824.809	3199
824.949	3203
825.089	3214
825.228	3131
825.368	3024
825.508	2937
825.648	2967
825.787	3017
825.927	3024
826.067	2948
826.206	2960
826.346	3039
826.485	3074
826.625	3138
826.765	3272
826.904	3173
827.044	2979
827.183	2883
827.323	2853
827.462	2941
827.601	2880
827.741	2933
827.88	2971
828.02	2853
828.159	2956
828.298	3017
828.437	3116
828.577	3039
828.716	3230
828.855	3116
828.994	2929
829.134	2880
829.273	2895
829.412	2864
829.551	2823
829.69	2906
829.829	3009
829.968	3085
830.107	2979
830.246	3032
830.385	2918
830.524	2876
830.663	2788
830.802	2724
830.941	2648
831.08	2621
831.219	2716
831.357	2754
831.496	2960
831.635	2712
831.774	2640
831.913	2632
832.051	2530
832.19	2560
832.329	2686
832.467	2518
832.606	2488
832.744	2571
832.883	2590
833.022	2579
833.16	2644
833.299	2678
833.437	2716
833.576	2689
833.714	2727
833.852	2743
833.991	2746
834.129	2804
834.267	2826
834.406	2773
834.544	2872
834.682	2925
834.821	2845
834.959	3020
835.097	2880
835.235	3017
835.373	2998
835.511	3036
835.65	2975
835.788	2937
835.926	2800
836.064	2800
836.202	2899
836.34	3104
836.478	3127
836.615	3039
836.753	3108
836.891	3173
837.029	3150
837.167	3097
837.305	3077
837.443	3047
837.58	2944
837.718	3123
837.856	3093
837.993	3036
838.131	3142
838.269	3081
838.406	3119
838.544	3066
838.681	2937
838.819	2918
838.956	2811
839.094	2807
839.231	2910
839.369	3028
839.506	3363
839.643	3214
839.781	3020
839.918	2979
840.055	3047
840.193	3036
840.33	3081
840.467	3138
840.604	3146
840.742	3447
840.879	3058
841.016	3028
841.153	3093
841.29	3306
841.427	3298
841.564	3302
841.701	3291
841.838	3188
841.975	3211
842.112	3207
842.249	3055
842.385	3039
842.522	3275
842.659	3070
842.796	3055
842.933	3077
843.069	3024
843.206	3009
843.343	3203
843.479	3093
843.616	3127
843.752	2941
843.889	2887
844.025	3055
844.162	2876
844.298	3047
844.435	2944
844.571	2906
844.708	3074
844.844	3176
844.98	3241
845.117	3211
845.253	3039
845.389	2990
845.525	3066
845.661	3119
845.798	3009
845.934	3154
846.07	3051
846.206	3218
846.342	3260
846.478	3233
846.614	3093
846.75	3020
846.886	3047
847.022	3272
847.158	3146
847.294	3180
847.429	3253
847.565	3199
847.701	3481
847.837	3013
847.972	2994
848.108	3123
848.244	3135
848.379	2956
848.515	2922
848.65	2899
848.786	2944
848.921	3017
849.057	3058
849.192	3112
849.328	3047
849.463	3089
849.598	3047
849.734	3058
849.869	2990
850.004	2914
850.14	2986
850.275	2914
850.41	2838
850.545	2887
850.68	2891
850.815	2967
850.95	2956
851.085	3173
851.22	3097
851.355	3036
851.49	2998
851.625	2979
851.76	2982
851.895	2986
852.03	2922
852.165	3013
852.299	3058
852.434	3165
852.569	3131
852.703	3150
852.838	3237
852.973	3317
853.107	3310
853.242	3138
853.376	3066
853.511	2944
853.645	3001
853.78	3256
853.914	3093
854.048	3112
854.183	3066
854.317	3169
854.451	3310
854.585	3112
854.72	3066
854.854	3230
854.988	3058
855.122	3135
855.256	2967
855.39	3138
855.524	3176
855.658	3176
855.792	3135
855.926	3222
856.06	3256
856.194	3241
856.327	3131
856.461	3062
856.595	3119
856.729	3047
856.862	3214
856.996	3184
857.13	3203
857.263	3237
857.397	3279
857.53	3077
857.664	3214
857.797	3203
857.931	3260
858.064	3176
858.197	3207
858.331	3203
858.464	3074
858.597	2986
858.731	3100
858.864	3116
858.997	3039
859.13	3123
859.263	3161
859.396	3207
859.529	3070
859.662	3070
859.795	3081
859.928	3169
860.061	3287
860.194	3264
860.327	3127
860.46	3020
860.592	3233
860.725	3283
860.858	3233
860.99	3131
861.123	3055
861.256	3043
861.388	3169
861.521	3869
861.653	3043
861.786	2982
861.918	2998
862.05	3062
862.183	3108
862.315	3157
862.447	3192
862.58	3093
862.712	2956
862.844	2819
862.976	3043
863.108	3017
863.24	3420
863.372	2853
863.504	2960
863.636	2952
863.768	3036
863.9	2986
864.032	2906
864.164	2963
864.296	2986
864.428	3077
864.559	3097
864.691	3043
864.823	3013
864.954	3024
865.086	3036
865.217	3009
865.349	2922
865.48	3001
865.612	2998
865.743	3157
865.875	2979
866.006	2956
866.137	2979
866.269	2952
866.4	2914
866.531	2895
866.662	2918
866.793	2887
866.924	2891
867.055	2975
867.186	2906
867.317	2891
867.448	2834
867.579	2857
867.71	2864
867.841	2815
867.972	2895
868.103	2910
868.233	2880
868.364	2883
868.495	2895
868.625	3108
868.756	3157
868.886	2952
869.017	3009
869.147	3176
869.278	3142
869.408	3047
869.539	3047
869.669	3085
869.799	3047
869.929	3146
870.06	3123
870.19	3313
870.32	3294
870.45	3291
870.58	3378
870.71	3431
870.84	3458
870.97	3268
871.1	3245
871.23	3428
871.36	3439
871.489	3344
871.619	3370
871.749	3405
871.879	3393
872.008	3473
872.138	3382
872.267	3294
872.397	3138
872.526	3097
872.656	2990
872.785	3112
872.915	3222
873.044	3294
873.173	3176
873.303	3275
873.432	3260
873.561	3233
873.69	3146
873.819	3154
873.948	3199
874.077	3097
874.206	3047
874.335	3070
874.464	3214
874.593	3340
874.722	3256
874.851	3405
874.979	3363
875.108	3302
875.237	3203
875.365	3135
875.494	3131
875.623	3241
875.751	3100
875.88	3104
876.008	3207
876.136	3214
876.265	3374
876.393	3477
876.521	3443
876.65	3397
876.778	3355
876.906	3249
877.034	3192
877.162	3268
877.29	3180
877.418	3264
877.546	3218
877.674	3222
877.802	3203
877.93	3214
878.058	3161
878.185	3108
878.313	3192
878.441	3203
878.568	3028
878.696	3142
878.824	3226
878.951	3294
879.079	3435
879.206	3606
879.333	3450
879.461	3378
879.588	3370
879.715	3469
879.842	3576
879.97	3355
880.097	3150
880.224	3112
880.351	3169
880.478	3188
880.605	3184
880.732	3192
880.859	3530
880.986	3310
881.112	3313
881.239	3195
881.366	3093
881.493	3036
881.619	3047
881.746	3043
881.872	3066
881.999	3119
882.125	3169
882.252	3245
882.378	3294
882.505	3374
882.631	3275
882.757	3142
882.883	3218
883.01	3211
883.136	3146
883.262	3100
883.388	3123
883.514	3283
883.64	3367
883.766	3291
883.892	3184
884.018	3241
884.143	3405
884.269	3576
884.395	3207
884.52	3169
884.646	3173
884.772	3131
884.897	3100
885.023	3199
885.148	3317
885.274	3397
885.399	3363
885.524	3294
885.65	3233
885.775	3317
885.9	3256
886.025	3428
886.15	3336
886.275	3298
886.4	3241
886.525	3287
886.65	3287
886.775	3264
886.9	3469
887.025	3622
887.149	3382
887.274	3230
887.399	3180
887.523	3207
887.648	3150
887.773	3233
887.897	3344
888.021	3409
888.146	3287
888.27	3439
888.395	3519
888.519	3481
888.643	3447
888.767	3481
888.891	3329
889.015	3226
889.139	3260
889.263	3260
889.387	3382
889.511	3473
889.635	3397
889.759	3283
889.883	3287
890.006	3370
890.13	3492
890.254	3272
890.377	3348
890.501	3199
890.624	3192
890.748	3283
890.871	3154
890.995	3097
891.118	3043
891.241	3195
891.364	3192
891.488	3313
891.611	3161
891.734	3245
891.857	3287
891.98	3214
892.103	3344
892.226	3275
892.349	3233
892.471	3104
892.594	3218
892.717	3279
892.839	3287
892.962	3287
893.085	3348
893.207	3253
893.33	3169
893.452	3195
893.575	3378
893.697	3222
893.819	3473
893.941	3488
894.064	3447
894.186	3226
894.308	3272
894.43	3409
894.552	3538
894.674	3454
894.796	3268
894.918	3310
895.04	3294
895.161	3412
895.283	3389
895.405	3310
895.526	3367
895.648	3389
895.769	3416
895.891	3428
896.012	3485
896.134	3492
896.255	3420
896.376	3405
896.498	3389
896.619	3393
896.74	3336
896.861	3378
896.982	3648
897.103	3819
897.224	3591
897.345	3500
897.466	3389
897.587	3507
897.708	3610
897.828	3523
897.949	3458
898.07	3313
898.19	3374
898.311	3625
898.431	3454
898.552	3515
898.672	3599
898.792	3606
898.913	3507
899.033	3363
899.153	3321
899.273	3188
899.393	3287
899.513	3298
899.633	3275
899.753	3367
899.873	3249
899.993	3344
900.113	3336
900.232	3332
900.352	3268
900.472	3268
900.591	3161
900.711	3279
900.83	3226
900.95	3443
901.069	3504
901.189	3313
901.308	3127
901.427	3135
901.546	3226
901.665	3313
901.784	3348
901.904	3195
902.023	3157
902.141	3032
902.26	2990
902.379	3135
902.498	3039
902.617	3051
902.735	3233
902.854	3173
902.973	3192
903.091	2990
903.21	3051
903.328	3100
903.446	3123
903.565	3123
903.683	3218
903.801	3100
903.919	3207
904.038	3279
904.156	3146
904.274	3317
904.392	3256
904.51	3287
904.627	3340
904.745	3416
904.863	3481
904.981	3268
905.098	3150
905.216	3207
905.334	3283
905.451	3272
905.569	3298
905.686	3435
905.803	3420
905.921	3294
906.038	3439
906.155	3359
906.272	3241
906.389	3332
906.506	3249
906.623	3272
906.74	3275
906.857	3188
906.974	3233
907.091	3428
907.208	3542
907.324	3481
907.441	3389
907.557	3256
907.674	3199
907.79	3173
907.907	3302
908.023	3389
908.139	3401
908.256	3332
908.372	3355
908.488	3386
908.604	3287
908.72	3272
908.836	3253
908.952	3245
909.068	3310
909.184	3454
909.3	3416
909.415	3477
909.531	3481
909.647	3279
909.762	3298
909.878	3241
909.993	3370
910.108	3317
910.224	3298
910.339	3439
910.454	3294
910.57	3302
910.685	3264
910.8	3561
910.915	3519
911.03	3469
911.145	3237
911.259	3272
911.374	3298
911.489	3237
911.604	3253
911.718	3116
911.833	3150
911.947	3058
912.062	2998
912.176	3142
912.291	3184
912.405	3230
912.519	3416
912.633	3473
912.748	3336
912.862	3287
912.976	3157
913.09	3074
913.204	3116
913.318	3188
913.431	3340
913.545	3329
913.659	3405
913.772	3332
913.886	3230
914	3184
914.113	3378
914.226	3454
914.34	3348
914.453	3214
914.566	3412
914.68	3310
914.793	3291
914.906	3157
915.019	3077
915.132	3070
915.245	3188
915.358	3165
915.47	3218
915.583	3237
915.696	3306
915.809	3393
915.921	3428
916.034	3272
916.146	3249
916.259	3230
916.371	3348
916.483	3348
916.595	3268
916.708	3340
916.82	3329
916.932	3306
917.044	3370
917.156	3348
917.268	3249
917.38	3279
917.491	3302
917.603	3351
917.715	3450
917.826	3500
917.938	3393
918.049	3317
918.161	3424
918.272	3587
918.384	3595
918.495	3526
918.606	3317
918.717	3298
918.828	3355
918.939	3420
919.05	3283
919.161	3374
919.272	3188
919.383	3283
919.494	3466
919.604	3690
919.715	3473
919.826	3447
919.936	3450
920.047	3576
920.157	3568
920.267	3838
920.378	3625
920.488	3538
920.598	3717
920.708	3960
920.818	3789
920.928	3812
921.038	4029
921.148	3953
921.258	3728
921.368	3625
921.477	3625
921.587	3530
921.697	3466
921.806	3652
921.916	3511
922.025	3340
922.134	3386
922.244	3317
922.353	3435
922.462	3237
922.571	3218
922.68	3119
922.789	3077
922.898	3157
923.007	3055
923.116	3176
923.224	3173
923.333	3207
923.442	3081
923.55	3100
923.659	3112
923.767	3237
923.876	3112
923.984	3184
924.092	3089
924.201	3207
924.309	3226
924.417	3241
924.525	3218
924.633	3230
924.741	4147
924.849	3051
924.956	3279
925.064	3081
925.172	3058
925.279	3085
925.387	3188
925.494	3214
925.602	3367
925.709	3355
925.816	3214
925.924	3253
926.031	3389
926.138	3344
926.245	3359
926.352	3241
926.459	3439
926.566	3511
926.673	3344
926.779	3260
926.886	3287
926.993	3169
927.099	3108
927.206	3051
927.312	3138
927.419	3222
927.525	3173
927.631	3302
927.737	3116
927.843	3138
927.95	3024
928.056	3157
928.162	3180
928.267	3237
928.373	3880
928.479	3325
928.585	3058
928.69	3218
928.796	3230
928.901	3161
929.007	3062
929.112	3176
929.218	3184
929.323	3135
929.428	3131
929.533	3313
929.638	3100
929.743	3135
929.848	3253
929.953	3207
930.058	3157
930.163	2960
930.267	3039
930.372	3195
930.477	3036
930.581	3291
930.685	3123
930.79	3104
930.894	3089
930.998	3093
931.103	3283
931.207	2979
931.311	2975
931.415	2914
931.519	2819
931.623	2792
