Data from test_V78500241_2053.txt Node
Date: Fri Mar 25 16:29:25 CST 2022
User: usil
Spectrometer: V785-0024
Trigger mode: 0
Integration Time (sec): 4.000000E-1
Scans to average: 1
Nonlinearity correction enabled: false
Boxcar width: 0
Storing dark spectrum: false
XAxis mode: Wavelengths
Number of Pixels in Spectrum: 1024
>>>>>Begin Spectral Data<<<<<
801.071	2922
801.214	2948
801.356	2887
801.499	2883
801.641	2872
801.783	2941
801.926	3039
802.068	2979
802.211	2990
802.353	3017
802.496	2967
802.638	3013
802.78	3055
802.923	3081
803.065	2998
803.208	2880
803.35	2937
803.492	2952
803.635	2918
803.777	2777
803.919	2864
804.061	3218
804.204	2960
804.346	2906
804.488	2815
804.63	2986
804.773	2868
804.915	2952
805.057	3123
805.199	2979
805.341	2960
805.483	3039
805.626	2979
805.768	2952
805.91	3058
806.052	3127
806.194	3024
806.336	3241
806.478	3058
806.62	2944
806.762	2975
806.904	3070
807.046	3116
807.188	2963
807.33	2887
807.472	2933
807.614	2883
807.756	2990
807.898	2925
808.04	2883
808.182	2971
808.324	2925
808.465	2891
808.607	2853
808.749	2769
808.891	2834
809.033	2990
809.174	2994
809.316	2895
809.458	2838
809.6	2781
809.741	2758
809.883	2773
810.025	2857
810.166	2857
810.308	2842
810.45	2853
810.591	2754
810.733	2754
810.875	2834
811.016	2746
811.158	2777
811.299	2785
811.441	2906
811.582	2922
811.724	2830
811.865	2804
812.007	2925
812.148	2918
812.29	2842
812.431	2887
812.573	2952
812.714	2998
812.855	3043
812.997	3028
813.138	3131
813.279	3009
813.421	2952
813.562	2952
813.703	2868
813.845	2899
813.986	2754
814.127	2735
814.268	2834
814.41	2853
814.551	2826
814.692	2861
814.833	2815
814.974	2902
815.115	2967
815.256	2811
815.397	2819
815.539	2826
815.68	2766
815.821	2800
815.962	2914
816.103	2891
816.244	2880
816.385	2826
816.526	2956
816.666	2933
816.807	2716
816.948	2887
817.089	2929
817.23	2861
817.371	2800
817.512	2800
817.653	2868
817.793	2823
817.934	2895
818.075	2952
818.216	2952
818.356	3020
818.497	2883
818.638	2807
818.778	2769
818.919	2781
819.06	2746
819.2	2861
819.341	2807
819.481	2788
819.622	2906
819.762	3104
819.903	3066
820.043	2922
820.184	2880
820.324	2864
820.465	3001
820.605	2994
820.746	3020
820.886	2944
821.026	3119
821.167	3180
821.307	3256
821.447	3272
821.588	3279
821.728	3214
821.868	3192
822.008	3097
822.149	3192
822.289	3233
822.429	3100
822.569	3043
822.709	3188
822.849	3051
822.99	3062
823.13	3150
823.27	3211
823.41	3112
823.55	3173
823.69	3165
823.83	3222
823.97	3077
824.11	3024
824.25	3013
824.389	3097
824.529	3165
824.669	3089
824.809	3241
824.949	3241
825.089	3226
825.228	3188
825.368	3017
825.508	2990
825.648	3017
825.787	3066
825.927	3051
826.067	3001
826.206	2982
826.346	3093
826.485	3085
826.625	3119
826.765	3294
826.904	3214
827.044	3058
827.183	2971
827.323	2929
827.462	3028
827.601	2952
827.741	2963
827.88	3005
828.02	2872
828.159	3043
828.298	3097
828.437	3161
828.577	3077
828.716	3268
828.855	3123
828.994	2982
829.134	2937
829.273	2960
829.412	2922
829.551	2922
829.69	2933
829.829	3043
829.968	3176
830.107	3081
830.246	3058
830.385	2971
830.524	2929
830.663	2853
830.802	2769
830.941	2693
831.08	2693
831.219	2834
831.357	2792
831.496	3013
831.635	2746
831.774	2693
831.913	2712
832.051	2583
832.19	2606
832.329	2701
832.467	2621
832.606	2511
832.744	2617
832.883	2602
833.022	2644
833.16	2682
833.299	2716
833.437	2735
833.576	2720
833.714	2758
833.852	2727
833.991	2792
834.129	2883
834.267	2864
834.406	2857
834.544	2876
834.682	2914
834.821	2880
834.959	3058
835.097	2948
835.235	3100
835.373	3024
835.511	3055
835.65	2975
835.788	3001
835.926	2883
836.064	2792
836.202	2864
836.34	3131
836.478	3169
836.615	3089
836.753	3123
836.891	3256
837.029	3203
837.167	3135
837.305	3066
837.443	3077
837.58	2982
837.718	3150
837.856	3100
837.993	3055
838.131	3142
838.269	3116
838.406	3077
838.544	3131
838.681	2967
838.819	2941
838.956	2838
839.094	2861
839.231	2948
839.369	3077
839.506	3405
839.643	3230
839.781	3051
839.918	2963
840.055	3028
840.193	3058
840.33	3074
840.467	3104
840.604	3184
840.742	3431
840.879	3070
841.016	3062
841.153	3161
841.29	3329
841.427	3306
841.564	3325
841.701	3321
841.838	3214
841.975	3165
842.112	3264
842.249	3119
842.385	3074
842.522	3287
842.659	3127
842.796	3081
842.933	3116
843.069	3077
843.206	3066
843.343	3207
843.479	3138
843.616	3195
843.752	2937
843.889	2922
844.025	3123
844.162	2899
844.298	3070
844.435	2944
844.571	2952
844.708	3104
844.844	3245
844.98	3283
845.117	3226
845.253	3062
845.389	3055
845.525	3142
845.661	3157
845.798	3036
845.934	3135
846.07	3074
846.206	3256
846.342	3351
846.478	3283
846.614	3138
846.75	3100
846.886	3047
847.022	3241
847.158	3222
847.294	3207
847.429	3302
847.565	3230
847.701	3492
847.837	3085
847.972	3066
848.108	3218
848.244	3184
848.379	2948
848.515	2975
848.65	2960
848.786	3009
848.921	3055
849.057	3157
849.192	3199
849.328	3074
849.463	3161
849.598	3070
849.734	3062
849.869	3043
850.004	2933
850.14	3013
850.275	2922
850.41	2861
850.545	2933
850.68	2952
850.815	2990
850.95	2975
851.085	3230
851.22	3123
851.355	3100
851.49	3017
851.625	3043
851.76	3051
851.895	2952
852.03	2956
852.165	3081
852.299	3119
852.434	3256
852.569	3142
852.703	3211
852.838	3329
852.973	3344
853.107	3359
853.242	3173
853.376	3135
853.511	2982
853.645	3074
853.78	3306
853.914	3157
854.048	3150
854.183	3104
854.317	3199
854.451	3321
854.585	3173
854.72	3097
854.854	3226
854.988	3055
855.122	3093
855.256	3009
855.39	3146
855.524	3268
855.658	3192
855.792	3222
855.926	3218
856.06	3237
856.194	3294
856.327	3176
856.461	3089
856.595	3108
856.729	3116
856.862	3260
856.996	3188
857.13	3226
857.263	3272
857.397	3302
857.53	3135
857.664	3241
857.797	3230
857.931	3279
858.064	3192
858.197	3230
858.331	3142
858.464	3100
858.597	3024
858.731	3138
858.864	3157
858.997	3089
859.13	3142
859.263	3226
859.396	3230
859.529	3119
859.662	3093
859.795	3039
859.928	3142
860.061	3332
860.194	3329
860.327	3165
860.46	3123
860.592	3237
860.725	3272
860.858	3233
860.99	3135
861.123	3085
861.256	3089
861.388	3214
861.521	3869
861.653	3032
861.786	3024
861.918	2952
862.05	3081
862.183	3127
862.315	3154
862.447	3218
862.58	3131
862.712	2967
862.844	2864
862.976	3024
863.108	3051
863.24	3336
863.372	2887
863.504	2975
863.636	2982
863.768	3074
863.9	3005
864.032	2895
864.164	2952
864.296	3039
864.428	3138
864.559	3112
864.691	3100
864.823	3108
864.954	3036
865.086	3081
865.217	3020
865.349	2925
865.48	3005
865.612	3028
865.743	3176
865.875	3009
866.006	2975
866.137	3001
866.269	2944
866.4	2971
866.531	2979
866.662	2883
866.793	2933
866.924	2922
867.055	2986
867.186	2944
867.317	2910
867.448	2876
867.579	2868
867.71	2861
867.841	2845
867.972	2922
868.103	2910
868.233	2887
868.364	2906
868.495	2902
868.625	3097
868.756	3154
868.886	2986
869.017	3028
869.147	3214
869.278	3188
869.408	3058
869.539	3028
869.669	3123
869.799	3047
869.929	3165
870.06	3116
870.19	3317
870.32	3298
870.45	3321
870.58	3443
870.71	3454
870.84	3420
870.97	3294
871.1	3260
871.23	3507
871.36	3462
871.489	3389
871.619	3447
871.749	3401
871.879	3424
872.008	3473
872.138	3370
872.267	3260
872.397	3127
872.526	3089
872.656	3005
872.785	3154
872.915	3264
873.044	3332
873.173	3226
873.303	3253
873.432	3237
873.561	3294
873.69	3154
873.819	3154
873.948	3218
874.077	3131
874.206	3055
874.335	3112
874.464	3233
874.593	3351
874.722	3268
874.851	3382
874.979	3325
875.108	3317
875.237	3218
875.365	3165
875.494	3154
875.623	3214
875.751	3104
875.88	3146
876.008	3222
876.136	3256
876.265	3374
876.393	3507
876.521	3450
876.65	3374
876.778	3355
876.906	3294
877.034	3184
877.162	3245
877.29	3192
877.418	3256
877.546	3253
877.674	3291
877.802	3233
877.93	3233
878.058	3161
878.185	3100
878.313	3222
878.441	3264
878.568	3058
878.696	3127
878.824	3241
878.951	3348
879.079	3481
879.206	3644
879.333	3485
879.461	3344
879.588	3378
879.715	3504
879.842	3606
879.97	3401
880.097	3173
880.224	3203
880.351	3230
880.478	3222
880.605	3203
880.732	3233
880.859	3519
880.986	3306
881.112	3355
881.239	3241
881.366	3066
881.493	3047
881.619	3020
881.746	3074
881.872	3142
881.999	3104
882.125	3138
882.252	3256
882.378	3272
882.505	3416
882.631	3291
882.757	3123
882.883	3256
883.01	3207
883.136	3199
883.262	3085
883.388	3108
883.514	3321
883.64	3382
883.766	3279
883.892	3173
884.018	3199
884.143	3435
884.269	3564
884.395	3211
884.52	3249
884.646	3218
884.772	3176
884.897	3108
885.023	3218
885.148	3332
885.274	3466
885.399	3393
885.524	3268
885.65	3264
885.775	3329
885.9	3275
886.025	3466
886.15	3378
886.275	3275
886.4	3218
886.525	3294
886.65	3283
886.775	3272
886.9	3519
887.025	3614
887.149	3450
887.274	3256
887.399	3195
887.523	3233
887.648	3211
887.773	3211
887.897	3416
888.021	3420
888.146	3287
888.27	3454
888.395	3538
888.519	3412
888.643	3492
888.767	3443
888.891	3355
889.015	3249
889.139	3302
889.263	3241
889.387	3397
889.511	3523
889.635	3488
889.759	3287
889.883	3283
890.006	3363
890.13	3485
890.254	3245
890.377	3348
890.501	3211
890.624	3192
890.748	3340
890.871	3142
890.995	3123
891.118	3055
891.241	3176
891.364	3214
891.488	3302
891.611	3199
891.734	3218
891.857	3279
891.98	3226
892.103	3332
892.226	3294
892.349	3256
892.471	3146
892.594	3207
892.717	3264
892.839	3283
892.962	3294
893.085	3386
893.207	3310
893.33	3154
893.452	3230
893.575	3355
893.697	3260
893.819	3450
893.941	3511
894.064	3477
894.186	3260
894.308	3272
894.43	3435
894.552	3504
894.674	3462
894.796	3253
894.918	3344
895.04	3268
895.161	3435
895.283	3382
895.405	3306
895.526	3363
895.648	3469
895.769	3405
895.891	3450
896.012	3481
896.134	3500
896.255	3447
896.376	3386
896.498	3351
896.619	3416
896.74	3374
896.861	3389
896.982	3671
897.103	3880
897.224	3580
897.345	3534
897.466	3447
897.587	3496
897.708	3622
897.828	3561
897.949	3458
898.07	3359
898.19	3424
898.311	3603
898.431	3416
898.552	3515
898.672	3629
898.792	3587
898.913	3515
899.033	3359
899.153	3302
899.273	3256
899.393	3317
899.513	3287
899.633	3313
899.753	3382
899.873	3351
899.993	3374
900.113	3340
900.232	3386
900.352	3321
900.472	3283
900.591	3222
900.711	3291
900.83	3245
900.95	3416
901.069	3466
901.189	3329
901.308	3157
901.427	3138
901.546	3195
901.665	3287
901.784	3340
901.904	3192
902.023	3173
902.141	3020
902.26	2979
902.379	3165
902.498	3077
902.617	3074
902.735	3195
902.854	3264
902.973	3222
903.091	3036
903.21	3024
903.328	3138
903.446	3138
903.565	3127
903.683	3192
903.801	3150
903.919	3272
904.038	3306
904.156	3135
904.274	3279
904.392	3237
904.51	3291
904.627	3291
904.745	3462
904.863	3515
904.981	3233
905.098	3150
905.216	3268
905.334	3294
905.451	3329
905.569	3325
905.686	3428
905.803	3443
905.921	3313
906.038	3431
906.155	3355
906.272	3287
906.389	3317
906.506	3233
906.623	3256
906.74	3287
906.857	3203
906.974	3268
907.091	3447
907.208	3572
907.324	3466
907.441	3389
907.557	3218
907.674	3241
907.79	3195
907.907	3275
908.023	3378
908.139	3344
908.256	3321
908.372	3363
908.488	3389
908.604	3287
908.72	3237
908.836	3272
908.952	3272
909.068	3340
909.184	3485
909.3	3405
909.415	3515
909.531	3466
909.647	3283
909.762	3287
909.878	3298
909.993	3340
910.108	3321
910.224	3310
910.339	3389
910.454	3348
910.57	3275
910.685	3253
910.8	3576
910.915	3561
911.03	3454
911.145	3256
911.259	3310
911.374	3336
911.489	3253
911.604	3226
911.718	3116
911.833	3214
911.947	3024
912.062	2963
912.176	3180
912.291	3214
912.405	3195
912.519	3450
912.633	3447
912.748	3348
912.862	3306
912.976	3176
913.09	3058
913.204	3123
913.318	3222
913.431	3306
913.545	3325
913.659	3416
913.772	3344
913.886	3264
914	3222
914.113	3359
914.226	3374
914.34	3332
914.453	3207
914.566	3405
914.68	3294
914.793	3325
914.906	3169
915.019	3138
915.132	3081
915.245	3180
915.358	3173
915.47	3184
915.583	3237
915.696	3287
915.809	3378
915.921	3424
916.034	3218
916.146	3214
916.259	3214
916.371	3363
916.483	3355
916.595	3264
916.708	3344
916.82	3332
916.932	3344
917.044	3340
917.156	3351
917.268	3256
917.38	3329
917.491	3275
917.603	3370
917.715	3458
917.826	3488
917.938	3363
918.049	3310
918.161	3454
918.272	3545
918.384	3557
918.495	3488
918.606	3317
918.717	3275
918.828	3386
918.939	3405
919.05	3317
919.161	3348
919.272	3146
919.383	3272
919.494	3485
919.604	3724
919.715	3515
919.826	3401
919.936	3473
920.047	3587
920.157	3542
920.267	3770
920.378	3652
920.488	3580
920.598	3755
920.708	3926
920.818	3831
920.928	3831
921.038	3994
921.148	4013
921.258	3648
921.368	3629
921.477	3568
921.587	3507
921.697	3473
921.806	3614
921.916	3496
922.025	3340
922.134	3359
922.244	3302
922.353	3378
922.462	3245
922.571	3222
922.68	3112
922.789	3043
922.898	3093
923.007	3062
923.116	3165
923.224	3176
923.333	3138
923.442	3051
923.55	3074
923.659	3157
923.767	3211
923.876	3135
923.984	3264
924.092	3150
924.201	3176
924.309	3237
924.417	3260
924.525	3203
924.633	3253
924.741	4192
924.849	3043
924.956	3237
925.064	3097
925.172	3051
925.279	3081
925.387	3214
925.494	3195
925.602	3325
925.709	3340
925.816	3207
925.924	3256
926.031	3374
926.138	3306
926.245	3351
926.352	3275
926.459	3420
926.566	3462
926.673	3317
926.779	3230
926.886	3268
926.993	3169
927.099	3127
927.206	3066
927.312	3066
927.419	3211
927.525	3169
927.631	3279
927.737	3146
927.843	3135
927.95	3020
928.056	3154
928.162	3176
928.267	3249
928.373	3880
928.479	3279
928.585	3043
928.69	3207
928.796	3306
928.901	3222
929.007	3039
929.112	3230
929.218	3165
929.323	3142
929.428	3176
929.533	3313
929.638	3081
929.743	3146
929.848	3249
929.953	3203
930.058	3150
930.163	3005
930.267	3062
930.372	3188
930.477	3028
930.581	3302
930.685	3150
930.79	3043
930.894	3142
930.998	3116
931.103	3279
931.207	2937
931.311	2956
931.415	2933
931.519	2743
931.623	2826
