Data from test_V78500241_198.txt Node
Date: Fri Mar 25 16:16:34 CST 2022
User: usil
Spectrometer: V785-0024
Trigger mode: 0
Integration Time (sec): 4.000000E-1
Scans to average: 1
Nonlinearity correction enabled: false
Boxcar width: 0
Storing dark spectrum: false
XAxis mode: Wavelengths
Number of Pixels in Spectrum: 1024
>>>>>Begin Spectral Data<<<<<
801.071	2956
801.214	2967
801.356	2864
801.499	2910
801.641	2861
801.783	2922
801.926	3043
802.068	3013
802.211	2986
802.353	3058
802.496	3005
802.638	3058
802.78	3062
802.923	3070
803.065	3051
803.208	2906
803.35	2933
803.492	2944
803.635	2914
803.777	2754
803.919	2872
804.061	3188
804.204	2971
804.346	2910
804.488	2834
804.63	3001
804.773	2880
804.915	2910
805.057	3100
805.199	2933
805.341	2975
805.483	3055
805.626	3036
805.768	2941
805.91	3135
806.052	3104
806.194	3058
806.336	3249
806.478	3047
806.62	2944
806.762	2967
806.904	3070
807.046	3169
807.188	2994
807.33	2933
807.472	2963
807.614	2910
807.756	2986
807.898	2937
808.04	2906
808.182	2971
808.324	2986
808.465	2891
808.607	2929
808.749	2815
808.891	2834
809.033	3001
809.174	2929
809.316	2895
809.458	2883
809.6	2800
809.741	2811
809.883	2815
810.025	2883
810.166	2872
810.308	2868
810.45	2883
810.591	2788
810.733	2811
810.875	2819
811.016	2785
811.158	2773
811.299	2785
811.441	2960
811.582	2872
811.724	2826
811.865	2849
812.007	2906
812.148	2937
812.29	2891
812.431	2925
812.573	2941
812.714	2960
812.855	3066
812.997	3097
813.138	3093
813.279	2994
813.421	2994
813.562	2963
813.703	2914
813.845	2872
813.986	2766
814.127	2773
814.268	2826
814.41	2845
814.551	2845
814.692	2906
814.833	2796
814.974	2845
815.115	2952
815.256	2845
815.397	2849
815.539	2895
815.68	2823
815.821	2830
815.962	2956
816.103	2914
816.244	2895
816.385	2861
816.526	2990
816.666	2914
816.807	2754
816.948	2910
817.089	2929
817.23	2857
817.371	2785
817.512	2781
817.653	2857
817.793	2830
817.934	2864
818.075	2967
818.216	3017
818.356	3039
818.497	2891
818.638	2811
818.778	2815
818.919	2811
819.06	2804
819.2	2906
819.341	2800
819.481	2804
819.622	2922
819.762	3100
819.903	3062
820.043	2922
820.184	2922
820.324	2929
820.465	3055
820.605	3039
820.746	3020
820.886	2975
821.026	3119
821.167	3157
821.307	3264
821.447	3298
821.588	3272
821.728	3195
821.868	3184
822.008	3066
822.149	3142
822.289	3222
822.429	3123
822.569	3085
822.709	3165
822.849	3047
822.99	3104
823.13	3180
823.27	3180
823.41	3135
823.55	3165
823.69	3135
823.83	3184
823.97	3093
824.11	2956
824.25	3001
824.389	3077
824.529	3112
824.669	3058
824.809	3214
824.949	3283
825.089	3184
825.228	3165
825.368	2994
825.508	2975
825.648	3005
825.787	3024
825.927	3039
826.067	2994
826.206	2952
826.346	3039
826.485	3085
826.625	3097
826.765	3306
826.904	3218
827.044	3055
827.183	2960
827.323	2883
827.462	2971
827.601	2944
827.741	2925
827.88	2944
828.02	2895
828.159	2979
828.298	3062
828.437	3108
828.577	3024
828.716	3268
828.855	3135
828.994	2941
829.134	2883
829.273	2933
829.412	2883
829.551	2849
829.69	2906
829.829	2967
829.968	3123
830.107	3017
830.246	3066
830.385	2948
830.524	2906
830.663	2811
830.802	2731
830.941	2663
831.08	2682
831.219	2773
831.357	2754
831.496	2929
831.635	2750
831.774	2670
831.913	2674
832.051	2552
832.19	2568
832.329	2697
832.467	2564
832.606	2530
832.744	2613
832.883	2571
833.022	2575
833.16	2659
833.299	2693
833.437	2708
833.576	2701
833.714	2708
833.852	2735
833.991	2781
834.129	2864
834.267	2804
834.406	2800
834.544	2861
834.682	2906
834.821	2864
834.959	3055
835.097	2910
835.235	3066
835.373	3013
835.511	3036
835.65	2944
835.788	2986
835.926	2861
836.064	2830
836.202	2857
836.34	3097
836.478	3146
836.615	3039
836.753	3154
836.891	3249
837.029	3188
837.167	3077
837.305	3062
837.443	3055
837.58	2967
837.718	3104
837.856	3085
837.993	3047
838.131	3081
838.269	3119
838.406	3112
838.544	3081
838.681	2994
838.819	2918
838.956	2823
839.094	2826
839.231	2922
839.369	3039
839.506	3386
839.643	3192
839.781	3051
839.918	2975
840.055	3032
840.193	3066
840.33	3070
840.467	3112
840.604	3161
840.742	3386
840.879	3051
841.016	3047
841.153	3146
841.29	3329
841.427	3291
841.564	3260
841.701	3325
841.838	3268
841.975	3184
842.112	3233
842.249	3112
842.385	3058
842.522	3268
842.659	3127
842.796	3093
842.933	3116
843.069	3070
843.206	3017
843.343	3161
843.479	3123
843.616	3108
843.752	2906
843.889	2864
844.025	3123
844.162	2895
844.298	3089
844.435	2941
844.571	2937
844.708	3085
844.844	3180
844.98	3241
845.117	3245
845.253	3074
845.389	3047
845.525	3127
845.661	3055
845.798	2994
845.934	3142
846.07	3062
846.206	3211
846.342	3317
846.478	3245
846.614	3089
846.75	3074
846.886	3047
847.022	3279
847.158	3173
847.294	3176
847.429	3245
847.565	3203
847.701	3500
847.837	3066
847.972	3043
848.108	3180
848.244	3184
848.379	2990
848.515	2960
848.65	2918
848.786	2948
848.921	3043
849.057	3058
849.192	3154
849.328	3062
849.463	3123
849.598	3074
849.734	3017
849.869	2986
850.004	2963
850.14	2994
850.275	2891
850.41	2830
850.545	2883
850.68	2956
850.815	2941
850.95	2982
851.085	3188
851.22	3119
851.355	3013
851.49	3001
851.625	3020
851.76	2990
851.895	2948
852.03	2895
852.165	3036
852.299	3070
852.434	3165
852.569	3135
852.703	3203
852.838	3237
852.973	3348
853.107	3348
853.242	3161
853.376	3131
853.511	2971
853.645	3062
853.78	3222
853.914	3119
854.048	3154
854.183	3093
854.317	3127
854.451	3302
854.585	3135
854.72	3112
854.854	3222
854.988	3062
855.122	3119
855.256	3001
855.39	3119
855.524	3272
855.658	3176
855.792	3138
855.926	3214
856.06	3230
856.194	3249
856.327	3184
856.461	3104
856.595	3112
856.729	3093
856.862	3279
856.996	3157
857.13	3233
857.263	3264
857.397	3287
857.53	3169
857.664	3165
857.797	3207
857.931	3279
858.064	3173
858.197	3237
858.331	3131
858.464	3123
858.597	2998
858.731	3119
858.864	3142
858.997	3093
859.13	3150
859.263	3195
859.396	3180
859.529	3104
859.662	3100
859.795	3066
859.928	3157
860.061	3245
860.194	3302
860.327	3119
860.46	3138
860.592	3268
860.725	3272
860.858	3275
860.99	3127
861.123	3032
861.256	3062
861.388	3192
861.521	3911
861.653	3070
861.786	2990
861.918	3047
862.05	3066
862.183	3093
862.315	3184
862.447	3195
862.58	3062
862.712	2967
862.844	2861
862.976	3051
863.108	2975
863.24	3313
863.372	2880
863.504	2956
863.636	2956
863.768	3062
863.9	2956
864.032	2937
864.164	2948
864.296	3028
864.428	3058
864.559	3116
864.691	3100
864.823	3036
864.954	3039
865.086	3066
865.217	3047
865.349	2971
865.48	2994
865.612	3051
865.743	3195
865.875	3024
866.006	2960
866.137	2941
866.269	2929
866.4	2925
866.531	2910
866.662	2941
866.793	2910
866.924	2906
867.055	3013
867.186	2906
867.317	2891
867.448	2868
867.579	2857
867.71	2864
867.841	2823
867.972	2914
868.103	2895
868.233	2872
868.364	2906
868.495	2925
868.625	3093
868.756	3176
868.886	3001
869.017	3062
869.147	3116
869.278	3146
869.408	3089
869.539	3009
869.669	3112
869.799	3058
869.929	3123
870.06	3100
870.19	3325
870.32	3306
870.45	3279
870.58	3378
870.71	3435
870.84	3447
870.97	3291
871.1	3230
871.23	3462
871.36	3454
871.489	3363
871.619	3416
871.749	3431
871.879	3454
872.008	3488
872.138	3344
872.267	3279
872.397	3146
872.526	3085
872.656	3043
872.785	3116
872.915	3260
873.044	3310
873.173	3214
873.303	3245
873.432	3260
873.561	3249
873.69	3146
873.819	3142
873.948	3203
874.077	3093
874.206	3055
874.335	3112
874.464	3230
874.593	3344
874.722	3192
874.851	3397
874.979	3367
875.108	3313
875.237	3218
875.365	3154
875.494	3211
875.623	3222
875.751	3116
875.88	3112
876.008	3199
876.136	3233
876.265	3340
876.393	3485
876.521	3378
876.65	3397
876.778	3401
876.906	3256
877.034	3188
877.162	3253
877.29	3161
877.418	3268
877.546	3253
877.674	3272
877.802	3237
877.93	3256
878.058	3157
878.185	3104
878.313	3230
878.441	3199
878.568	3104
878.696	3154
878.824	3272
878.951	3302
879.079	3458
879.206	3622
879.333	3477
879.461	3344
879.588	3405
879.715	3485
879.842	3572
879.97	3386
880.097	3176
880.224	3150
880.351	3226
880.478	3211
880.605	3214
880.732	3203
880.859	3515
880.986	3329
881.112	3321
881.239	3226
881.366	3108
881.493	3047
881.619	3036
881.746	3104
881.872	3108
881.999	3100
882.125	3157
882.252	3260
882.378	3298
882.505	3462
882.631	3245
882.757	3169
882.883	3245
883.01	3218
883.136	3195
883.262	3112
883.388	3123
883.514	3332
883.64	3374
883.766	3340
883.892	3176
884.018	3279
884.143	3416
884.269	3545
884.395	3207
884.52	3199
884.646	3180
884.772	3146
884.897	3116
885.023	3203
885.148	3329
885.274	3458
885.399	3374
885.524	3310
885.65	3279
885.775	3336
885.9	3287
886.025	3462
886.15	3355
886.275	3291
886.4	3249
886.525	3336
886.65	3253
886.775	3272
886.9	3511
887.025	3675
887.149	3420
887.274	3272
887.399	3184
887.523	3226
887.648	3169
887.773	3214
887.897	3355
888.021	3401
888.146	3283
888.27	3443
888.395	3591
888.519	3409
888.643	3473
888.767	3481
888.891	3348
889.015	3260
889.139	3272
889.263	3249
889.387	3431
889.511	3515
889.635	3477
889.759	3291
889.883	3298
890.006	3393
890.13	3488
890.254	3275
890.377	3351
890.501	3237
890.624	3165
890.748	3321
890.871	3195
890.995	3108
891.118	3062
891.241	3226
891.364	3230
891.488	3332
891.611	3176
891.734	3272
891.857	3298
891.98	3253
892.103	3325
892.226	3329
892.349	3188
892.471	3131
892.594	3241
892.717	3306
892.839	3264
892.962	3291
893.085	3340
893.207	3275
893.33	3131
893.452	3226
893.575	3363
893.697	3272
893.819	3485
893.941	3534
894.064	3428
894.186	3222
894.308	3302
894.43	3488
894.552	3542
894.674	3473
894.796	3283
894.918	3302
895.04	3332
895.161	3439
895.283	3409
895.405	3348
895.526	3374
895.648	3370
895.769	3397
895.891	3519
896.012	3447
896.134	3485
896.255	3469
896.376	3405
896.498	3351
896.619	3443
896.74	3401
896.861	3416
896.982	3660
897.103	3854
897.224	3641
897.345	3515
897.466	3473
897.587	3500
897.708	3648
897.828	3584
897.949	3462
898.07	3336
898.19	3409
898.311	3587
898.431	3473
898.552	3477
898.672	3625
898.792	3603
898.913	3599
899.033	3405
899.153	3321
899.273	3233
899.393	3310
899.513	3329
899.633	3291
899.753	3321
899.873	3332
899.993	3443
900.113	3310
900.232	3409
900.352	3370
900.472	3275
900.591	3218
900.711	3332
900.83	3260
900.95	3416
901.069	3526
901.189	3363
901.308	3176
901.427	3142
901.546	3207
901.665	3317
901.784	3359
901.904	3211
902.023	3184
902.141	3039
902.26	3024
902.379	3138
902.498	3093
902.617	3070
902.735	3237
902.854	3256
902.973	3222
903.091	3104
903.21	3119
903.328	3138
903.446	3150
903.565	3127
903.683	3222
903.801	3131
903.919	3287
904.038	3294
904.156	3169
904.274	3287
904.392	3298
904.51	3294
904.627	3355
904.745	3473
904.863	3511
904.981	3245
905.098	3180
905.216	3230
905.334	3325
905.451	3298
905.569	3325
905.686	3428
905.803	3450
905.921	3279
906.038	3439
906.155	3389
906.272	3272
906.389	3355
906.506	3230
906.623	3272
906.74	3268
906.857	3203
906.974	3237
907.091	3477
907.208	3584
907.324	3507
907.441	3405
907.557	3207
907.674	3226
907.79	3218
907.907	3260
908.023	3420
908.139	3428
908.256	3310
908.372	3435
908.488	3382
908.604	3260
908.72	3207
908.836	3310
908.952	3310
909.068	3325
909.184	3515
909.3	3409
909.415	3477
909.531	3488
909.647	3294
909.762	3332
909.878	3256
909.993	3393
910.108	3378
910.224	3374
910.339	3443
910.454	3340
910.57	3256
910.685	3249
910.8	3614
910.915	3507
911.03	3439
911.145	3264
911.259	3279
911.374	3313
911.489	3237
911.604	3173
911.718	3135
911.833	3131
911.947	3005
912.062	3017
912.176	3173
912.291	3169
912.405	3237
912.519	3454
912.633	3477
912.748	3325
912.862	3298
912.976	3180
913.09	3089
913.204	3176
913.318	3241
913.431	3340
913.545	3302
913.659	3424
913.772	3348
913.886	3237
914	3249
914.113	3389
914.226	3431
914.34	3340
914.453	3237
914.566	3431
914.68	3306
914.793	3329
914.906	3169
915.019	3112
915.132	3058
915.245	3173
915.358	3184
915.47	3275
915.583	3275
915.696	3329
915.809	3439
915.921	3454
916.034	3283
916.146	3279
916.259	3249
916.371	3405
916.483	3370
916.595	3272
916.708	3367
916.82	3374
916.932	3367
917.044	3370
917.156	3313
917.268	3264
917.38	3306
917.491	3298
917.603	3370
917.715	3450
917.826	3477
917.938	3393
918.049	3336
918.161	3439
918.272	3580
918.384	3561
918.495	3477
918.606	3370
918.717	3317
918.828	3378
918.939	3431
919.05	3272
919.161	3409
919.272	3203
919.383	3321
919.494	3500
919.604	3690
919.715	3496
919.826	3378
919.936	3488
920.047	3576
920.157	3553
920.267	3762
920.378	3618
920.488	3557
920.598	3804
920.708	3960
920.818	3831
920.928	3812
921.038	4025
921.148	4002
921.258	3679
921.368	3637
921.477	3587
921.587	3572
921.697	3469
921.806	3625
921.916	3534
922.025	3332
922.134	3344
922.244	3359
922.353	3412
922.462	3268
922.571	3233
922.68	3161
922.789	3108
922.898	3154
923.007	3108
923.116	3291
923.224	3173
923.333	3253
923.442	3116
923.55	3119
923.659	3150
923.767	3214
923.876	3131
923.984	3245
924.092	3135
924.201	3199
924.309	3272
924.417	3275
924.525	3214
924.633	3249
924.741	4185
924.849	3074
924.956	3264
925.064	3077
925.172	3058
925.279	3081
925.387	3207
925.494	3214
925.602	3351
925.709	3317
925.816	3192
925.924	3294
926.031	3367
926.138	3359
926.245	3397
926.352	3237
926.459	3447
926.566	3500
926.673	3325
926.779	3260
926.886	3203
926.993	3131
927.099	3097
927.206	3131
927.312	3112
927.419	3226
927.525	3195
927.631	3287
927.737	3123
927.843	3138
927.95	3017
928.056	3161
928.162	3161
928.267	3256
928.373	3903
928.479	3291
928.585	3066
928.69	3237
928.796	3287
928.901	3146
929.007	3074
929.112	3233
929.218	3165
929.323	3150
929.428	3176
929.533	3351
929.638	3138
929.743	3188
929.848	3260
929.953	3241
930.058	3146
930.163	2990
930.267	3066
930.372	3211
930.477	3020
930.581	3344
930.685	3173
930.79	3081
930.894	3131
930.998	3108
931.103	3298
931.207	2952
931.311	2941
931.415	2960
931.519	2785
931.623	2823
