Data from test_V78500241_586.txt Node
Date: Fri Mar 25 16:19:15 CST 2022
User: usil
Spectrometer: V785-0024
Trigger mode: 0
Integration Time (sec): 4.000000E-1
Scans to average: 1
Nonlinearity correction enabled: false
Boxcar width: 0
Storing dark spectrum: false
XAxis mode: Wavelengths
Number of Pixels in Spectrum: 1024
>>>>>Begin Spectral Data<<<<<
801.071	2941
801.214	2967
801.356	2902
801.499	2918
801.641	2914
801.783	2948
801.926	3062
802.068	3028
802.211	2975
802.353	3039
802.496	2998
802.638	3009
802.78	3077
802.923	3047
803.065	3013
803.208	2937
803.35	2899
803.492	2933
803.635	2948
803.777	2773
803.919	2861
804.061	3214
804.204	2960
804.346	2914
804.488	2868
804.63	2967
804.773	2857
804.915	2902
805.057	3066
805.199	2956
805.341	2975
805.483	3036
805.626	3020
805.768	2979
805.91	3097
806.052	3123
806.194	3020
806.336	3203
806.478	2982
806.62	2967
806.762	3009
806.904	2998
807.046	3135
807.188	3001
807.33	2906
807.472	2979
807.614	2902
807.756	2994
807.898	2922
808.04	2895
808.182	2986
808.324	2933
808.465	2876
808.607	2853
808.749	2785
808.891	2849
809.033	2937
809.174	2960
809.316	2864
809.458	2891
809.6	2792
809.741	2766
809.883	2746
810.025	2838
810.166	2849
810.308	2830
810.45	2842
810.591	2769
810.733	2746
810.875	2823
811.016	2766
811.158	2800
811.299	2819
811.441	2906
811.582	2883
811.724	2819
811.865	2838
812.007	2910
812.148	2845
812.29	2849
812.431	2883
812.573	2918
812.714	2922
812.855	3051
812.997	3024
813.138	3119
813.279	2998
813.421	3039
813.562	2956
813.703	2834
813.845	2876
813.986	2766
814.127	2727
814.268	2800
814.41	2815
814.551	2796
814.692	2864
814.833	2773
814.974	2864
815.115	2929
815.256	2792
815.397	2819
815.539	2834
815.68	2758
815.821	2777
815.962	2918
816.103	2918
816.244	2838
816.385	2861
816.526	2979
816.666	2922
816.807	2712
816.948	2887
817.089	2857
817.23	2872
817.371	2773
817.512	2785
817.653	2815
817.793	2838
817.934	2868
818.075	2975
818.216	2975
818.356	3009
818.497	2868
818.638	2800
818.778	2842
818.919	2758
819.06	2766
819.2	2872
819.341	2781
819.481	2815
819.622	2937
819.762	3097
819.903	3055
820.043	2948
820.184	2887
820.324	2910
820.465	3051
820.605	3013
820.746	3013
820.886	2956
821.026	3119
821.167	3184
821.307	3272
821.447	3298
821.588	3264
821.728	3222
821.868	3203
822.008	3093
822.149	3207
822.289	3260
822.429	3093
822.569	3085
822.709	3218
822.849	2994
822.99	3093
823.13	3176
823.27	3226
823.41	3154
823.55	3233
823.69	3218
823.83	3222
823.97	3116
824.11	2998
824.25	3020
824.389	3146
824.529	3131
824.669	3058
824.809	3249
824.949	3279
825.089	3222
825.228	3211
825.368	3074
825.508	2998
825.648	3001
825.787	3017
825.927	3066
826.067	2990
826.206	3009
826.346	3070
826.485	3062
826.625	3154
826.765	3306
826.904	3272
827.044	3043
827.183	2967
827.323	2933
827.462	3009
827.601	2941
827.741	2944
827.88	3001
828.02	2891
828.159	3020
828.298	3081
828.437	3142
828.577	3081
828.716	3272
828.855	3104
828.994	2975
829.134	2914
829.273	2975
829.412	2933
829.551	2906
829.69	2956
829.829	3028
829.968	3119
830.107	3032
830.246	3070
830.385	2952
830.524	2918
830.663	2868
830.802	2800
830.941	2670
831.08	2663
831.219	2796
831.357	2811
831.496	2982
831.635	2800
831.774	2689
831.913	2686
832.051	2571
832.19	2636
832.329	2724
832.467	2583
832.606	2495
832.744	2621
832.883	2625
833.022	2632
833.16	2693
833.299	2754
833.437	2735
833.576	2705
833.714	2788
833.852	2788
833.991	2792
834.129	2906
834.267	2864
834.406	2819
834.544	2914
834.682	2887
834.821	2899
834.959	3089
835.097	2922
835.235	3058
835.373	3028
835.511	3047
835.65	2994
835.788	3017
835.926	2842
836.064	2872
836.202	2864
836.34	3100
836.478	3184
836.615	3131
836.753	3192
836.891	3222
837.029	3199
837.167	3173
837.305	3119
837.443	3085
837.58	3058
837.718	3169
837.856	3112
837.993	3028
838.131	3138
838.269	3142
838.406	3180
838.544	3146
838.681	2960
838.819	2967
838.956	2857
839.094	2872
839.231	2960
839.369	3036
839.506	3412
839.643	3245
839.781	3032
839.918	2990
840.055	3104
840.193	3036
840.33	3104
840.467	3146
840.604	3165
840.742	3439
840.879	3104
841.016	3089
841.153	3119
841.29	3351
841.427	3325
841.564	3310
841.701	3344
841.838	3279
841.975	3165
842.112	3222
842.249	3116
842.385	3093
842.522	3283
842.659	3085
842.796	3100
842.933	3100
843.069	3070
843.206	3013
843.343	3214
843.479	3116
843.616	3169
843.752	2910
843.889	2914
844.025	3142
844.162	2899
844.298	3108
844.435	2986
844.571	2937
844.708	3108
844.844	3214
844.98	3268
845.117	3207
845.253	3062
845.389	3013
845.525	3112
845.661	3161
845.798	3009
845.934	3169
846.07	3074
846.206	3230
846.342	3310
846.478	3256
846.614	3108
846.75	3104
846.886	3024
847.022	3256
847.158	3176
847.294	3230
847.429	3245
847.565	3279
847.701	3515
847.837	3097
847.972	3028
848.108	3161
848.244	3150
848.379	3020
848.515	2967
848.65	2956
848.786	3013
848.921	3036
849.057	3127
849.192	3184
849.328	3119
849.463	3150
849.598	3089
849.734	3058
849.869	3032
850.004	2937
850.14	3009
850.275	2963
850.41	2883
850.545	2891
850.68	2971
850.815	3013
850.95	2971
851.085	3233
851.22	3131
851.355	3066
851.49	3013
851.625	3066
851.76	3017
851.895	2979
852.03	2933
852.165	3013
852.299	3112
852.434	3180
852.569	3146
852.703	3211
852.838	3298
852.973	3355
853.107	3317
853.242	3154
853.376	3142
853.511	3017
853.645	3070
853.78	3222
853.914	3108
854.048	3104
854.183	3062
854.317	3142
854.451	3332
854.585	3146
854.72	3119
854.854	3260
854.988	3062
855.122	3077
855.256	3009
855.39	3135
855.524	3256
855.658	3173
855.792	3176
855.926	3199
856.06	3241
856.194	3279
856.327	3169
856.461	3089
856.595	3097
856.729	3089
856.862	3241
856.996	3195
857.13	3195
857.263	3245
857.397	3249
857.53	3108
857.664	3222
857.797	3291
857.931	3268
858.064	3203
858.197	3249
858.331	3138
858.464	3100
858.597	3039
858.731	3112
858.864	3165
858.997	3077
859.13	3154
859.263	3176
859.396	3260
859.529	3108
859.662	3112
859.795	3097
859.928	3150
860.061	3272
860.194	3332
860.327	3119
860.46	3116
860.592	3249
860.725	3302
860.858	3298
860.99	3093
861.123	3097
861.256	3089
861.388	3173
861.521	3698
861.653	3043
861.786	2994
861.918	3005
862.05	3077
862.183	3074
862.315	3165
862.447	3207
862.58	3127
862.712	3005
862.844	2883
862.976	3055
863.108	3036
863.24	3412
863.372	2891
863.504	2994
863.636	2986
863.768	3039
863.9	2986
864.032	2910
864.164	3005
864.296	3036
864.428	3097
864.559	3127
864.691	3097
864.823	3097
864.954	2998
865.086	3093
865.217	3043
865.349	2918
865.48	2979
865.612	3032
865.743	3135
865.875	3013
866.006	2982
866.137	3032
866.269	2979
866.4	2956
866.531	2902
866.662	2902
866.793	2910
866.924	2922
867.055	3020
867.186	2960
867.317	2883
867.448	2880
867.579	2861
867.71	2868
867.841	2819
867.972	2963
868.103	2952
868.233	2918
868.364	2899
868.495	2933
868.625	3097
868.756	3138
868.886	3028
869.017	3062
869.147	3192
869.278	3173
869.408	3043
869.539	3032
869.669	3100
869.799	3062
869.929	3119
870.06	3142
870.19	3344
870.32	3310
870.45	3329
870.58	3370
870.71	3526
870.84	3500
870.97	3329
871.1	3237
871.23	3477
871.36	3450
871.489	3382
871.619	3378
871.749	3473
871.879	3443
872.008	3500
872.138	3409
872.267	3298
872.397	3169
872.526	3119
872.656	3036
872.785	3116
872.915	3226
873.044	3363
873.173	3230
873.303	3272
873.432	3253
873.561	3237
873.69	3169
873.819	3176
873.948	3253
874.077	3127
874.206	3051
874.335	3070
874.464	3180
874.593	3340
874.722	3237
874.851	3401
874.979	3363
875.108	3370
875.237	3207
875.365	3195
875.494	3138
875.623	3260
875.751	3097
875.88	3142
876.008	3211
876.136	3245
876.265	3393
876.393	3542
876.521	3447
876.65	3416
876.778	3370
876.906	3249
877.034	3237
877.162	3237
877.29	3184
877.418	3272
877.546	3291
877.674	3272
877.802	3249
877.93	3245
878.058	3188
878.185	3157
878.313	3233
878.441	3214
878.568	3066
878.696	3173
878.824	3268
878.951	3321
879.079	3458
879.206	3637
879.333	3412
879.461	3351
879.588	3401
879.715	3511
879.842	3614
879.97	3378
880.097	3169
880.224	3131
880.351	3195
880.478	3211
880.605	3222
880.732	3218
880.859	3507
880.986	3313
881.112	3344
881.239	3226
881.366	3108
881.493	3055
881.619	3020
881.746	3089
881.872	3104
881.999	3112
882.125	3138
882.252	3260
882.378	3298
882.505	3458
882.631	3317
882.757	3176
882.883	3256
883.01	3218
883.136	3150
883.262	3100
883.388	3131
883.514	3340
883.64	3393
883.766	3340
883.892	3222
884.018	3268
884.143	3420
884.269	3564
884.395	3218
884.52	3161
884.646	3154
884.772	3108
884.897	3104
885.023	3199
885.148	3374
885.274	3485
885.399	3378
885.524	3279
885.65	3264
885.775	3325
885.9	3279
886.025	3431
886.15	3393
886.275	3287
886.4	3245
886.525	3325
886.65	3260
886.775	3283
886.9	3492
887.025	3660
887.149	3454
887.274	3272
887.399	3154
887.523	3199
887.648	3207
887.773	3203
887.897	3393
888.021	3382
888.146	3313
888.27	3409
888.395	3564
888.519	3420
888.643	3416
888.767	3447
888.891	3332
889.015	3241
889.139	3298
889.263	3268
889.387	3386
889.511	3523
889.635	3454
889.759	3332
889.883	3287
890.006	3374
890.13	3504
890.254	3363
890.377	3374
890.501	3199
890.624	3188
890.748	3325
890.871	3226
890.995	3135
891.118	3055
891.241	3192
891.364	3256
891.488	3336
891.611	3211
891.734	3230
891.857	3275
891.98	3268
892.103	3378
892.226	3321
892.349	3218
892.471	3100
892.594	3256
892.717	3336
892.839	3310
892.962	3302
893.085	3389
893.207	3283
893.33	3184
893.452	3245
893.575	3325
893.697	3264
893.819	3424
893.941	3458
894.064	3473
894.186	3294
894.308	3268
894.43	3466
894.552	3572
894.674	3492
894.796	3268
894.918	3325
895.04	3325
895.161	3450
895.283	3397
895.405	3298
895.526	3393
895.648	3405
895.769	3462
895.891	3439
896.012	3492
896.134	3481
896.255	3412
896.376	3374
896.498	3359
896.619	3405
896.74	3340
896.861	3420
896.982	3686
897.103	3831
897.224	3591
897.345	3534
897.466	3447
897.587	3515
897.708	3648
897.828	3549
897.949	3428
898.07	3359
898.19	3386
898.311	3641
898.431	3500
898.552	3500
898.672	3591
898.792	3603
898.913	3504
899.033	3378
899.153	3283
899.273	3218
899.393	3294
899.513	3332
899.633	3302
899.753	3340
899.873	3336
899.993	3359
900.113	3348
900.232	3382
900.352	3359
900.472	3310
900.591	3214
900.711	3298
900.83	3226
900.95	3397
901.069	3545
901.189	3363
901.308	3199
901.427	3119
901.546	3192
901.665	3329
901.784	3355
901.904	3207
902.023	3146
902.141	3017
902.26	3009
902.379	3131
902.498	3047
902.617	3085
902.735	3199
902.854	3230
902.973	3161
903.091	3047
903.21	3070
903.328	3138
903.446	3135
903.565	3097
903.683	3199
903.801	3188
903.919	3264
904.038	3294
904.156	3173
904.274	3264
904.392	3268
904.51	3306
904.627	3336
904.745	3443
904.863	3553
904.981	3237
905.098	3180
905.216	3237
905.334	3332
905.451	3302
905.569	3321
905.686	3435
905.803	3443
905.921	3313
906.038	3378
906.155	3344
906.272	3302
906.389	3355
906.506	3226
906.623	3222
906.74	3275
906.857	3203
906.974	3268
907.091	3424
907.208	3553
907.324	3492
907.441	3431
907.557	3222
907.674	3192
907.79	3180
907.907	3268
908.023	3393
908.139	3370
908.256	3332
908.372	3374
908.488	3351
908.604	3275
908.72	3230
908.836	3317
908.952	3291
909.068	3363
909.184	3511
909.3	3367
909.415	3519
909.531	3454
909.647	3268
909.762	3310
909.878	3249
909.993	3355
910.108	3344
910.224	3325
910.339	3386
910.454	3329
910.57	3279
910.685	3245
910.8	3580
910.915	3572
911.03	3420
911.145	3268
911.259	3264
911.374	3306
911.489	3214
911.604	3218
911.718	3112
911.833	3131
911.947	3043
912.062	2990
912.176	3150
912.291	3176
912.405	3173
912.519	3401
912.633	3504
912.748	3370
912.862	3275
912.976	3180
913.09	3074
913.204	3127
913.318	3214
913.431	3374
913.545	3336
913.659	3416
913.772	3340
913.886	3218
914	3199
914.113	3378
914.226	3382
914.34	3389
914.453	3230
914.566	3374
914.68	3291
914.793	3275
914.906	3150
915.019	3127
915.132	3093
915.245	3165
915.358	3188
915.47	3173
915.583	3283
915.696	3245
915.809	3412
915.921	3428
916.034	3287
916.146	3237
916.259	3203
916.371	3378
916.483	3340
916.595	3264
916.708	3386
916.82	3340
916.932	3351
917.044	3363
917.156	3325
917.268	3230
917.38	3344
917.491	3310
917.603	3378
917.715	3405
917.826	3462
917.938	3389
918.049	3272
918.161	3443
918.272	3542
918.384	3629
918.495	3458
918.606	3325
918.717	3283
918.828	3401
918.939	3409
919.05	3283
919.161	3298
919.272	3150
919.383	3279
919.494	3511
919.604	3682
919.715	3492
919.826	3409
919.936	3477
920.047	3637
920.157	3572
920.267	3759
920.378	3614
920.488	3595
920.598	3766
920.708	3949
920.818	3808
920.928	3873
921.038	3994
921.148	3960
921.258	3686
921.368	3652
921.477	3587
921.587	3564
921.697	3473
921.806	3637
921.916	3523
922.025	3367
922.134	3359
922.244	3351
922.353	3431
922.462	3260
922.571	3195
922.68	3077
922.789	3047
922.898	3108
923.007	3100
923.116	3188
923.224	3188
923.333	3184
923.442	3108
923.55	3089
923.659	3165
923.767	3199
923.876	3108
923.984	3233
924.092	3085
924.201	3218
924.309	3207
924.417	3256
924.525	3195
924.633	3233
924.741	4048
924.849	3055
924.956	3268
925.064	3097
925.172	3032
925.279	3116
925.387	3226
925.494	3180
925.602	3332
925.709	3363
925.816	3176
925.924	3294
926.031	3313
926.138	3313
926.245	3359
926.352	3283
926.459	3393
926.566	3511
926.673	3310
926.779	3245
926.886	3264
926.993	3135
927.099	3154
927.206	3131
927.312	3146
927.419	3233
927.525	3214
927.631	3253
927.737	3165
927.843	3131
927.95	2986
928.056	3161
928.162	3165
928.267	3245
928.373	3789
928.479	3313
928.585	3066
928.69	3192
928.796	3306
928.901	3188
929.007	3028
929.112	3222
929.218	3180
929.323	3146
929.428	3176
929.533	3325
929.638	3135
929.743	3199
929.848	3222
929.953	3218
930.058	3161
930.163	2963
930.267	3047
930.372	3207
930.477	3036
930.581	3351
930.685	3123
930.79	3039
930.894	3119
930.998	3093
931.103	3260
931.207	2994
931.311	2998
931.415	2925
931.519	2792
931.623	2815
