Data from test_V78500241_841.txt Node
Date: Fri Mar 25 16:21:01 CST 2022
User: usil
Spectrometer: V785-0024
Trigger mode: 0
Integration Time (sec): 4.000000E-1
Scans to average: 1
Nonlinearity correction enabled: false
Boxcar width: 0
Storing dark spectrum: false
XAxis mode: Wavelengths
Number of Pixels in Spectrum: 1024
>>>>>Begin Spectral Data<<<<<
801.071	2899
801.214	2914
801.356	2868
801.499	2918
801.641	2918
801.783	2895
801.926	3077
802.068	2975
802.211	2990
802.353	3062
802.496	2960
802.638	2982
802.78	3036
802.923	3097
803.065	2979
803.208	2895
803.35	2899
803.492	2948
803.635	2963
803.777	2766
803.919	2853
804.061	3226
804.204	2952
804.346	2929
804.488	2872
804.63	3001
804.773	2895
804.915	2948
805.057	3077
805.199	2918
805.341	2975
805.483	3047
805.626	3047
805.768	2963
805.91	3062
806.052	3085
806.194	3036
806.336	3218
806.478	2994
806.62	2967
806.762	2956
806.904	3081
807.046	3138
807.188	3017
807.33	2895
807.472	3017
807.614	2891
807.756	2994
807.898	2929
808.04	2906
808.182	2979
808.324	2956
808.465	2868
808.607	2868
808.749	2826
808.891	2868
809.033	2982
809.174	2963
809.316	2872
809.458	2895
809.6	2773
809.741	2785
809.883	2758
810.025	2826
810.166	2823
810.308	2826
810.45	2834
810.591	2792
810.733	2746
810.875	2819
811.016	2792
811.158	2766
811.299	2800
811.441	2948
811.582	2880
811.724	2819
811.865	2842
812.007	2895
812.148	2880
812.29	2868
812.431	2853
812.573	2918
812.714	2982
812.855	3043
812.997	3039
813.138	3127
813.279	3013
813.421	2952
813.562	2952
813.703	2902
813.845	2868
813.986	2777
814.127	2739
814.268	2842
814.41	2842
814.551	2804
814.692	2880
814.833	2819
814.974	2910
815.115	2956
815.256	2864
815.397	2788
815.539	2838
815.68	2743
815.821	2785
815.962	2967
816.103	2925
816.244	2918
816.385	2861
816.526	2952
816.666	2876
816.807	2773
816.948	2891
817.089	2982
817.23	2864
817.371	2754
817.512	2769
817.653	2845
817.793	2815
817.934	2876
818.075	2937
818.216	2948
818.356	3032
818.497	2883
818.638	2758
818.778	2849
818.919	2724
819.06	2758
819.2	2826
819.341	2815
819.481	2830
819.622	2956
819.762	3070
819.903	3043
820.043	2910
820.184	2891
820.324	2868
820.465	3032
820.605	2990
820.746	2982
820.886	2944
821.026	3074
821.167	3188
821.307	3272
821.447	3283
821.588	3211
821.728	3169
821.868	3207
822.008	3085
822.149	3169
822.289	3241
822.429	3055
822.569	3085
822.709	3173
822.849	2998
822.99	3055
823.13	3169
823.27	3173
823.41	3093
823.55	3154
823.69	3138
823.83	3207
823.97	3135
824.11	2986
824.25	2990
824.389	3104
824.529	3138
824.669	3074
824.809	3142
824.949	3214
825.089	3195
825.228	3165
825.368	2998
825.508	2902
825.648	2948
825.787	2975
825.927	3001
826.067	2971
826.206	2963
826.346	3047
826.485	3077
826.625	3119
826.765	3253
826.904	3203
827.044	3009
827.183	2918
827.323	2849
827.462	3017
827.601	2914
827.741	2971
827.88	2944
828.02	2842
828.159	2982
828.298	2998
828.437	3089
828.577	2998
828.716	3260
828.855	3043
828.994	2906
829.134	2872
829.273	2895
829.412	2853
829.551	2849
829.69	2895
829.829	3005
829.968	3108
830.107	3001
830.246	3051
830.385	2906
830.524	2880
830.663	2838
830.802	2743
830.941	2648
831.08	2644
831.219	2724
831.357	2743
831.496	2956
831.635	2655
831.774	2651
831.913	2636
832.051	2499
832.19	2579
832.329	2697
832.467	2541
832.606	2480
832.744	2560
832.883	2587
833.022	2564
833.16	2606
833.299	2689
833.437	2701
833.576	2701
833.714	2682
833.852	2701
833.991	2754
834.129	2826
834.267	2781
834.406	2785
834.544	2876
834.682	2849
834.821	2849
834.959	3036
835.097	2929
835.235	3032
835.373	2956
835.511	3013
835.65	2948
835.788	2982
835.926	2815
836.064	2781
836.202	2826
836.34	3055
836.478	3142
836.615	3039
836.753	3116
836.891	3222
837.029	3169
837.167	3089
837.305	3062
837.443	3066
837.58	2998
837.718	3093
837.856	3047
837.993	3020
838.131	3104
838.269	3081
838.406	3070
838.544	3081
838.681	2933
838.819	2910
838.956	2842
839.094	2815
839.231	2887
839.369	2971
839.506	3348
839.643	3207
839.781	3017
839.918	2933
840.055	3005
840.193	3047
840.33	3047
840.467	3070
840.604	3123
840.742	3397
840.879	3062
841.016	3043
841.153	3127
841.29	3321
841.427	3253
841.564	3275
841.701	3298
841.838	3237
841.975	3173
842.112	3184
842.249	3097
842.385	3077
842.522	3241
842.659	3081
842.796	3039
842.933	3089
843.069	3074
843.206	3001
843.343	3184
843.479	3039
843.616	3093
843.752	2876
843.889	2883
844.025	3024
844.162	2868
844.298	3085
844.435	2956
844.571	2925
844.708	3043
844.844	3214
844.98	3256
845.117	3165
845.253	3043
845.389	2994
845.525	3093
845.661	3142
845.798	2986
845.934	3131
846.07	3062
846.206	3165
846.342	3302
846.478	3218
846.614	3070
846.75	3043
846.886	3036
847.022	3195
847.158	3123
847.294	3176
847.429	3260
847.565	3180
847.701	3447
847.837	2998
847.972	2994
848.108	3138
848.244	3165
848.379	2994
848.515	2944
848.65	2929
848.786	2933
848.921	3009
849.057	3085
849.192	3146
849.328	3055
849.463	3108
849.598	3070
849.734	3028
849.869	2990
850.004	2933
850.14	2986
850.275	2895
850.41	2830
850.545	2872
850.68	2914
850.815	2933
850.95	2982
851.085	3214
851.22	3085
851.355	3005
851.49	2982
851.625	3009
851.76	2998
851.895	2925
852.03	2910
852.165	3032
852.299	3104
852.434	3184
852.569	3131
852.703	3135
852.838	3249
852.973	3348
853.107	3351
853.242	3104
853.376	3089
853.511	2948
853.645	3036
853.78	3199
853.914	3100
854.048	3097
854.183	3097
854.317	3131
854.451	3291
854.585	3119
854.72	3074
854.854	3203
854.988	3032
855.122	3093
855.256	2998
855.39	3085
855.524	3237
855.658	3135
855.792	3108
855.926	3165
856.06	3211
856.194	3275
856.327	3119
856.461	3081
856.595	3058
856.729	3097
856.862	3199
856.996	3169
857.13	3165
857.263	3275
857.397	3298
857.53	3127
857.664	3154
857.797	3211
857.931	3268
858.064	3173
858.197	3161
858.331	3100
858.464	3062
858.597	3036
858.731	3135
858.864	3112
858.997	3066
859.13	3169
859.263	3173
859.396	3192
859.529	3066
859.662	3085
859.795	3039
859.928	3169
860.061	3272
860.194	3249
860.327	3131
860.46	3085
860.592	3211
860.725	3245
860.858	3256
860.99	3074
861.123	3047
861.256	3070
861.388	3150
861.521	3911
861.653	3017
861.786	2960
861.918	2982
862.05	3066
862.183	3074
862.315	3138
862.447	3192
862.58	3100
862.712	2948
862.844	2861
862.976	3039
863.108	2982
863.24	3325
863.372	2899
863.504	2975
863.636	2952
863.768	3013
863.9	2956
864.032	2910
864.164	2933
864.296	3032
864.428	3100
864.559	3062
864.691	3081
864.823	3066
864.954	2979
865.086	3043
865.217	2990
865.349	2982
865.48	2990
865.612	2998
865.743	3157
865.875	2979
866.006	2944
866.137	2960
866.269	2956
866.4	2929
866.531	2956
866.662	2895
866.793	2891
866.924	2883
867.055	2956
867.186	2895
867.317	2838
867.448	2864
867.579	2845
867.71	2804
867.841	2781
867.972	2910
868.103	2925
868.233	2864
868.364	2830
868.495	2891
868.625	3085
868.756	3180
868.886	2948
869.017	3028
869.147	3116
869.278	3131
869.408	3055
869.539	3013
869.669	3062
869.799	3013
869.929	3138
870.06	3116
870.19	3321
870.32	3256
870.45	3253
870.58	3389
870.71	3454
870.84	3439
870.97	3260
871.1	3222
871.23	3504
871.36	3454
871.489	3321
871.619	3386
871.749	3351
871.879	3409
872.008	3466
872.138	3370
872.267	3253
872.397	3097
872.526	3085
872.656	2986
872.785	3085
872.915	3256
873.044	3321
873.173	3226
873.303	3245
873.432	3214
873.561	3241
873.69	3100
873.819	3142
873.948	3173
874.077	3119
874.206	3020
874.335	3043
874.464	3203
874.593	3340
874.722	3218
874.851	3389
874.979	3344
875.108	3348
875.237	3165
875.365	3142
875.494	3150
875.623	3256
875.751	3070
875.88	3097
876.008	3207
876.136	3214
876.265	3386
876.393	3507
876.521	3370
876.65	3378
876.778	3287
876.906	3256
877.034	3199
877.162	3222
877.29	3165
877.418	3287
877.546	3230
877.674	3241
877.802	3211
877.93	3218
878.058	3157
878.185	3085
878.313	3195
878.441	3218
878.568	3036
878.696	3119
878.824	3279
878.951	3294
879.079	3420
879.206	3660
879.333	3454
879.461	3287
879.588	3302
879.715	3450
879.842	3587
879.97	3340
880.097	3142
880.224	3119
880.351	3146
880.478	3199
880.605	3211
880.732	3184
880.859	3454
880.986	3291
881.112	3302
881.239	3195
881.366	3081
881.493	2994
881.619	3051
881.746	3066
881.872	3081
881.999	3097
882.125	3112
882.252	3245
882.378	3291
882.505	3386
882.631	3287
882.757	3123
882.883	3230
883.01	3180
883.136	3131
883.262	3070
883.388	3066
883.514	3283
883.64	3321
883.766	3302
883.892	3173
884.018	3256
884.143	3386
884.269	3553
884.395	3188
884.52	3127
884.646	3192
884.772	3093
884.897	3047
885.023	3184
885.148	3325
885.274	3386
885.399	3310
885.524	3275
885.65	3192
885.775	3275
885.9	3264
886.025	3428
886.15	3374
886.275	3287
886.4	3237
886.525	3317
886.65	3214
886.775	3275
886.9	3462
887.025	3622
887.149	3363
887.274	3233
887.399	3169
887.523	3188
887.648	3165
887.773	3203
887.897	3397
888.021	3359
888.146	3283
888.27	3424
888.395	3545
888.519	3424
888.643	3443
888.767	3466
888.891	3268
889.015	3199
889.139	3329
889.263	3241
889.387	3424
889.511	3511
889.635	3431
889.759	3306
889.883	3306
890.006	3435
890.13	3496
890.254	3291
890.377	3367
890.501	3211
890.624	3218
890.748	3294
890.871	3188
890.995	3142
891.118	3085
891.241	3207
891.364	3192
891.488	3329
891.611	3207
891.734	3230
891.857	3294
891.98	3291
892.103	3355
892.226	3348
892.349	3298
892.471	3142
892.594	3233
892.717	3321
892.839	3275
892.962	3279
893.085	3378
893.207	3325
893.33	3214
893.452	3233
893.575	3363
893.697	3291
893.819	3515
893.941	3488
894.064	3477
894.186	3264
894.308	3313
894.43	3500
894.552	3580
894.674	3492
894.796	3329
894.918	3367
895.04	3332
895.161	3488
895.283	3443
895.405	3348
895.526	3439
895.648	3450
895.769	3447
895.891	3492
896.012	3515
896.134	3515
896.255	3469
896.376	3431
896.498	3359
896.619	3469
896.74	3416
896.861	3420
896.982	3720
897.103	3869
897.224	3660
897.345	3545
897.466	3519
897.587	3519
897.708	3656
897.828	3603
897.949	3477
898.07	3340
898.19	3481
898.311	3660
898.431	3443
898.552	3530
898.672	3682
898.792	3614
898.913	3580
899.033	3439
899.153	3306
899.273	3214
899.393	3351
899.513	3344
899.633	3313
899.753	3351
899.873	3348
899.993	3393
900.113	3382
900.232	3405
900.352	3363
900.472	3321
900.591	3230
900.711	3313
900.83	3298
900.95	3458
901.069	3526
901.189	3359
901.308	3188
901.427	3154
901.546	3211
901.665	3336
901.784	3355
901.904	3230
902.023	3146
902.141	3055
902.26	2998
902.379	3161
902.498	3112
902.617	3089
902.735	3233
902.854	3268
902.973	3207
903.091	3085
903.21	3089
903.328	3169
903.446	3123
903.565	3127
903.683	3203
903.801	3192
903.919	3245
904.038	3317
904.156	3237
904.274	3317
904.392	3256
904.51	3317
904.627	3355
904.745	3473
904.863	3500
904.981	3260
905.098	3203
905.216	3260
905.334	3317
905.451	3329
905.569	3306
905.686	3500
905.803	3443
905.921	3306
906.038	3462
906.155	3405
906.272	3253
906.389	3351
906.506	3218
906.623	3268
906.74	3245
906.857	3207
906.974	3298
907.091	3439
907.208	3633
907.324	3511
907.441	3420
907.557	3245
907.674	3275
907.79	3188
907.907	3298
908.023	3412
908.139	3412
908.256	3355
908.372	3412
908.488	3393
908.604	3275
908.72	3253
908.836	3321
908.952	3291
909.068	3355
909.184	3515
909.3	3431
909.415	3538
909.531	3515
909.647	3275
909.762	3336
909.878	3310
909.993	3405
910.108	3344
910.224	3382
910.339	3458
910.454	3370
910.57	3378
910.685	3294
910.8	3591
910.915	3523
911.03	3435
911.145	3306
911.259	3298
911.374	3340
911.489	3291
911.604	3241
911.718	3127
911.833	3188
911.947	3055
912.062	3032
912.176	3195
912.291	3211
912.405	3253
912.519	3477
912.633	3507
912.748	3325
912.862	3294
912.976	3176
913.09	3093
913.204	3165
913.318	3230
913.431	3321
913.545	3374
913.659	3412
913.772	3412
913.886	3241
914	3230
914.113	3405
914.226	3454
914.34	3401
914.453	3233
914.566	3450
914.68	3287
914.793	3344
914.906	3176
915.019	3154
915.132	3138
915.245	3249
915.358	3214
915.47	3241
915.583	3306
915.696	3351
915.809	3466
915.921	3447
916.034	3287
916.146	3275
916.259	3264
916.371	3454
916.483	3397
916.595	3325
916.708	3351
916.82	3378
916.932	3363
917.044	3389
917.156	3386
917.268	3329
917.38	3370
917.491	3355
917.603	3370
917.715	3488
917.826	3466
917.938	3424
918.049	3287
918.161	3469
918.272	3584
918.384	3595
918.495	3523
918.606	3382
918.717	3287
918.828	3378
918.939	3477
919.05	3317
919.161	3344
919.272	3218
919.383	3302
919.494	3477
919.604	3701
919.715	3500
919.826	3424
919.936	3523
920.047	3553
920.157	3553
920.267	3793
920.378	3610
920.488	3614
920.598	3816
920.708	3991
920.818	3831
920.928	3831
921.038	4071
921.148	4025
921.258	3736
921.368	3694
921.477	3614
921.587	3545
921.697	3462
921.806	3641
921.916	3511
922.025	3409
922.134	3359
922.244	3348
922.353	3428
922.462	3275
922.571	3249
922.68	3123
922.789	3154
922.898	3127
923.007	3093
923.116	3214
923.224	3253
923.333	3203
923.442	3112
923.55	3074
923.659	3161
923.767	3230
923.876	3123
923.984	3283
924.092	3108
924.201	3211
924.309	3230
924.417	3306
924.525	3222
924.633	3268
924.741	3998
924.849	3051
924.956	3287
925.064	3108
925.172	3100
925.279	3116
925.387	3241
925.494	3207
925.602	3355
925.709	3325
925.816	3180
925.924	3340
926.031	3450
926.138	3298
926.245	3359
926.352	3287
926.459	3409
926.566	3504
926.673	3332
926.779	3256
926.886	3302
926.993	3169
927.099	3150
927.206	3165
927.312	3169
927.419	3302
927.525	3253
927.631	3310
927.737	3180
927.843	3173
927.95	3043
928.056	3192
928.162	3161
928.267	3233
928.373	3812
928.479	3321
928.585	3074
928.69	3241
928.796	3260
928.901	3165
929.007	3081
929.112	3245
929.218	3154
929.323	3199
929.428	3180
929.533	3321
929.638	3100
929.743	3188
929.848	3283
929.953	3241
930.058	3180
930.163	3036
930.267	3074
930.372	3211
930.477	3089
930.581	3329
930.685	3188
930.79	3039
930.894	3138
930.998	3157
931.103	3313
931.207	3009
931.311	2948
931.415	2944
931.519	2773
931.623	2830
