Data from test_V78500241_140.txt Node
Date: Fri Mar 25 16:16:10 CST 2022
User: usil
Spectrometer: V785-0024
Trigger mode: 0
Integration Time (sec): 4.000000E-1
Scans to average: 1
Nonlinearity correction enabled: false
Boxcar width: 0
Storing dark spectrum: false
XAxis mode: Wavelengths
Number of Pixels in Spectrum: 1024
>>>>>Begin Spectral Data<<<<<
801.071	2952
801.214	2967
801.356	2899
801.499	2891
801.641	2876
801.783	2956
801.926	3062
802.068	2975
802.211	3013
802.353	3039
802.496	2994
802.638	3039
802.78	3081
802.923	3116
803.065	3032
803.208	2906
803.35	2925
803.492	2956
803.635	2910
803.777	2735
803.919	2899
804.061	3192
804.204	2956
804.346	2925
804.488	2849
804.63	2986
804.773	2887
804.915	2906
805.057	3062
805.199	2944
805.341	2990
805.483	3039
805.626	3013
805.768	2948
805.91	3093
806.052	3093
806.194	3032
806.336	3264
806.478	3062
806.62	2963
806.762	2971
806.904	3066
807.046	3207
807.188	3024
807.33	2933
807.472	3009
807.614	2906
807.756	2998
807.898	2925
808.04	2880
808.182	2986
808.324	2933
808.465	2887
808.607	2880
808.749	2826
808.891	2857
809.033	2975
809.174	3020
809.316	2887
809.458	2918
809.6	2773
809.741	2800
809.883	2796
810.025	2842
810.166	2887
810.308	2842
810.45	2857
810.591	2758
810.733	2804
810.875	2864
811.016	2754
811.158	2792
811.299	2792
811.441	2952
811.582	2883
811.724	2853
811.865	2872
812.007	2933
812.148	2918
812.29	2872
812.431	2902
812.573	2952
812.714	2960
812.855	3066
812.997	3039
813.138	3146
813.279	3036
813.421	3024
813.562	3017
813.703	2876
813.845	2929
813.986	2785
814.127	2750
814.268	2838
814.41	2807
814.551	2826
814.692	2891
814.833	2800
814.974	2948
815.115	2975
815.256	2861
815.397	2781
815.539	2868
815.68	2766
815.821	2804
815.962	2925
816.103	2929
816.244	2895
816.385	2864
816.526	2990
816.666	2925
816.807	2727
816.948	2902
817.089	2925
817.23	2842
817.371	2769
817.512	2830
817.653	2891
817.793	2861
817.934	2910
818.075	2998
818.216	2982
818.356	3020
818.497	2891
818.638	2788
818.778	2834
818.919	2811
819.06	2788
819.2	2872
819.341	2838
819.481	2853
819.622	2952
819.762	3146
819.903	3036
820.043	2918
820.184	2956
820.324	2906
820.465	3013
820.605	3028
820.746	3051
820.886	2941
821.026	3123
821.167	3188
821.307	3249
821.447	3253
821.588	3256
821.728	3211
821.868	3264
822.008	3112
822.149	3211
822.289	3233
822.429	3108
822.569	3108
822.709	3218
822.849	3058
822.99	3093
823.13	3211
823.27	3184
823.41	3157
823.55	3180
823.69	3142
823.83	3169
823.97	3104
824.11	3017
824.25	3005
824.389	3070
824.529	3119
824.669	3077
824.809	3222
824.949	3287
825.089	3268
825.228	3218
825.368	3017
825.508	2952
825.648	2998
825.787	3028
825.927	3017
826.067	2971
826.206	3001
826.346	3077
826.485	3077
826.625	3127
826.765	3268
826.904	3237
827.044	3032
827.183	2925
827.323	2842
827.462	3013
827.601	2948
827.741	2944
827.88	2963
828.02	2845
828.159	2994
828.298	3017
828.437	3123
828.577	3058
828.716	3233
828.855	3077
828.994	2941
829.134	2922
829.273	2963
829.412	2880
829.551	2895
829.69	2910
829.829	2971
829.968	3127
830.107	3043
830.246	3062
830.385	2963
830.524	2891
830.663	2807
830.802	2746
830.941	2629
831.08	2655
831.219	2777
831.357	2758
831.496	2941
831.635	2724
831.774	2648
831.913	2674
832.051	2571
832.19	2587
832.329	2743
832.467	2575
832.606	2514
832.744	2564
832.883	2598
833.022	2613
833.16	2648
833.299	2670
833.437	2716
833.576	2712
833.714	2716
833.852	2739
833.991	2746
834.129	2845
834.267	2834
834.406	2819
834.544	2857
834.682	2883
834.821	2906
834.959	3062
835.097	2883
835.235	3089
835.373	3020
835.511	3005
835.65	3013
835.788	2990
835.926	2819
836.064	2811
836.202	2830
836.34	3123
836.478	3150
836.615	3070
836.753	3138
836.891	3195
837.029	3184
837.167	3116
837.305	3085
837.443	3058
837.58	2971
837.718	3150
837.856	3081
837.993	3066
838.131	3123
838.269	3116
838.406	3119
838.544	3127
838.681	2937
838.819	2929
838.956	2845
839.094	2861
839.231	2975
839.369	3047
839.506	3378
839.643	3203
839.781	3070
839.918	2948
840.055	3047
840.193	3093
840.33	3104
840.467	3097
840.604	3161
840.742	3447
840.879	3074
841.016	3028
841.153	3176
841.29	3340
841.427	3329
841.564	3256
841.701	3306
841.838	3245
841.975	3150
842.112	3218
842.249	3085
842.385	3085
842.522	3256
842.659	3108
842.796	3074
842.933	3081
843.069	3009
843.206	3036
843.343	3207
843.479	3127
843.616	3173
843.752	2861
843.889	2887
844.025	3066
844.162	2880
844.298	3074
844.435	2952
844.571	2914
844.708	3039
844.844	3222
844.98	3249
845.117	3203
845.253	3089
845.389	3062
845.525	3123
845.661	3116
845.798	3043
845.934	3150
846.07	3081
846.206	3226
846.342	3321
846.478	3207
846.614	3085
846.75	3066
846.886	3013
847.022	3264
847.158	3173
847.294	3207
847.429	3268
847.565	3180
847.701	3515
847.837	3028
847.972	3001
848.108	3169
848.244	3142
848.379	3028
848.515	2948
848.65	2895
848.786	2986
848.921	3024
849.057	3123
849.192	3176
849.328	3081
849.463	3142
849.598	3043
849.734	3070
849.869	3001
850.004	2899
850.14	3001
850.275	2941
850.41	2853
850.545	2868
850.68	2960
850.815	2979
850.95	2998
851.085	3195
851.22	3127
851.355	3062
851.49	2990
851.625	2990
851.76	3066
851.895	2963
852.03	2941
852.165	3024
852.299	3116
852.434	3222
852.569	3131
852.703	3192
852.838	3294
852.973	3374
853.107	3329
853.242	3184
853.376	3112
853.511	3013
853.645	3093
853.78	3233
853.914	3108
854.048	3131
854.183	3116
854.317	3161
854.451	3348
854.585	3138
854.72	3108
854.854	3207
854.988	3051
855.122	3077
855.256	3032
855.39	3131
855.524	3211
855.658	3207
855.792	3192
855.926	3180
856.06	3233
856.194	3279
856.327	3195
856.461	3112
856.595	3085
856.729	3116
856.862	3264
856.996	3195
857.13	3165
857.263	3272
857.397	3298
857.53	3108
857.664	3184
857.797	3272
857.931	3256
858.064	3157
858.197	3249
858.331	3176
858.464	3116
858.597	2990
858.731	3146
858.864	3142
858.997	3135
859.13	3176
859.263	3188
859.396	3218
859.529	3089
859.662	3055
859.795	3089
859.928	3154
860.061	3245
860.194	3298
860.327	3142
860.46	3119
860.592	3264
860.725	3230
860.858	3275
860.99	3097
861.123	3047
861.256	3062
861.388	3192
861.521	3671
861.653	3036
861.786	3032
861.918	3039
862.05	3077
862.183	3104
862.315	3150
862.447	3199
862.58	3142
862.712	2952
862.844	2857
862.976	3043
863.108	3017
863.24	3412
863.372	2906
863.504	3005
863.636	2952
863.768	3043
863.9	2967
864.032	2952
864.164	2994
864.296	3036
864.428	3089
864.559	3112
864.691	3074
864.823	3062
864.954	3047
865.086	3074
865.217	3017
865.349	2948
865.48	2960
865.612	3043
865.743	3176
865.875	2986
866.006	2948
866.137	2967
866.269	2986
866.4	2956
866.531	2937
866.662	2891
866.793	2895
866.924	2891
867.055	2982
867.186	2906
867.317	2883
867.448	2853
867.579	2872
867.71	2895
867.841	2823
867.972	2887
868.103	2899
868.233	2918
868.364	2872
868.495	2922
868.625	3089
868.756	3138
868.886	2990
869.017	3032
869.147	3173
869.278	3184
869.408	3032
869.539	3032
869.669	3100
869.799	3013
869.929	3161
870.06	3119
870.19	3378
870.32	3313
870.45	3310
870.58	3374
870.71	3454
870.84	3488
870.97	3336
871.1	3245
871.23	3477
871.36	3481
871.489	3389
871.619	3386
871.749	3450
871.879	3443
872.008	3462
872.138	3359
872.267	3321
872.397	3180
872.526	3097
872.656	3051
872.785	3093
872.915	3249
873.044	3294
873.173	3222
873.303	3294
873.432	3253
873.561	3253
873.69	3165
873.819	3184
873.948	3180
874.077	3123
874.206	3047
874.335	3116
874.464	3192
874.593	3336
874.722	3283
874.851	3424
874.979	3397
875.108	3344
875.237	3222
875.365	3199
875.494	3207
875.623	3298
875.751	3142
875.88	3104
876.008	3241
876.136	3249
876.265	3420
876.393	3526
876.521	3412
876.65	3374
876.778	3329
876.906	3283
877.034	3245
877.162	3237
877.29	3233
877.418	3249
877.546	3283
877.674	3249
877.802	3226
877.93	3256
878.058	3169
878.185	3108
878.313	3233
878.441	3226
878.568	3070
878.696	3188
878.824	3283
878.951	3355
879.079	3458
879.206	3614
879.333	3481
879.461	3363
879.588	3424
879.715	3511
879.842	3572
879.97	3355
880.097	3169
880.224	3146
880.351	3173
880.478	3268
880.605	3253
880.732	3207
880.859	3496
880.986	3344
881.112	3321
881.239	3249
881.366	3112
881.493	3097
881.619	3058
881.746	3100
881.872	3097
881.999	3135
882.125	3180
882.252	3256
882.378	3287
882.505	3469
882.631	3264
882.757	3157
882.883	3195
883.01	3218
883.136	3176
883.262	3116
883.388	3150
883.514	3348
883.64	3401
883.766	3336
883.892	3195
884.018	3275
884.143	3428
884.269	3561
884.395	3199
884.52	3169
884.646	3233
884.772	3135
884.897	3108
885.023	3176
885.148	3374
885.274	3420
885.399	3397
885.524	3325
885.65	3268
885.775	3317
885.9	3298
886.025	3439
886.15	3367
886.275	3344
886.4	3237
886.525	3294
886.65	3283
886.775	3279
886.9	3545
887.025	3679
887.149	3401
887.274	3249
887.399	3188
887.523	3188
887.648	3214
887.773	3226
887.897	3416
888.021	3416
888.146	3283
888.27	3469
888.395	3534
888.519	3416
888.643	3511
888.767	3485
888.891	3302
889.015	3256
889.139	3325
889.263	3249
889.387	3405
889.511	3496
889.635	3431
889.759	3283
889.883	3313
890.006	3405
890.13	3504
890.254	3272
890.377	3378
890.501	3237
890.624	3195
890.748	3313
890.871	3188
890.995	3127
891.118	3093
891.241	3176
891.364	3245
891.488	3355
891.611	3203
891.734	3249
891.857	3275
891.98	3237
892.103	3397
892.226	3287
892.349	3237
892.471	3180
892.594	3260
892.717	3279
892.839	3317
892.962	3321
893.085	3389
893.207	3306
893.33	3173
893.452	3226
893.575	3374
893.697	3268
893.819	3492
893.941	3473
894.064	3435
894.186	3253
894.308	3287
894.43	3473
894.552	3553
894.674	3515
894.796	3253
894.918	3329
895.04	3317
895.161	3389
895.283	3378
895.405	3298
895.526	3401
895.648	3496
895.769	3435
895.891	3477
896.012	3500
896.134	3496
896.255	3462
896.376	3416
896.498	3397
896.619	3454
896.74	3374
896.861	3412
896.982	3713
897.103	3850
897.224	3576
897.345	3515
897.466	3492
897.587	3492
897.708	3622
897.828	3576
897.949	3454
898.07	3359
898.19	3435
898.311	3618
898.431	3485
898.552	3496
898.672	3660
898.792	3652
898.913	3492
899.033	3439
899.153	3302
899.273	3245
899.393	3351
899.513	3329
899.633	3355
899.753	3348
899.873	3317
899.993	3420
900.113	3367
900.232	3435
900.352	3397
900.472	3313
900.591	3230
900.711	3336
900.83	3275
900.95	3405
901.069	3492
901.189	3359
901.308	3165
901.427	3188
901.546	3207
901.665	3298
901.784	3302
901.904	3253
902.023	3192
902.141	3039
902.26	2990
902.379	3176
902.498	3127
902.617	3070
902.735	3245
902.854	3264
902.973	3218
903.091	3047
903.21	3077
903.328	3192
903.446	3112
903.565	3131
903.683	3226
903.801	3142
903.919	3241
904.038	3321
904.156	3165
904.274	3313
904.392	3268
904.51	3302
904.627	3389
904.745	3481
904.863	3485
904.981	3272
905.098	3173
905.216	3275
905.334	3317
905.451	3294
905.569	3291
905.686	3416
905.803	3462
905.921	3332
906.038	3443
906.155	3329
906.272	3268
906.389	3355
906.506	3260
906.623	3253
906.74	3298
906.857	3256
906.974	3253
907.091	3488
907.208	3557
907.324	3515
907.441	3378
907.557	3260
907.674	3245
907.79	3237
907.907	3291
908.023	3409
908.139	3401
908.256	3348
908.372	3412
908.488	3435
908.604	3272
908.72	3237
908.836	3291
908.952	3310
909.068	3351
909.184	3500
909.3	3401
909.415	3504
909.531	3530
909.647	3317
909.762	3325
909.878	3268
909.993	3386
910.108	3367
910.224	3370
910.339	3409
910.454	3355
910.57	3310
910.685	3264
910.8	3610
910.915	3561
911.03	3473
911.145	3287
911.259	3329
911.374	3348
911.489	3253
911.604	3237
911.718	3169
911.833	3165
911.947	3043
912.062	2998
912.176	3214
912.291	3214
912.405	3203
912.519	3416
912.633	3519
912.748	3340
912.862	3275
912.976	3195
913.09	3070
913.204	3169
913.318	3260
913.431	3378
913.545	3367
913.659	3443
913.772	3321
913.886	3256
914	3211
914.113	3374
914.226	3447
914.34	3363
914.453	3249
914.566	3458
914.68	3348
914.793	3313
914.906	3154
915.019	3116
915.132	3074
915.245	3207
915.358	3214
915.47	3222
915.583	3298
915.696	3287
915.809	3374
915.921	3454
916.034	3306
916.146	3207
916.259	3230
916.371	3363
916.483	3370
916.595	3268
916.708	3329
916.82	3393
916.932	3359
917.044	3367
917.156	3359
917.268	3279
917.38	3355
917.491	3279
917.603	3389
917.715	3439
917.826	3500
917.938	3405
918.049	3294
918.161	3424
918.272	3625
918.384	3584
918.495	3504
918.606	3359
918.717	3294
918.828	3386
918.939	3431
919.05	3310
919.161	3412
919.272	3188
919.383	3313
919.494	3542
919.604	3751
919.715	3488
919.826	3431
919.936	3443
920.047	3614
920.157	3568
920.267	3797
920.378	3618
920.488	3599
920.598	3789
920.708	3998
920.818	3865
920.928	3823
921.038	4048
921.148	4006
921.258	3774
921.368	3660
921.477	3561
921.587	3549
921.697	3500
921.806	3652
921.916	3545
922.025	3409
922.134	3370
922.244	3336
922.353	3450
922.462	3249
922.571	3245
922.68	3154
922.789	3123
922.898	3199
923.007	3127
923.116	3192
923.224	3222
923.333	3192
923.442	3131
923.55	3097
923.659	3154
923.767	3260
923.876	3180
923.984	3256
924.092	3154
924.201	3211
924.309	3241
924.417	3256
924.525	3188
924.633	3253
924.741	4230
924.849	3062
924.956	3264
925.064	3112
925.172	3055
925.279	3077
925.387	3211
925.494	3237
925.602	3351
925.709	3321
925.816	3245
925.924	3298
926.031	3389
926.138	3378
926.245	3416
926.352	3275
926.459	3450
926.566	3526
926.673	3348
926.779	3275
926.886	3260
926.993	3188
927.099	3108
927.206	3150
927.312	3131
927.419	3214
927.525	3211
927.631	3306
927.737	3123
927.843	3165
927.95	3066
928.056	3165
928.162	3214
928.267	3256
928.373	3797
928.479	3332
928.585	3055
928.69	3211
928.796	3302
928.901	3184
929.007	3039
929.112	3226
929.218	3237
929.323	3150
929.428	3123
929.533	3344
929.638	3142
929.743	3173
929.848	3260
929.953	3222
930.058	3169
930.163	3013
930.267	3100
930.372	3207
930.477	3097
930.581	3325
930.685	3192
930.79	3070
930.894	3123
930.998	3112
931.103	3294
931.207	2960
931.311	2990
931.415	2975
931.519	2781
931.623	2842
