Data from test_V78500241_1274.txt Node
Date: Fri Mar 25 16:24:01 CST 2022
User: usil
Spectrometer: V785-0024
Trigger mode: 0
Integration Time (sec): 4.000000E-1
Scans to average: 1
Nonlinearity correction enabled: false
Boxcar width: 0
Storing dark spectrum: false
XAxis mode: Wavelengths
Number of Pixels in Spectrum: 1024
>>>>>Begin Spectral Data<<<<<
801.071	2861
801.214	2925
801.356	2883
801.499	2914
801.641	2838
801.783	2914
801.926	3013
802.068	2960
802.211	3013
802.353	3024
802.496	2971
802.638	3017
802.78	3020
802.923	3055
803.065	2990
803.208	2891
803.35	2891
803.492	2937
803.635	2922
803.777	2754
803.919	2864
804.061	3180
804.204	2937
804.346	2876
804.488	2830
804.63	2952
804.773	2842
804.915	2906
805.057	3089
805.199	2895
805.341	2963
805.483	3024
805.626	2982
805.768	2952
805.91	3077
806.052	3123
806.194	3020
806.336	3192
806.478	2990
806.62	2948
806.762	2979
806.904	3036
807.046	3180
807.188	2971
807.33	2910
807.472	2975
807.614	2941
807.756	2967
807.898	2937
808.04	2902
808.182	2944
808.324	2960
808.465	2883
808.607	2876
808.749	2773
808.891	2830
809.033	2944
809.174	2982
809.316	2857
809.458	2872
809.6	2762
809.741	2762
809.883	2735
810.025	2838
810.166	2872
810.308	2815
810.45	2834
810.591	2762
810.733	2758
810.875	2857
811.016	2762
811.158	2746
811.299	2785
811.441	2929
811.582	2887
811.724	2830
811.865	2826
812.007	2895
812.148	2918
812.29	2853
812.431	2872
812.573	2922
812.714	2982
812.855	3074
812.997	3005
813.138	3161
813.279	2994
813.421	2986
813.562	2899
813.703	2883
813.845	2864
813.986	2800
814.127	2769
814.268	2785
814.41	2830
814.551	2823
814.692	2838
814.833	2857
814.974	2853
815.115	2952
815.256	2834
815.397	2823
815.539	2864
815.68	2754
815.821	2788
815.962	2948
816.103	2929
816.244	2868
816.385	2872
816.526	2933
816.666	2891
816.807	2750
816.948	2872
817.089	2922
817.23	2838
817.371	2796
817.512	2773
817.653	2834
817.793	2838
817.934	2880
818.075	2967
818.216	2986
818.356	3013
818.497	2895
818.638	2758
818.778	2811
818.919	2792
819.06	2750
819.2	2849
819.341	2804
819.481	2796
819.622	2910
819.762	3024
819.903	3077
820.043	2895
820.184	2902
820.324	2857
820.465	2990
820.605	3024
820.746	3028
820.886	2944
821.026	3062
821.167	3119
821.307	3211
821.447	3264
821.588	3211
821.728	3173
821.868	3157
822.008	3024
822.149	3203
822.289	3180
822.429	3066
822.569	3043
822.709	3218
822.849	3036
822.99	3028
823.13	3127
823.27	3188
823.41	3127
823.55	3142
823.69	3104
823.83	3165
823.97	3131
824.11	2986
824.25	2967
824.389	3093
824.529	3123
824.669	3047
824.809	3188
824.949	3241
825.089	3233
825.228	3176
825.368	3013
825.508	2960
825.648	2963
825.787	3020
825.927	2982
826.067	2971
826.206	2937
826.346	3051
826.485	3081
826.625	3085
826.765	3226
826.904	3222
827.044	2979
827.183	2948
827.323	2861
827.462	3005
827.601	2971
827.741	2952
827.88	2956
828.02	2872
828.159	3024
828.298	3024
828.437	3104
828.577	3036
828.716	3256
828.855	3097
828.994	2937
829.134	2944
829.273	2948
829.412	2906
829.551	2872
829.69	2944
829.829	3036
829.968	3169
830.107	3051
830.246	3074
830.385	2910
830.524	2883
830.663	2864
830.802	2800
830.941	2686
831.08	2674
831.219	2815
831.357	2800
831.496	2979
831.635	2739
831.774	2678
831.913	2705
832.051	2583
832.19	2625
832.329	2731
832.467	2560
832.606	2537
832.744	2640
832.883	2629
833.022	2606
833.16	2689
833.299	2743
833.437	2754
833.576	2727
833.714	2735
833.852	2781
833.991	2823
834.129	2857
834.267	2868
834.406	2826
834.544	2887
834.682	2918
834.821	2925
834.959	3104
835.097	2922
835.235	3081
835.373	3036
835.511	3047
835.65	3005
835.788	3001
835.926	2868
836.064	2872
836.202	2857
836.34	3131
836.478	3165
836.615	3131
836.753	3184
836.891	3188
837.029	3176
837.167	3192
837.305	3108
837.443	3116
837.58	3028
837.718	3150
837.856	3077
837.993	3070
838.131	3188
838.269	3138
838.406	3089
838.544	3127
838.681	2975
838.819	2963
838.956	2845
839.094	2857
839.231	2941
839.369	3058
839.506	3416
839.643	3253
839.781	3074
839.918	2971
840.055	3066
840.193	3062
840.33	3074
840.467	3180
840.604	3157
840.742	3405
840.879	3047
841.016	3081
841.153	3157
841.29	3359
841.427	3313
841.564	3275
841.701	3317
841.838	3222
841.975	3203
842.112	3256
842.249	3116
842.385	3036
842.522	3260
842.659	3108
842.796	3123
842.933	3127
843.069	3085
843.206	3066
843.343	3226
843.479	3131
843.616	3176
843.752	2941
843.889	2906
844.025	3085
844.162	2929
844.298	3127
844.435	2956
844.571	2982
844.708	3112
844.844	3249
844.98	3264
845.117	3230
845.253	3047
845.389	3051
845.525	3131
845.661	3150
845.798	3055
845.934	3138
846.07	3104
846.206	3260
846.342	3378
846.478	3256
846.614	3119
846.75	3077
846.886	3077
847.022	3275
847.158	3154
847.294	3214
847.429	3241
847.565	3214
847.701	3515
847.837	3074
847.972	3070
848.108	3214
848.244	3146
848.379	3036
848.515	2963
848.65	2956
848.786	2990
848.921	3028
849.057	3131
849.192	3207
849.328	3100
849.463	3142
849.598	3066
849.734	3051
849.869	3005
850.004	2914
850.14	3009
850.275	2944
850.41	2842
850.545	2910
850.68	2963
850.815	2960
850.95	2982
851.085	3199
851.22	3135
851.355	3062
851.49	2990
851.625	3039
851.76	3074
851.895	2971
852.03	2944
852.165	3055
852.299	3138
852.434	3195
852.569	3173
852.703	3199
852.838	3272
852.973	3332
853.107	3355
853.242	3188
853.376	3108
853.511	3001
853.645	3055
853.78	3294
853.914	3131
854.048	3150
854.183	3135
854.317	3146
854.451	3321
854.585	3142
854.72	3123
854.854	3207
854.988	3097
855.122	3100
855.256	3001
855.39	3135
855.524	3249
855.658	3203
855.792	3165
855.926	3218
856.06	3272
856.194	3249
856.327	3188
856.461	3066
856.595	3131
856.729	3150
856.862	3253
856.996	3180
857.13	3253
857.263	3264
857.397	3298
857.53	3150
857.664	3230
857.797	3313
857.931	3283
858.064	3173
858.197	3245
858.331	3142
858.464	3089
858.597	3039
858.731	3165
858.864	3142
858.997	3150
859.13	3207
859.263	3199
859.396	3241
859.529	3085
859.662	3055
859.795	3100
859.928	3161
860.061	3298
860.194	3321
860.327	3180
860.46	3070
860.592	3306
860.725	3249
860.858	3275
860.99	3119
861.123	3081
861.256	3020
861.388	3142
861.521	3740
861.653	3036
861.786	3013
861.918	3024
862.05	3051
862.183	3173
862.315	3184
862.447	3230
862.58	3116
862.712	2956
862.844	2880
862.976	3017
863.108	3047
863.24	3325
863.372	2910
863.504	2998
863.636	2979
863.768	3066
863.9	3001
864.032	2941
864.164	2960
864.296	3024
864.428	3085
864.559	3131
864.691	3112
864.823	3093
864.954	3017
865.086	3081
865.217	2986
865.349	2925
865.48	2998
865.612	3043
865.743	3195
865.875	3009
866.006	2944
866.137	2982
866.269	2986
866.4	2948
866.531	2967
866.662	2922
866.793	2937
866.924	2880
867.055	2941
867.186	2952
867.317	2899
867.448	2883
867.579	2880
867.71	2872
867.841	2842
867.972	2952
868.103	2937
868.233	2876
868.364	2929
868.495	2925
868.625	3093
868.756	3173
868.886	2986
869.017	3013
869.147	3173
869.278	3188
869.408	3043
869.539	2994
869.669	3089
869.799	3116
869.929	3135
870.06	3131
870.19	3336
870.32	3313
870.45	3317
870.58	3405
870.71	3450
870.84	3477
870.97	3283
871.1	3222
871.23	3477
871.36	3496
871.489	3363
871.619	3416
871.749	3431
871.879	3454
872.008	3485
872.138	3393
872.267	3291
872.397	3146
872.526	3127
872.656	3051
872.785	3119
872.915	3245
873.044	3306
873.173	3249
873.303	3275
873.432	3264
873.561	3249
873.69	3199
873.819	3173
873.948	3222
874.077	3100
874.206	3070
874.335	3135
874.464	3291
874.593	3378
874.722	3279
874.851	3359
874.979	3386
875.108	3355
875.237	3237
875.365	3207
875.494	3188
875.623	3253
875.751	3089
875.88	3138
876.008	3195
876.136	3214
876.265	3416
876.393	3519
876.521	3450
876.65	3401
876.778	3313
876.906	3253
877.034	3230
877.162	3245
877.29	3199
877.418	3287
877.546	3260
877.674	3237
877.802	3249
877.93	3249
878.058	3192
878.185	3135
878.313	3165
878.441	3222
878.568	3074
878.696	3123
878.824	3233
878.951	3340
879.079	3492
879.206	3652
879.333	3443
879.461	3313
879.588	3401
879.715	3477
879.842	3614
879.97	3382
880.097	3207
880.224	3138
880.351	3161
880.478	3203
880.605	3249
880.732	3169
880.859	3500
880.986	3325
881.112	3302
881.239	3230
881.366	3123
881.493	3066
881.619	3043
881.746	3070
881.872	3138
881.999	3119
882.125	3116
882.252	3245
882.378	3310
882.505	3420
882.631	3260
882.757	3157
882.883	3195
883.01	3241
883.136	3169
883.262	3123
883.388	3135
883.514	3351
883.64	3378
883.766	3321
883.892	3214
884.018	3226
884.143	3420
884.269	3530
884.395	3199
884.52	3192
884.646	3184
884.772	3157
884.897	3150
885.023	3230
885.148	3332
885.274	3447
885.399	3405
885.524	3264
885.65	3283
885.775	3321
885.9	3344
886.025	3431
886.15	3370
886.275	3294
886.4	3214
886.525	3313
886.65	3294
886.775	3283
886.9	3515
887.025	3622
887.149	3409
887.274	3279
887.399	3207
887.523	3207
887.648	3180
887.773	3207
887.897	3382
888.021	3401
888.146	3298
888.27	3458
888.395	3549
888.519	3447
888.643	3462
888.767	3485
888.891	3344
889.015	3275
889.139	3294
889.263	3264
889.387	3382
889.511	3561
889.635	3431
889.759	3291
889.883	3294
890.006	3370
890.13	3557
890.254	3264
890.377	3321
890.501	3203
890.624	3199
890.748	3291
890.871	3199
890.995	3123
891.118	3074
891.241	3184
891.364	3192
891.488	3313
891.611	3188
891.734	3226
891.857	3302
891.98	3268
892.103	3321
892.226	3241
892.349	3218
892.471	3119
892.594	3275
892.717	3313
892.839	3298
892.962	3329
893.085	3344
893.207	3287
893.33	3176
893.452	3256
893.575	3317
893.697	3279
893.819	3462
893.941	3454
894.064	3447
894.186	3291
894.308	3264
894.43	3458
894.552	3530
894.674	3492
894.796	3321
894.918	3298
895.04	3310
895.161	3424
895.283	3409
895.405	3306
895.526	3397
895.648	3409
895.769	3428
895.891	3435
896.012	3507
896.134	3469
896.255	3443
896.376	3409
896.498	3363
896.619	3420
896.74	3393
896.861	3420
896.982	3663
897.103	3789
897.224	3614
897.345	3523
897.466	3420
897.587	3496
897.708	3618
897.828	3538
897.949	3473
898.07	3370
898.19	3401
898.311	3591
898.431	3477
898.552	3526
898.672	3603
898.792	3580
898.913	3538
899.033	3431
899.153	3302
899.273	3211
899.393	3298
899.513	3317
899.633	3321
899.753	3344
899.873	3294
899.993	3401
900.113	3393
900.232	3420
900.352	3374
900.472	3306
900.591	3230
900.711	3340
900.83	3279
900.95	3431
901.069	3500
901.189	3386
901.308	3142
901.427	3119
901.546	3192
901.665	3287
901.784	3348
901.904	3199
902.023	3108
902.141	3039
902.26	2982
902.379	3157
902.498	3039
902.617	3089
902.735	3218
902.854	3245
902.973	3249
903.091	3017
903.21	3081
903.328	3146
903.446	3138
903.565	3116
903.683	3218
903.801	3131
903.919	3291
904.038	3306
904.156	3195
904.274	3287
904.392	3245
904.51	3226
904.627	3340
904.745	3458
904.863	3500
904.981	3264
905.098	3176
905.216	3256
905.334	3275
905.451	3298
905.569	3291
905.686	3401
905.803	3458
905.921	3287
906.038	3409
906.155	3367
906.272	3275
906.389	3363
906.506	3249
906.623	3268
906.74	3264
906.857	3218
906.974	3245
907.091	3488
907.208	3595
907.324	3458
907.441	3386
907.557	3237
907.674	3241
907.79	3222
907.907	3272
908.023	3412
908.139	3386
908.256	3348
908.372	3348
908.488	3344
908.604	3272
908.72	3226
908.836	3279
908.952	3291
909.068	3348
909.184	3504
909.3	3363
909.415	3515
909.531	3473
909.647	3302
909.762	3306
909.878	3287
909.993	3378
910.108	3332
910.224	3363
910.339	3401
910.454	3359
910.57	3332
910.685	3241
910.8	3580
910.915	3511
911.03	3450
911.145	3241
911.259	3291
911.374	3317
911.489	3260
911.604	3253
911.718	3123
911.833	3157
911.947	3047
912.062	2967
912.176	3184
912.291	3150
912.405	3195
912.519	3409
912.633	3477
912.748	3310
912.862	3237
912.976	3154
913.09	3066
913.204	3146
913.318	3218
913.431	3363
913.545	3340
913.659	3374
913.772	3332
913.886	3211
914	3249
914.113	3389
914.226	3401
914.34	3405
914.453	3222
914.566	3405
914.68	3294
914.793	3329
914.906	3116
915.019	3119
915.132	3055
915.245	3173
915.358	3199
915.47	3256
915.583	3268
915.696	3287
915.809	3412
915.921	3409
916.034	3268
916.146	3268
916.259	3241
916.371	3409
916.483	3310
916.595	3268
916.708	3329
916.82	3329
916.932	3340
917.044	3370
917.156	3344
917.268	3241
917.38	3317
917.491	3275
917.603	3363
917.715	3447
917.826	3481
917.938	3378
918.049	3260
918.161	3412
918.272	3614
918.384	3557
918.495	3511
918.606	3359
918.717	3279
918.828	3378
918.939	3370
919.05	3253
919.161	3374
919.272	3199
919.383	3241
919.494	3477
919.604	3682
919.715	3485
919.826	3428
919.936	3447
920.047	3534
920.157	3580
920.267	3724
920.378	3656
920.488	3561
920.598	3804
920.708	3964
920.818	3865
920.928	3846
921.038	4040
921.148	4021
921.258	3720
921.368	3622
921.477	3568
921.587	3523
921.697	3473
921.806	3637
921.916	3549
922.025	3351
922.134	3386
922.244	3374
922.353	3435
922.462	3245
922.571	3260
922.68	3062
922.789	3051
922.898	3142
923.007	3116
923.116	3214
923.224	3135
923.333	3188
923.442	3093
923.55	3116
923.659	3142
923.767	3241
923.876	3097
923.984	3245
924.092	3108
924.201	3230
924.309	3188
924.417	3245
924.525	3176
924.633	3260
924.741	4032
924.849	3020
924.956	3272
925.064	3119
925.172	3036
925.279	3112
925.387	3226
925.494	3245
925.602	3367
925.709	3351
925.816	3226
925.924	3298
926.031	3359
926.138	3317
926.245	3332
926.352	3230
926.459	3409
926.566	3477
926.673	3329
926.779	3214
926.886	3237
926.993	3142
927.099	3150
927.206	3116
927.312	3097
927.419	3264
927.525	3184
927.631	3268
927.737	3146
927.843	3077
927.95	3047
928.056	3127
928.162	3176
928.267	3249
928.373	3846
928.479	3325
928.585	3070
928.69	3214
928.796	3268
928.901	3199
929.007	3047
929.112	3184
929.218	3184
929.323	3123
929.428	3154
929.533	3344
929.638	3127
929.743	3176
929.848	3222
929.953	3180
930.058	3154
930.163	2998
930.267	3020
930.372	3233
930.477	3047
930.581	3332
930.685	3169
930.79	3070
930.894	3138
930.998	3093
931.103	3264
931.207	2944
931.311	2925
931.415	2922
931.519	2823
931.623	2845
