Data from test_V78500241_1303.txt Node
Date: Fri Mar 25 16:24:13 CST 2022
User: usil
Spectrometer: V785-0024
Trigger mode: 0
Integration Time (sec): 4.000000E-1
Scans to average: 1
Nonlinearity correction enabled: false
Boxcar width: 0
Storing dark spectrum: false
XAxis mode: Wavelengths
Number of Pixels in Spectrum: 1024
>>>>>Begin Spectral Data<<<<<
801.071	2899
801.214	2948
801.356	2887
801.499	2925
801.641	2868
801.783	2960
801.926	3043
802.068	2941
802.211	3017
802.353	3001
802.496	2952
802.638	3017
802.78	3032
802.923	3055
803.065	2998
803.208	2872
803.35	2902
803.492	2918
803.635	2891
803.777	2743
803.919	2857
804.061	3173
804.204	2952
804.346	2906
804.488	2830
804.63	2944
804.773	2914
804.915	2883
805.057	3051
805.199	2948
805.341	2952
805.483	2998
805.626	2975
805.768	2925
805.91	3032
806.052	3116
806.194	3036
806.336	3241
806.478	3020
806.62	2910
806.762	2990
806.904	3036
807.046	3161
807.188	2941
807.33	2922
807.472	2990
807.614	2906
807.756	2986
807.898	2906
808.04	2887
808.182	2975
808.324	2922
808.465	2876
808.607	2857
808.749	2792
808.891	2834
809.033	2986
809.174	2960
809.316	2883
809.458	2861
809.6	2773
809.741	2777
809.883	2781
810.025	2826
810.166	2830
810.308	2864
810.45	2853
810.591	2807
810.733	2754
810.875	2838
811.016	2788
811.158	2773
811.299	2781
811.441	2891
811.582	2883
811.724	2807
811.865	2842
812.007	2887
812.148	2883
812.29	2826
812.431	2887
812.573	2971
812.714	2975
812.855	3036
812.997	3058
813.138	3112
813.279	3017
813.421	3009
813.562	2944
813.703	2876
813.845	2853
813.986	2743
814.127	2727
814.268	2826
814.41	2853
814.551	2766
814.692	2895
814.833	2815
814.974	2891
815.115	2922
815.256	2864
815.397	2819
815.539	2834
815.68	2754
815.821	2792
815.962	2933
816.103	2910
816.244	2880
816.385	2868
816.526	2944
816.666	2895
816.807	2758
816.948	2914
817.089	2925
817.23	2823
817.371	2769
817.512	2788
817.653	2807
817.793	2811
817.934	2899
818.075	2990
818.216	2979
818.356	3028
818.497	2876
818.638	2773
818.778	2811
818.919	2796
819.06	2762
819.2	2857
819.341	2800
819.481	2834
819.622	2910
819.762	3097
819.903	3058
820.043	2937
820.184	2876
820.324	2922
820.465	3009
820.605	2986
820.746	3017
820.886	2922
821.026	3062
821.167	3165
821.307	3253
821.447	3298
821.588	3233
821.728	3146
821.868	3207
822.008	3051
822.149	3154
822.289	3218
822.429	3081
822.569	3070
822.709	3192
822.849	2986
822.99	3074
823.13	3146
823.27	3245
823.41	3066
823.55	3184
823.69	3150
823.83	3154
823.97	3089
824.11	2994
824.25	3005
824.389	3062
824.529	3112
824.669	3100
824.809	3207
824.949	3203
825.089	3207
825.228	3119
825.368	2998
825.508	2937
825.648	2963
825.787	2998
825.927	2986
826.067	2960
826.206	2960
826.346	3047
826.485	3074
826.625	3131
826.765	3214
826.904	3211
827.044	2994
827.183	2906
827.323	2872
827.462	2956
827.601	2922
827.741	2922
827.88	2941
828.02	2830
828.159	2979
828.298	3013
828.437	3074
828.577	3039
828.716	3211
828.855	3077
828.994	2887
829.134	2895
829.273	2876
829.412	2883
829.551	2861
829.69	2887
829.829	2979
829.968	3100
830.107	3009
830.246	3028
830.385	2906
830.524	2845
830.663	2796
830.802	2720
830.941	2621
831.08	2625
831.219	2735
831.357	2773
831.496	2929
831.635	2735
831.774	2644
831.913	2625
832.051	2537
832.19	2606
832.329	2644
832.467	2526
832.606	2492
832.744	2537
832.883	2564
833.022	2568
833.16	2644
833.299	2701
833.437	2701
833.576	2693
833.714	2735
833.852	2743
833.991	2766
834.129	2819
834.267	2849
834.406	2773
834.544	2857
834.682	2880
834.821	2819
834.959	3028
835.097	2910
835.235	3047
835.373	2979
835.511	2975
835.65	2933
835.788	2948
835.926	2804
836.064	2785
836.202	2842
836.34	3085
836.478	3119
836.615	3047
836.753	3093
836.891	3195
837.029	3184
837.167	3104
837.305	3085
837.443	3020
837.58	2982
837.718	3085
837.856	3058
837.993	2994
838.131	3127
838.269	3097
838.406	3085
838.544	3051
838.681	2941
838.819	2906
838.956	2830
839.094	2823
839.231	2899
839.369	3001
839.506	3355
839.643	3230
839.781	2967
839.918	2918
840.055	3028
840.193	3036
840.33	3074
840.467	3062
840.604	3165
840.742	3389
840.879	3020
841.016	3013
841.153	3062
841.29	3332
841.427	3272
841.564	3264
841.701	3321
841.838	3184
841.975	3161
842.112	3169
842.249	3070
842.385	3017
842.522	3249
842.659	3108
842.796	3062
842.933	3070
843.069	3005
843.206	3013
843.343	3142
843.479	3085
843.616	3135
843.752	2872
843.889	2857
844.025	3062
844.162	2887
844.298	3058
844.435	2941
844.571	2937
844.708	3100
844.844	3184
844.98	3199
845.117	3135
845.253	3051
845.389	3013
845.525	3131
845.661	3131
845.798	3017
845.934	3123
846.07	3024
846.206	3214
846.342	3287
846.478	3214
846.614	3051
846.75	3024
846.886	3009
847.022	3298
847.158	3119
847.294	3207
847.429	3241
847.565	3195
847.701	3447
847.837	3055
847.972	2979
848.108	3146
848.244	3142
848.379	3005
848.515	2941
848.65	2918
848.786	2941
848.921	3005
849.057	3119
849.192	3161
849.328	3085
849.463	3085
849.598	3036
849.734	3043
849.869	2952
850.004	2910
850.14	2975
850.275	2937
850.41	2830
850.545	2864
850.68	2918
850.815	2944
850.95	2967
851.085	3188
851.22	3081
851.355	3024
851.49	3009
851.625	3005
851.76	3013
851.895	2929
852.03	2952
852.165	3020
852.299	3138
852.434	3169
852.569	3108
852.703	3192
852.838	3256
852.973	3313
853.107	3310
853.242	3154
853.376	3104
853.511	2986
853.645	3028
853.78	3230
853.914	3074
854.048	3077
854.183	3081
854.317	3142
854.451	3317
854.585	3119
854.72	3058
854.854	3180
854.988	3062
855.122	3108
855.256	2967
855.39	3131
855.524	3218
855.658	3176
855.792	3142
855.926	3176
856.06	3214
856.194	3256
856.327	3135
856.461	3070
856.595	3062
856.729	3104
856.862	3203
856.996	3135
857.13	3218
857.263	3230
857.397	3241
857.53	3093
857.664	3173
857.797	3199
857.931	3226
858.064	3169
858.197	3199
858.331	3112
858.464	3100
858.597	2975
858.731	3077
858.864	3123
858.997	3100
859.13	3138
859.263	3176
859.396	3169
859.529	3070
859.662	3062
859.795	3062
859.928	3104
860.061	3253
860.194	3287
860.327	3116
860.46	3051
860.592	3218
860.725	3222
860.858	3264
860.99	3074
861.123	3043
861.256	3043
861.388	3123
861.521	3675
861.653	3005
861.786	2998
861.918	3001
862.05	3028
862.183	3100
862.315	3150
862.447	3135
862.58	3123
862.712	2952
862.844	2849
862.976	3017
863.108	2971
863.24	3283
863.372	2834
863.504	2914
863.636	2948
863.768	3005
863.9	2933
864.032	2910
864.164	2944
864.296	3001
864.428	3066
864.559	3074
864.691	3074
864.823	3085
864.954	3047
865.086	3032
865.217	2986
865.349	2971
865.48	2948
865.612	2971
865.743	3116
865.875	2975
866.006	2944
866.137	2956
866.269	2971
866.4	2963
866.531	2941
866.662	2861
866.793	2910
866.924	2891
867.055	2960
867.186	2952
867.317	2861
867.448	2849
867.579	2849
867.71	2864
867.841	2811
867.972	2937
868.103	2883
868.233	2899
868.364	2895
868.495	2883
868.625	3093
868.756	3195
868.886	2967
869.017	3013
869.147	3173
869.278	3150
869.408	3066
869.539	3047
869.669	3119
869.799	3085
869.929	3154
870.06	3093
870.19	3329
870.32	3329
870.45	3321
870.58	3420
870.71	3500
870.84	3431
870.97	3336
871.1	3279
871.23	3549
871.36	3469
871.489	3397
871.619	3466
871.749	3443
871.879	3447
872.008	3496
872.138	3393
872.267	3340
872.397	3195
872.526	3123
872.656	3066
872.785	3135
872.915	3249
873.044	3374
873.173	3275
873.303	3264
873.432	3260
873.561	3272
873.69	3199
873.819	3180
873.948	3237
874.077	3150
874.206	3051
874.335	3116
874.464	3233
874.593	3412
874.722	3256
874.851	3378
874.979	3389
875.108	3344
875.237	3245
875.365	3192
875.494	3176
875.623	3241
875.751	3100
875.88	3157
876.008	3192
876.136	3253
876.265	3405
876.393	3557
876.521	3412
876.65	3412
876.778	3336
876.906	3268
877.034	3249
877.162	3283
877.29	3180
877.418	3302
877.546	3272
877.674	3313
877.802	3264
877.93	3302
878.058	3165
878.185	3150
878.313	3218
878.441	3241
878.568	3119
878.696	3176
878.824	3321
878.951	3359
879.079	3504
879.206	3663
879.333	3485
879.461	3359
879.588	3359
879.715	3477
879.842	3644
879.97	3397
880.097	3180
880.224	3138
880.351	3218
880.478	3249
880.605	3268
880.732	3226
880.859	3481
880.986	3306
881.112	3382
881.239	3203
881.366	3116
881.493	3066
881.619	3028
881.746	3081
881.872	3150
881.999	3093
882.125	3207
882.252	3275
882.378	3317
882.505	3485
882.631	3275
882.757	3176
882.883	3222
883.01	3214
883.136	3211
883.262	3112
883.388	3154
883.514	3348
883.64	3416
883.766	3329
883.892	3199
884.018	3253
884.143	3458
884.269	3561
884.395	3169
884.52	3184
884.646	3214
884.772	3146
884.897	3154
885.023	3192
885.148	3359
885.274	3443
885.399	3409
885.524	3272
885.65	3317
885.775	3344
885.9	3298
886.025	3439
886.15	3382
886.275	3321
886.4	3249
886.525	3321
886.65	3306
886.775	3313
886.9	3500
887.025	3625
887.149	3447
887.274	3287
887.399	3199
887.523	3218
887.648	3218
887.773	3218
887.897	3348
888.021	3412
888.146	3332
888.27	3454
888.395	3584
888.519	3450
888.643	3401
888.767	3477
888.891	3340
889.015	3287
889.139	3306
889.263	3245
889.387	3405
889.511	3564
889.635	3428
889.759	3348
889.883	3336
890.006	3386
890.13	3496
890.254	3306
890.377	3367
890.501	3226
890.624	3199
890.748	3325
890.871	3253
890.995	3161
891.118	3089
891.241	3233
891.364	3272
891.488	3325
891.611	3173
891.734	3260
891.857	3291
891.98	3253
892.103	3355
892.226	3310
892.349	3237
892.471	3131
892.594	3294
892.717	3336
892.839	3291
892.962	3321
893.085	3397
893.207	3329
893.33	3154
893.452	3207
893.575	3382
893.697	3256
893.819	3507
893.941	3530
894.064	3549
894.186	3332
894.308	3310
894.43	3447
894.552	3587
894.674	3485
894.796	3279
894.918	3359
895.04	3283
895.161	3424
895.283	3374
895.405	3340
895.526	3416
895.648	3458
895.769	3424
895.891	3469
896.012	3530
896.134	3477
896.255	3466
896.376	3424
896.498	3367
896.619	3443
896.74	3386
896.861	3466
896.982	3713
897.103	3892
897.224	3633
897.345	3523
897.466	3420
897.587	3485
897.708	3622
897.828	3603
897.949	3443
898.07	3386
898.19	3443
898.311	3633
898.431	3439
898.552	3545
898.672	3606
898.792	3587
898.913	3564
899.033	3443
899.153	3329
899.273	3233
899.393	3317
899.513	3359
899.633	3359
899.753	3386
899.873	3359
899.993	3450
900.113	3344
900.232	3424
900.352	3332
900.472	3306
900.591	3233
900.711	3321
900.83	3230
900.95	3405
901.069	3519
901.189	3401
901.308	3207
901.427	3173
901.546	3237
901.665	3317
901.784	3332
901.904	3237
902.023	3123
902.141	3074
902.26	3032
902.379	3157
902.498	3066
902.617	3070
902.735	3207
902.854	3237
902.973	3192
903.091	3066
903.21	3062
903.328	3161
903.446	3161
903.565	3131
903.683	3218
903.801	3142
903.919	3264
904.038	3344
904.156	3184
904.274	3291
904.392	3268
904.51	3279
904.627	3363
904.745	3500
904.863	3492
904.981	3283
905.098	3180
905.216	3253
905.334	3302
905.451	3329
905.569	3355
905.686	3481
905.803	3469
905.921	3351
906.038	3458
906.155	3317
906.272	3306
906.389	3397
906.506	3241
906.623	3294
906.74	3325
906.857	3203
906.974	3291
907.091	3412
907.208	3557
907.324	3504
907.441	3435
907.557	3245
907.674	3268
907.79	3275
907.907	3329
908.023	3393
908.139	3401
908.256	3386
908.372	3420
908.488	3332
908.604	3268
908.72	3275
908.836	3313
908.952	3291
909.068	3351
909.184	3481
909.3	3382
909.415	3504
909.531	3485
909.647	3287
909.762	3287
909.878	3279
909.993	3409
910.108	3336
910.224	3336
910.339	3431
910.454	3336
910.57	3310
910.685	3287
910.8	3625
910.915	3568
911.03	3447
911.145	3287
911.259	3298
911.374	3351
911.489	3245
911.604	3233
911.718	3150
911.833	3188
911.947	3051
912.062	3024
912.176	3222
912.291	3180
912.405	3214
912.519	3477
912.633	3477
912.748	3355
912.862	3279
912.976	3199
913.09	3081
913.204	3150
913.318	3253
913.431	3367
913.545	3332
913.659	3435
913.772	3336
913.886	3241
914	3237
914.113	3348
914.226	3443
914.34	3374
914.453	3233
914.566	3431
914.68	3332
914.793	3336
914.906	3135
915.019	3161
915.132	3104
915.245	3184
915.358	3275
915.47	3230
915.583	3272
915.696	3310
915.809	3420
915.921	3447
916.034	3230
916.146	3260
916.259	3253
916.371	3405
916.483	3424
916.595	3294
916.708	3367
916.82	3340
916.932	3298
917.044	3397
917.156	3374
917.268	3279
917.38	3291
917.491	3256
917.603	3386
917.715	3439
917.826	3450
917.938	3397
918.049	3283
918.161	3412
918.272	3580
918.384	3576
918.495	3469
918.606	3355
918.717	3294
918.828	3355
918.939	3409
919.05	3336
919.161	3374
919.272	3188
919.383	3291
919.494	3507
919.604	3724
919.715	3542
919.826	3397
919.936	3492
920.047	3603
920.157	3538
920.267	3831
920.378	3603
920.488	3568
920.598	3800
920.708	3934
920.818	3827
920.928	3869
921.038	4051
921.148	4017
921.258	3717
921.368	3629
921.477	3603
921.587	3534
921.697	3462
921.806	3633
921.916	3564
922.025	3401
922.134	3382
922.244	3306
922.353	3458
922.462	3237
922.571	3253
922.68	3119
922.789	3089
922.898	3154
923.007	3104
923.116	3199
923.224	3173
923.333	3169
923.442	3123
923.55	3085
923.659	3119
923.767	3245
923.876	3138
923.984	3241
924.092	3116
924.201	3218
924.309	3241
924.417	3241
924.525	3218
924.633	3260
924.741	4029
924.849	3085
924.956	3275
925.064	3104
925.172	3005
925.279	3119
925.387	3222
925.494	3233
925.602	3367
925.709	3321
925.816	3188
925.924	3283
926.031	3348
926.138	3325
926.245	3401
926.352	3222
926.459	3466
926.566	3507
926.673	3332
926.779	3233
926.886	3245
926.993	3142
927.099	3127
927.206	3131
927.312	3135
927.419	3241
927.525	3214
927.631	3291
927.737	3135
927.843	3146
927.95	3032
928.056	3146
928.162	3195
928.267	3279
928.373	3842
928.479	3329
928.585	3058
928.69	3214
928.796	3310
928.901	3165
929.007	3013
929.112	3184
929.218	3184
929.323	3169
929.428	3150
929.533	3291
929.638	3093
929.743	3180
929.848	3249
929.953	3218
930.058	3161
930.163	2975
930.267	3047
930.372	3207
930.477	3070
930.581	3321
930.685	3180
930.79	3074
930.894	3142
930.998	3104
931.103	3298
931.207	2971
931.311	2975
931.415	2910
931.519	2766
931.623	2834
