Data from test_V78500241_848.txt Node
Date: Fri Mar 25 16:21:04 CST 2022
User: usil
Spectrometer: V785-0024
Trigger mode: 0
Integration Time (sec): 4.000000E-1
Scans to average: 1
Nonlinearity correction enabled: false
Boxcar width: 0
Storing dark spectrum: false
XAxis mode: Wavelengths
Number of Pixels in Spectrum: 1024
>>>>>Begin Spectral Data<<<<<
801.071	2914
801.214	2956
801.356	2902
801.499	2891
801.641	2872
801.783	2937
801.926	2998
802.068	2979
802.211	2986
802.353	3001
802.496	2963
802.638	3017
802.78	3028
802.923	3070
803.065	3020
803.208	2918
803.35	2861
803.492	2922
803.635	2906
803.777	2754
803.919	2857
804.061	3199
804.204	2910
804.346	2910
804.488	2807
804.63	2963
804.773	2861
804.915	2918
805.057	3093
805.199	2922
805.341	2994
805.483	3032
805.626	2982
805.768	2933
805.91	3062
806.052	3108
806.194	2982
806.336	3207
806.478	3036
806.62	2937
806.762	2979
806.904	3055
807.046	3157
807.188	3001
807.33	2902
807.472	2971
807.614	2922
807.756	2963
807.898	2906
808.04	2906
808.182	3020
808.324	2956
808.465	2853
808.607	2834
808.749	2792
808.891	2842
809.033	3036
809.174	2933
809.316	2872
809.458	2880
809.6	2785
809.741	2762
809.883	2762
810.025	2845
810.166	2891
810.308	2800
810.45	2842
810.591	2762
810.733	2766
810.875	2819
811.016	2773
811.158	2739
811.299	2800
811.441	2941
811.582	2902
811.724	2811
811.865	2853
812.007	2914
812.148	2842
812.29	2842
812.431	2918
812.573	2895
812.714	2971
812.855	3043
812.997	3043
813.138	3097
813.279	3024
813.421	2956
813.562	2952
813.703	2845
813.845	2861
813.986	2777
814.127	2735
814.268	2807
814.41	2857
814.551	2807
814.692	2891
814.833	2830
814.974	2868
815.115	2937
815.256	2819
815.397	2804
815.539	2834
815.68	2777
815.821	2800
815.962	2948
816.103	2918
816.244	2887
816.385	2826
816.526	2963
816.666	2906
816.807	2743
816.948	2864
817.089	2925
817.23	2883
817.371	2777
817.512	2807
817.653	2876
817.793	2811
817.934	2861
818.075	2960
818.216	2982
818.356	3039
818.497	2891
818.638	2796
818.778	2800
818.919	2815
819.06	2720
819.2	2876
819.341	2785
819.481	2826
819.622	2944
819.762	3100
819.903	3043
820.043	2902
820.184	2868
820.324	2906
820.465	3017
820.605	2986
820.746	3017
820.886	2960
821.026	3066
821.167	3150
821.307	3272
821.447	3294
821.588	3241
821.728	3214
821.868	3165
822.008	3028
822.149	3169
822.289	3237
822.429	3077
822.569	3070
822.709	3154
822.849	3036
822.99	3074
823.13	3165
823.27	3176
823.41	3119
823.55	3142
823.69	3142
823.83	3165
823.97	3097
824.11	3013
824.25	2990
824.389	3070
824.529	3100
824.669	3070
824.809	3188
824.949	3249
825.089	3184
825.228	3135
825.368	2960
825.508	2963
825.648	2956
825.787	3005
825.927	3013
826.067	2956
826.206	2975
826.346	3039
826.485	3058
826.625	3112
826.765	3275
826.904	3203
827.044	3032
827.183	2914
827.323	2849
827.462	3001
827.601	2922
827.741	2922
827.88	2937
828.02	2861
828.159	2944
828.298	3020
828.437	3116
828.577	3074
828.716	3241
828.855	3112
828.994	2864
829.134	2891
829.273	2929
829.412	2876
829.551	2864
829.69	2906
829.829	2990
829.968	3123
830.107	3017
830.246	3013
830.385	2891
830.524	2883
830.663	2796
830.802	2727
830.941	2640
831.08	2598
831.219	2754
831.357	2792
831.496	2944
831.635	2678
831.774	2640
831.913	2678
832.051	2541
832.19	2571
832.329	2716
832.467	2545
832.606	2442
832.744	2625
832.883	2590
833.022	2568
833.16	2640
833.299	2686
833.437	2708
833.576	2697
833.714	2716
833.852	2727
833.991	2754
834.129	2834
834.267	2834
834.406	2788
834.544	2819
834.682	2842
834.821	2872
834.959	3009
835.097	2880
835.235	3043
835.373	2979
835.511	2982
835.65	2914
835.788	2982
835.926	2781
836.064	2811
836.202	2842
836.34	3100
836.478	3142
836.615	3020
836.753	3127
836.891	3211
837.029	3176
837.167	3112
837.305	3108
837.443	3024
837.58	2922
837.718	3093
837.856	3074
837.993	3039
838.131	3100
838.269	3093
838.406	3077
838.544	3085
838.681	2914
838.819	2929
838.956	2815
839.094	2834
839.231	2902
839.369	3043
839.506	3363
839.643	3226
839.781	3020
839.918	2994
840.055	3062
840.193	3043
840.33	3074
840.467	3077
840.604	3150
840.742	3344
840.879	3032
841.016	3058
841.153	3112
841.29	3306
841.427	3321
841.564	3218
841.701	3256
841.838	3233
841.975	3207
842.112	3230
842.249	3089
842.385	3058
842.522	3283
842.659	3089
842.796	3032
842.933	3093
843.069	3051
843.206	3039
843.343	3169
843.479	3097
843.616	3142
843.752	2895
843.889	2861
844.025	3093
844.162	2807
844.298	3093
844.435	2975
844.571	2914
844.708	3055
844.844	3184
844.98	3237
845.117	3180
845.253	3036
845.389	3036
845.525	3085
845.661	3077
845.798	2998
845.934	3150
846.07	3051
846.206	3230
846.342	3279
846.478	3249
846.614	3097
846.75	3020
846.886	3043
847.022	3241
847.158	3157
847.294	3173
847.429	3237
847.565	3230
847.701	3504
847.837	3039
847.972	2967
848.108	3135
848.244	3119
848.379	2963
848.515	2880
848.65	2925
848.786	2975
848.921	3001
849.057	3089
849.192	3150
849.328	3100
849.463	3051
849.598	3097
849.734	3047
849.869	2986
850.004	2918
850.14	2952
850.275	2910
850.41	2834
850.545	2887
850.68	2910
850.815	2960
850.95	2952
851.085	3192
851.22	3116
851.355	3024
851.49	2975
851.625	3001
851.76	3039
851.895	2937
852.03	2929
852.165	3013
852.299	3104
852.434	3184
852.569	3116
852.703	3161
852.838	3233
852.973	3310
853.107	3332
853.242	3131
853.376	3089
853.511	2990
853.645	3028
853.78	3230
853.914	3100
854.048	3089
854.183	3081
854.317	3131
854.451	3275
854.585	3085
854.72	3074
854.854	3260
854.988	3043
855.122	3097
855.256	2967
855.39	3119
855.524	3180
855.658	3142
855.792	3146
855.926	3195
856.06	3218
856.194	3230
856.327	3157
856.461	3100
856.595	3081
856.729	3131
856.862	3230
856.996	3150
857.13	3188
857.263	3237
857.397	3241
857.53	3116
857.664	3173
857.797	3226
857.931	3264
858.064	3199
858.197	3203
858.331	3157
858.464	3077
858.597	3020
858.731	3097
858.864	3116
858.997	3077
859.13	3169
859.263	3173
859.396	3176
859.529	3089
859.662	3070
859.795	3055
859.928	3116
860.061	3253
860.194	3313
860.327	3127
860.46	3097
860.592	3237
860.725	3237
860.858	3272
860.99	3157
861.123	3039
861.256	3077
861.388	3119
861.521	3903
861.653	3013
861.786	2979
861.918	2990
862.05	3055
862.183	3100
862.315	3169
862.447	3207
862.58	3062
862.712	2933
862.844	2891
862.976	3005
863.108	2975
863.24	3340
863.372	2849
863.504	2941
863.636	2963
863.768	3028
863.9	2998
864.032	2880
864.164	2922
864.296	3009
864.428	3100
864.559	3070
864.691	3055
864.823	3081
864.954	3020
865.086	3058
865.217	2998
865.349	2956
865.48	2982
865.612	3005
865.743	3150
865.875	2975
866.006	2933
866.137	2990
866.269	2922
866.4	2956
866.531	2899
866.662	2876
866.793	2899
866.924	2864
867.055	2986
867.186	2918
867.317	2876
867.448	2834
867.579	2868
867.71	2834
867.841	2811
867.972	2899
868.103	2941
868.233	2845
868.364	2861
868.495	2883
868.625	3074
868.756	3165
868.886	2967
869.017	3001
869.147	3169
869.278	3188
869.408	3051
869.539	3032
869.669	3066
869.799	3017
869.929	3154
870.06	3108
870.19	3332
870.32	3260
870.45	3291
870.58	3336
870.71	3416
870.84	3447
870.97	3253
871.1	3230
871.23	3485
871.36	3458
871.489	3363
871.619	3389
871.749	3378
871.879	3428
872.008	3466
872.138	3340
872.267	3245
872.397	3157
872.526	3104
872.656	2986
872.785	3085
872.915	3222
873.044	3298
873.173	3176
873.303	3264
873.432	3237
873.561	3233
873.69	3150
873.819	3150
873.948	3211
874.077	3100
874.206	3070
874.335	3104
874.464	3195
874.593	3332
874.722	3260
874.851	3409
874.979	3344
875.108	3340
875.237	3203
875.365	3192
875.494	3161
875.623	3218
875.751	3127
875.88	3127
876.008	3169
876.136	3211
876.265	3374
876.393	3523
876.521	3416
876.65	3370
876.778	3348
876.906	3233
877.034	3211
877.162	3214
877.29	3195
877.418	3260
877.546	3256
877.674	3283
877.802	3214
877.93	3214
878.058	3146
878.185	3077
878.313	3188
878.441	3211
878.568	3066
878.696	3127
878.824	3260
878.951	3233
879.079	3473
879.206	3603
879.333	3454
879.461	3329
879.588	3321
879.715	3481
879.842	3587
879.97	3359
880.097	3173
880.224	3097
880.351	3199
880.478	3226
880.605	3188
880.732	3173
880.859	3477
880.986	3332
881.112	3302
881.239	3211
881.366	3043
881.493	3047
881.619	3009
881.746	3009
881.872	3055
881.999	3085
882.125	3138
882.252	3218
882.378	3264
882.505	3447
882.631	3245
882.757	3157
882.883	3203
883.01	3203
883.136	3161
883.262	3085
883.388	3100
883.514	3302
883.64	3351
883.766	3272
883.892	3169
884.018	3233
884.143	3447
884.269	3519
884.395	3226
884.52	3142
884.646	3173
884.772	3123
884.897	3055
885.023	3188
885.148	3306
885.274	3420
885.399	3340
885.524	3291
885.65	3249
885.775	3294
885.9	3253
886.025	3397
886.15	3359
886.275	3283
886.4	3245
886.525	3287
886.65	3226
886.775	3272
886.9	3500
887.025	3648
887.149	3382
887.274	3260
887.399	3165
887.523	3180
887.648	3195
887.773	3188
887.897	3405
888.021	3424
888.146	3287
888.27	3439
888.395	3549
888.519	3439
888.643	3447
888.767	3477
888.891	3310
889.015	3237
889.139	3241
889.263	3222
889.387	3409
889.511	3507
889.635	3447
889.759	3275
889.883	3306
890.006	3325
890.13	3469
890.254	3302
890.377	3348
890.501	3211
890.624	3161
890.748	3272
890.871	3138
890.995	3104
891.118	3070
891.241	3203
891.364	3233
891.488	3279
891.611	3165
891.734	3199
891.857	3264
891.98	3253
892.103	3370
892.226	3241
892.349	3233
892.471	3074
892.594	3241
892.717	3317
892.839	3272
892.962	3279
893.085	3306
893.207	3264
893.33	3173
893.452	3188
893.575	3317
893.697	3249
893.819	3458
893.941	3500
894.064	3469
894.186	3272
894.308	3256
894.43	3420
894.552	3504
894.674	3447
894.796	3268
894.918	3313
895.04	3283
895.161	3431
895.283	3401
895.405	3317
895.526	3321
895.648	3450
895.769	3424
895.891	3454
896.012	3454
896.134	3473
896.255	3359
896.376	3370
896.498	3389
896.619	3447
896.74	3367
896.861	3378
896.982	3713
897.103	3838
897.224	3549
897.345	3507
897.466	3424
897.587	3496
897.708	3622
897.828	3568
897.949	3405
898.07	3344
898.19	3420
898.311	3587
898.431	3431
898.552	3469
898.672	3595
898.792	3576
898.913	3488
899.033	3416
899.153	3268
899.273	3207
899.393	3313
899.513	3294
899.633	3298
899.753	3306
899.873	3336
899.993	3332
900.113	3329
900.232	3351
900.352	3283
900.472	3291
900.591	3237
900.711	3294
900.83	3256
900.95	3420
901.069	3469
901.189	3363
901.308	3169
901.427	3127
901.546	3176
901.665	3275
901.784	3332
901.904	3233
902.023	3138
902.141	3028
902.26	3020
902.379	3135
902.498	3051
902.617	3013
902.735	3207
902.854	3226
902.973	3211
903.091	3055
903.21	3070
903.328	3119
903.446	3112
903.565	3070
903.683	3173
903.801	3116
903.919	3203
904.038	3272
904.156	3154
904.274	3310
904.392	3230
904.51	3218
904.627	3332
904.745	3405
904.863	3466
904.981	3230
905.098	3176
905.216	3230
905.334	3256
905.451	3313
905.569	3260
905.686	3435
905.803	3435
905.921	3272
906.038	3401
906.155	3348
906.272	3275
906.389	3291
906.506	3195
906.623	3279
906.74	3268
906.857	3176
906.974	3260
907.091	3393
907.208	3538
907.324	3450
907.441	3355
907.557	3241
907.674	3214
907.79	3256
907.907	3264
908.023	3397
908.139	3359
908.256	3313
908.372	3348
908.488	3340
908.604	3222
908.72	3214
908.836	3260
908.952	3283
909.068	3317
909.184	3435
909.3	3386
909.415	3469
909.531	3420
909.647	3283
909.762	3287
909.878	3230
909.993	3317
910.108	3351
910.224	3336
910.339	3409
910.454	3325
910.57	3272
910.685	3218
910.8	3591
910.915	3538
911.03	3389
911.145	3279
911.259	3245
911.374	3325
911.489	3237
911.604	3218
911.718	3116
911.833	3150
911.947	3047
912.062	2986
912.176	3165
912.291	3173
912.405	3195
912.519	3374
912.633	3469
912.748	3317
912.862	3241
912.976	3161
913.09	3020
913.204	3131
913.318	3203
913.431	3310
913.545	3321
913.659	3397
913.772	3344
913.886	3218
914	3199
914.113	3332
914.226	3420
914.34	3340
914.453	3173
914.566	3424
914.68	3294
914.793	3302
914.906	3142
915.019	3055
915.132	3032
915.245	3131
915.358	3169
915.47	3199
915.583	3245
915.696	3253
915.809	3428
915.921	3374
916.034	3237
916.146	3222
916.259	3249
916.371	3348
916.483	3313
916.595	3245
916.708	3367
916.82	3321
916.932	3310
917.044	3332
917.156	3313
917.268	3237
917.38	3287
917.491	3329
917.603	3336
917.715	3401
917.826	3466
917.938	3374
918.049	3237
918.161	3389
918.272	3561
918.384	3549
918.495	3458
918.606	3332
918.717	3321
918.828	3351
918.939	3435
919.05	3317
919.161	3367
919.272	3180
919.383	3325
919.494	3492
919.604	3671
919.715	3507
919.826	3439
919.936	3466
920.047	3603
920.157	3545
920.267	3800
920.378	3622
920.488	3568
920.598	3770
920.708	3937
920.818	3865
920.928	3861
921.038	4021
921.148	3956
921.258	3694
921.368	3656
921.477	3587
921.587	3542
921.697	3485
921.806	3660
921.916	3519
922.025	3409
922.134	3389
922.244	3310
922.353	3443
922.462	3287
922.571	3317
922.68	3146
922.789	3108
922.898	3176
923.007	3138
923.116	3256
923.224	3207
923.333	3249
923.442	3138
923.55	3161
923.659	3154
923.767	3245
923.876	3192
923.984	3283
924.092	3150
924.201	3241
924.309	3241
924.417	3332
924.525	3245
924.633	3268
924.741	4067
924.849	3074
924.956	3302
925.064	3157
925.172	3108
925.279	3127
925.387	3241
925.494	3253
925.602	3386
925.709	3389
925.816	3214
925.924	3336
926.031	3439
926.138	3367
926.245	3416
926.352	3291
926.459	3435
926.566	3496
926.673	3359
926.779	3272
926.886	3321
926.993	3203
927.099	3146
927.206	3180
927.312	3184
927.419	3222
927.525	3268
927.631	3268
927.737	3199
927.843	3161
927.95	3062
928.056	3203
928.162	3176
928.267	3310
928.373	3774
928.479	3359
928.585	3104
928.69	3275
928.796	3317
928.901	3241
929.007	3116
929.112	3237
929.218	3230
929.323	3180
929.428	3188
929.533	3294
929.638	3161
929.743	3211
929.848	3298
929.953	3268
930.058	3199
930.163	3055
930.267	3081
930.372	3230
930.477	3100
930.581	3367
930.685	3226
930.79	3112
930.894	3157
930.998	3146
931.103	3279
931.207	2963
931.311	2979
931.415	2979
931.519	2807
931.623	2845
