Data from test_V78500241_1866.txt Node
Date: Fri Mar 25 16:28:07 CST 2022
User: usil
Spectrometer: V785-0024
Trigger mode: 0
Integration Time (sec): 4.000000E-1
Scans to average: 1
Nonlinearity correction enabled: false
Boxcar width: 0
Storing dark spectrum: false
XAxis mode: Wavelengths
Number of Pixels in Spectrum: 1024
>>>>>Begin Spectral Data<<<<<
801.071	2929
801.214	2922
801.356	2834
801.499	2887
801.641	2868
801.783	2918
801.926	3024
802.068	2982
802.211	3032
802.353	3032
802.496	2963
802.638	3020
802.78	3036
802.923	3058
803.065	3024
803.208	2914
803.35	2899
803.492	2922
803.635	2922
803.777	2754
803.919	2872
804.061	3180
804.204	2944
804.346	2910
804.488	2845
804.63	2941
804.773	2804
804.915	2887
805.057	3055
805.199	2918
805.341	2960
805.483	3020
805.626	2994
805.768	2952
805.91	3058
806.052	3108
806.194	3036
806.336	3241
806.478	3013
806.62	2960
806.762	2979
806.904	3051
807.046	3180
807.188	2971
807.33	2925
807.472	2975
807.614	2891
807.756	2979
807.898	2929
808.04	2864
808.182	2963
808.324	2979
808.465	2891
808.607	2845
808.749	2819
808.891	2834
809.033	2963
809.174	2979
809.316	2887
809.458	2883
809.6	2785
809.741	2766
809.883	2762
810.025	2819
810.166	2819
810.308	2845
810.45	2876
810.591	2758
810.733	2754
810.875	2834
811.016	2773
811.158	2739
811.299	2788
811.441	2918
811.582	2880
811.724	2826
811.865	2823
812.007	2910
812.148	2872
812.29	2849
812.431	2895
812.573	2952
812.714	2994
812.855	3032
812.997	3036
813.138	3093
813.279	2982
813.421	2975
813.562	2967
813.703	2853
813.845	2876
813.986	2758
814.127	2720
814.268	2834
814.41	2830
814.551	2792
814.692	2842
814.833	2777
814.974	2910
815.115	2933
815.256	2845
815.397	2838
815.539	2849
815.68	2788
815.821	2800
815.962	2952
816.103	2929
816.244	2838
816.385	2857
816.526	2963
816.666	2914
816.807	2746
816.948	2853
817.089	2864
817.23	2861
817.371	2766
817.512	2766
817.653	2838
817.793	2842
817.934	2864
818.075	2922
818.216	3009
818.356	3028
818.497	2887
818.638	2792
818.778	2830
818.919	2819
819.06	2781
819.2	2872
819.341	2804
819.481	2792
819.622	2929
819.762	3081
819.903	3051
820.043	2967
820.184	2910
820.324	2910
820.465	2990
820.605	3001
820.746	3028
820.886	2910
821.026	3074
821.167	3157
821.307	3291
821.447	3291
821.588	3230
821.728	3233
821.868	3157
822.008	3089
822.149	3195
822.289	3226
822.429	3074
822.569	3097
822.709	3184
822.849	3028
822.99	3020
823.13	3131
823.27	3180
823.41	3104
823.55	3146
823.69	3154
823.83	3203
823.97	3104
824.11	3005
824.25	2994
824.389	3062
824.529	3119
824.669	3047
824.809	3157
824.949	3256
825.089	3203
825.228	3146
825.368	2994
825.508	2963
825.648	2948
825.787	2998
825.927	3020
826.067	2971
826.206	2967
826.346	3058
826.485	3074
826.625	3089
826.765	3260
826.904	3203
827.044	2960
827.183	2952
827.323	2853
827.462	2963
827.601	2895
827.741	2925
827.88	2952
828.02	2819
828.159	2952
828.298	3020
828.437	3127
828.577	3024
828.716	3275
828.855	3043
828.994	2902
829.134	2872
829.273	2872
829.412	2861
829.551	2861
829.69	2887
829.829	2960
829.968	3131
830.107	3032
830.246	3055
830.385	2925
830.524	2849
830.663	2807
830.802	2746
830.941	2667
831.08	2663
831.219	2735
831.357	2773
831.496	2944
831.635	2720
831.774	2617
831.913	2629
832.051	2522
832.19	2552
832.329	2674
832.467	2541
832.606	2473
832.744	2560
832.883	2571
833.022	2564
833.16	2667
833.299	2689
833.437	2701
833.576	2701
833.714	2746
833.852	2724
833.991	2777
834.129	2815
834.267	2845
834.406	2781
834.544	2868
834.682	2891
834.821	2857
834.959	3062
835.097	2899
835.235	3039
835.373	2994
835.511	3017
835.65	2952
835.788	2967
835.926	2788
836.064	2815
836.202	2823
836.34	3089
836.478	3135
836.615	3070
836.753	3154
836.891	3199
837.029	3142
837.167	3112
837.305	3051
837.443	3066
837.58	2963
837.718	3150
837.856	3077
837.993	3013
838.131	3089
838.269	3089
838.406	3100
838.544	3108
838.681	2933
838.819	2906
838.956	2807
839.094	2823
839.231	2922
839.369	3036
839.506	3374
839.643	3226
839.781	3020
839.918	2963
840.055	2994
840.193	3043
840.33	3085
840.467	3074
840.604	3173
840.742	3378
840.879	3051
841.016	3070
841.153	3108
841.29	3325
841.427	3287
841.564	3245
841.701	3313
841.838	3233
841.975	3165
842.112	3214
842.249	3070
842.385	3032
842.522	3245
842.659	3085
842.796	3055
842.933	3066
843.069	2994
843.206	3020
843.343	3161
843.479	3074
843.616	3104
843.752	2895
843.889	2849
844.025	3066
844.162	2853
844.298	3070
844.435	2944
844.571	2895
844.708	3051
844.844	3146
844.98	3188
845.117	3207
845.253	3081
845.389	3001
845.525	3062
845.661	3081
845.798	3013
845.934	3127
846.07	3032
846.206	3218
846.342	3283
846.478	3249
846.614	3066
846.75	3020
846.886	3017
847.022	3233
847.158	3108
847.294	3199
847.429	3245
847.565	3233
847.701	3431
847.837	3009
847.972	2986
848.108	3169
848.244	3142
848.379	2952
848.515	2895
848.65	2914
848.786	2956
848.921	3032
849.057	3104
849.192	3180
849.328	3032
849.463	3066
849.598	3093
849.734	3032
849.869	2975
850.004	2914
850.14	2990
850.275	2906
850.41	2792
850.545	2842
850.68	2933
850.815	2960
850.95	2933
851.085	3173
851.22	3097
851.355	2998
851.49	2971
851.625	3039
851.76	2998
851.895	2914
852.03	2929
852.165	3039
852.299	3047
852.434	3184
852.569	3108
852.703	3108
852.838	3233
852.973	3336
853.107	3321
853.242	3146
853.376	3097
853.511	2944
853.645	3047
853.78	3230
853.914	3119
854.048	3123
854.183	3081
854.317	3150
854.451	3291
854.585	3119
854.72	3081
854.854	3237
854.988	3055
855.122	3135
855.256	2925
855.39	3104
855.524	3245
855.658	3176
855.792	3116
855.926	3203
856.06	3233
856.194	3253
856.327	3085
856.461	3028
856.595	3047
856.729	3058
856.862	3188
856.996	3207
857.13	3173
857.263	3260
857.397	3291
857.53	3074
857.664	3154
857.797	3253
857.931	3245
858.064	3146
858.197	3203
858.331	3150
858.464	3085
858.597	2979
858.731	3081
858.864	3108
858.997	3119
859.13	3108
859.263	3154
859.396	3214
859.529	3097
859.662	3062
859.795	3039
859.928	3150
860.061	3298
860.194	3287
860.327	3119
860.46	3085
860.592	3203
860.725	3249
860.858	3214
860.99	3062
861.123	3047
861.256	3024
861.388	3131
861.521	3835
861.653	3028
861.786	2982
861.918	3009
862.05	3017
862.183	3074
862.315	3135
862.447	3199
862.58	3097
862.712	2948
862.844	2864
862.976	3017
863.108	3005
863.24	3428
863.372	2876
863.504	2960
863.636	2914
863.768	3058
863.9	2963
864.032	2883
864.164	2944
864.296	3020
864.428	3036
864.559	3055
864.691	3058
864.823	3089
864.954	2998
865.086	3066
865.217	2982
865.349	2925
865.48	2967
865.612	3024
865.743	3085
865.875	3001
866.006	2941
866.137	2963
866.269	2933
866.4	2956
866.531	2906
866.662	2880
866.793	2941
866.924	2895
867.055	2944
867.186	2914
867.317	2872
867.448	2815
867.579	2819
867.71	2853
867.841	2819
867.972	2868
868.103	2872
868.233	2876
868.364	2838
868.495	2880
868.625	3043
868.756	3142
868.886	2994
869.017	2975
869.147	3127
869.278	3161
869.408	3051
869.539	2998
869.669	3089
869.799	3024
869.929	3119
870.06	3119
870.19	3302
870.32	3214
870.45	3272
870.58	3317
870.71	3435
870.84	3443
870.97	3260
871.1	3279
871.23	3443
871.36	3443
871.489	3386
871.619	3401
871.749	3405
871.879	3412
872.008	3477
872.138	3359
872.267	3253
872.397	3195
872.526	3089
872.656	3036
872.785	3093
872.915	3203
873.044	3298
873.173	3226
873.303	3241
873.432	3214
873.561	3222
873.69	3131
873.819	3119
873.948	3184
874.077	3131
874.206	2986
874.335	3058
874.464	3199
874.593	3351
874.722	3214
874.851	3401
874.979	3344
875.108	3302
875.237	3214
875.365	3123
875.494	3199
875.623	3260
875.751	3085
875.88	3116
876.008	3195
876.136	3245
876.265	3363
876.393	3515
876.521	3412
876.65	3359
876.778	3325
876.906	3233
877.034	3203
877.162	3253
877.29	3203
877.418	3226
877.546	3253
877.674	3226
877.802	3249
877.93	3199
878.058	3165
878.185	3070
878.313	3161
878.441	3207
878.568	3047
878.696	3161
878.824	3268
878.951	3310
879.079	3443
879.206	3622
879.333	3439
879.461	3340
879.588	3359
879.715	3458
879.842	3564
879.97	3363
880.097	3169
880.224	3138
880.351	3165
880.478	3203
880.605	3226
880.732	3157
880.859	3458
880.986	3268
881.112	3298
881.239	3142
881.366	3043
881.493	3036
881.619	3051
881.746	3081
881.872	3097
881.999	3085
882.125	3127
882.252	3230
882.378	3283
882.505	3420
882.631	3291
882.757	3142
882.883	3180
883.01	3211
883.136	3108
883.262	3077
883.388	3089
883.514	3306
883.64	3378
883.766	3313
883.892	3180
884.018	3237
884.143	3370
884.269	3504
884.395	3161
884.52	3154
884.646	3150
884.772	3112
884.897	3085
885.023	3226
885.148	3325
885.274	3412
885.399	3344
885.524	3256
885.65	3260
885.775	3321
885.9	3245
886.025	3389
886.15	3321
886.275	3298
886.4	3226
886.525	3253
886.65	3260
886.775	3329
886.9	3496
887.025	3644
887.149	3370
887.274	3241
887.399	3165
887.523	3150
887.648	3150
887.773	3180
887.897	3386
888.021	3359
888.146	3291
888.27	3443
888.395	3523
888.519	3378
888.643	3409
888.767	3409
888.891	3302
889.015	3253
889.139	3279
889.263	3241
889.387	3409
889.511	3496
889.635	3431
889.759	3287
889.883	3294
890.006	3389
890.13	3496
890.254	3264
890.377	3310
890.501	3199
890.624	3192
890.748	3283
890.871	3195
890.995	3127
891.118	3058
891.241	3226
891.364	3207
891.488	3351
891.611	3184
891.734	3184
891.857	3279
891.98	3199
892.103	3359
892.226	3306
892.349	3218
892.471	3085
892.594	3249
892.717	3291
892.839	3283
892.962	3291
893.085	3386
893.207	3287
893.33	3165
893.452	3192
893.575	3374
893.697	3272
893.819	3504
893.941	3530
894.064	3473
894.186	3321
894.308	3355
894.43	3507
894.552	3580
894.674	3534
894.796	3306
894.918	3317
895.04	3313
895.161	3443
895.283	3428
895.405	3370
895.526	3389
895.648	3447
895.769	3447
895.891	3507
896.012	3530
896.134	3492
896.255	3401
896.376	3405
896.498	3401
896.619	3454
896.74	3435
896.861	3424
896.982	3724
897.103	3884
897.224	3618
897.345	3572
897.466	3443
897.587	3504
897.708	3652
897.828	3618
897.949	3454
898.07	3359
898.19	3420
898.311	3606
898.431	3488
898.552	3485
898.672	3644
898.792	3610
898.913	3561
899.033	3439
899.153	3351
899.273	3249
899.393	3332
899.513	3378
899.633	3325
899.753	3370
899.873	3355
899.993	3397
900.113	3351
900.232	3447
900.352	3382
900.472	3321
900.591	3226
900.711	3325
900.83	3260
900.95	3412
901.069	3530
901.189	3389
901.308	3233
901.427	3173
901.546	3211
901.665	3325
901.784	3355
901.904	3222
902.023	3146
902.141	3047
902.26	3077
902.379	3184
902.498	3093
902.617	3077
902.735	3256
902.854	3260
902.973	3214
903.091	3074
903.21	3089
903.328	3169
903.446	3142
903.565	3112
903.683	3211
903.801	3150
903.919	3260
904.038	3306
904.156	3203
904.274	3313
904.392	3298
904.51	3279
904.627	3321
904.745	3477
904.863	3496
904.981	3302
905.098	3180
905.216	3253
905.334	3340
905.451	3336
905.569	3336
905.686	3481
905.803	3435
905.921	3317
906.038	3447
906.155	3386
906.272	3310
906.389	3359
906.506	3260
906.623	3275
906.74	3260
906.857	3195
906.974	3291
907.091	3488
907.208	3587
907.324	3477
907.441	3393
907.557	3214
907.674	3245
907.79	3245
907.907	3306
908.023	3420
908.139	3420
908.256	3332
908.372	3424
908.488	3405
908.604	3279
908.72	3256
908.836	3317
908.952	3298
909.068	3359
909.184	3481
909.3	3409
909.415	3500
909.531	3473
909.647	3302
909.762	3332
909.878	3279
909.993	3401
910.108	3367
910.224	3355
910.339	3420
910.454	3340
910.57	3291
910.685	3264
910.8	3606
910.915	3519
911.03	3439
911.145	3291
911.259	3306
911.374	3336
911.489	3279
911.604	3287
911.718	3154
911.833	3165
911.947	3066
912.062	2990
912.176	3222
912.291	3233
912.405	3256
912.519	3466
912.633	3496
912.748	3355
912.862	3317
912.976	3184
913.09	3104
913.204	3161
913.318	3249
913.431	3401
913.545	3329
913.659	3416
913.772	3340
913.886	3245
914	3222
914.113	3412
914.226	3447
914.34	3401
914.453	3249
914.566	3462
914.68	3272
914.793	3386
914.906	3161
915.019	3161
915.132	3077
915.245	3237
915.358	3233
915.47	3268
915.583	3325
915.696	3355
915.809	3473
915.921	3435
916.034	3245
916.146	3291
916.259	3283
916.371	3435
916.483	3359
916.595	3298
916.708	3317
916.82	3363
916.932	3344
917.044	3397
917.156	3363
917.268	3287
917.38	3287
917.491	3317
917.603	3401
917.715	3473
917.826	3462
917.938	3389
918.049	3306
918.161	3416
918.272	3584
918.384	3610
918.495	3473
918.606	3351
918.717	3268
918.828	3420
918.939	3477
919.05	3317
919.161	3389
919.272	3188
919.383	3340
919.494	3488
919.604	3694
919.715	3507
919.826	3439
919.936	3454
920.047	3603
920.157	3568
920.267	3812
920.378	3603
920.488	3595
920.598	3808
920.708	3987
920.818	3854
920.928	3892
921.038	4025
921.148	4006
921.258	3743
921.368	3686
921.477	3591
921.587	3606
921.697	3515
921.806	3648
921.916	3545
922.025	3389
922.134	3389
922.244	3313
922.353	3458
922.462	3272
922.571	3260
922.68	3131
922.789	3066
922.898	3138
923.007	3108
923.116	3237
923.224	3176
923.333	3226
923.442	3165
923.55	3093
923.659	3176
923.767	3245
923.876	3138
923.984	3260
924.092	3104
924.201	3207
924.309	3233
924.417	3260
924.525	3218
924.633	3207
924.741	4013
924.849	3066
924.956	3260
925.064	3123
925.172	3055
925.279	3135
925.387	3211
925.494	3230
925.602	3332
925.709	3348
925.816	3233
925.924	3294
926.031	3378
926.138	3351
926.245	3351
926.352	3253
926.459	3405
926.566	3485
926.673	3325
926.779	3241
926.886	3245
926.993	3169
927.099	3165
927.206	3131
927.312	3157
927.419	3241
927.525	3245
927.631	3287
927.737	3142
927.843	3138
927.95	3081
928.056	3157
928.162	3195
928.267	3287
928.373	3819
928.479	3321
928.585	3108
928.69	3260
928.796	3264
928.901	3169
929.007	3039
929.112	3203
929.218	3184
929.323	3119
929.428	3138
929.533	3310
929.638	3135
929.743	3188
929.848	3275
929.953	3218
930.058	3195
930.163	3036
930.267	3020
930.372	3226
930.477	3058
930.581	3332
930.685	3176
930.79	3108
930.894	3142
930.998	3100
931.103	3279
931.207	2975
931.311	2975
931.415	2948
931.519	2807
931.623	2834
