Data from test_V78500241_1532.txt Node
Date: Fri Mar 25 16:25:48 CST 2022
User: usil
Spectrometer: V785-0024
Trigger mode: 0
Integration Time (sec): 4.000000E-1
Scans to average: 1
Nonlinearity correction enabled: false
Boxcar width: 0
Storing dark spectrum: false
XAxis mode: Wavelengths
Number of Pixels in Spectrum: 1024
>>>>>Begin Spectral Data<<<<<
801.071	2937
801.214	2937
801.356	2891
801.499	2914
801.641	2845
801.783	2887
801.926	3043
802.068	2960
802.211	2937
802.353	3036
802.496	3001
802.638	3001
802.78	3081
802.923	3058
803.065	2971
803.208	2872
803.35	2918
803.492	2933
803.635	2948
803.777	2746
803.919	2815
804.061	3211
804.204	2944
804.346	2887
804.488	2834
804.63	2952
804.773	2868
804.915	2891
805.057	3039
805.199	2914
805.341	2982
805.483	3055
805.626	3009
805.768	2929
805.91	3093
806.052	3154
806.194	3036
806.336	3233
806.478	3009
806.62	2925
806.762	2910
806.904	3058
807.046	3169
807.188	2960
807.33	2914
807.472	2986
807.614	2906
807.756	2990
807.898	2925
808.04	2853
808.182	2944
808.324	2956
808.465	2899
808.607	2902
808.749	2826
808.891	2872
809.033	2944
809.174	2967
809.316	2880
809.458	2922
809.6	2796
809.741	2720
809.883	2766
810.025	2788
810.166	2853
810.308	2819
810.45	2838
810.591	2758
810.733	2788
810.875	2868
811.016	2773
811.158	2743
811.299	2800
811.441	2929
811.582	2857
811.724	2838
811.865	2834
812.007	2902
812.148	2887
812.29	2849
812.431	2880
812.573	2933
812.714	2956
812.855	3013
812.997	3058
813.138	3097
813.279	3043
813.421	2963
813.562	2910
813.703	2891
813.845	2880
813.986	2796
814.127	2727
814.268	2826
814.41	2826
814.551	2800
814.692	2872
814.833	2777
814.974	2876
815.115	2960
815.256	2861
815.397	2796
815.539	2864
815.68	2754
815.821	2785
815.962	2944
816.103	2914
816.244	2880
816.385	2849
816.526	2902
816.666	2891
816.807	2777
816.948	2914
817.089	2895
817.23	2849
817.371	2758
817.512	2777
817.653	2834
817.793	2826
817.934	2895
818.075	2929
818.216	2971
818.356	3001
818.497	2880
818.638	2804
818.778	2826
818.919	2777
819.06	2750
819.2	2883
819.341	2769
819.481	2807
819.622	2910
819.762	3074
819.903	3028
820.043	2876
820.184	2895
820.324	2891
820.465	2998
820.605	3047
820.746	3032
820.886	2933
821.026	3081
821.167	3180
821.307	3249
821.447	3268
821.588	3226
821.728	3173
821.868	3207
822.008	3066
822.149	3165
822.289	3199
822.429	3093
822.569	3077
822.709	3180
822.849	3009
822.99	3066
823.13	3138
823.27	3169
823.41	3104
823.55	3112
823.69	3157
823.83	3188
823.97	3131
824.11	3024
824.25	3009
824.389	3077
824.529	3100
824.669	3062
824.809	3161
824.949	3230
825.089	3192
825.228	3203
825.368	2982
825.508	2941
825.648	2944
825.787	2979
825.927	2994
826.067	2994
826.206	2967
826.346	3055
826.485	3089
826.625	3097
826.765	3260
826.904	3222
827.044	2998
827.183	2933
827.323	2834
827.462	2975
827.601	2914
827.741	2910
827.88	2941
828.02	2861
828.159	2986
828.298	3047
828.437	3112
828.577	3036
828.716	3249
828.855	3089
828.994	2937
829.134	2887
829.273	2872
829.412	2823
829.551	2887
829.69	2883
829.829	2986
829.968	3119
830.107	3047
830.246	2994
830.385	2929
830.524	2880
830.663	2804
830.802	2708
830.941	2644
831.08	2651
831.219	2762
831.357	2731
831.496	2948
831.635	2727
831.774	2629
831.913	2667
832.051	2549
832.19	2560
832.329	2693
832.467	2526
832.606	2469
832.744	2579
832.883	2602
833.022	2568
833.16	2640
833.299	2670
833.437	2701
833.576	2686
833.714	2731
833.852	2739
833.991	2754
834.129	2845
834.267	2853
834.406	2796
834.544	2872
834.682	2804
834.821	2868
834.959	3024
835.097	2883
835.235	3039
835.373	3024
835.511	2975
835.65	2891
835.788	2933
835.926	2830
836.064	2769
836.202	2826
836.34	3093
836.478	3131
836.615	3043
836.753	3169
836.891	3176
837.029	3123
837.167	3070
837.305	3062
837.443	3036
837.58	2963
837.718	3135
837.856	3058
837.993	3036
838.131	3135
838.269	3119
838.406	3089
838.544	3051
838.681	2929
838.819	2914
838.956	2785
839.094	2823
839.231	2887
839.369	2967
839.506	3374
839.643	3214
839.781	3017
839.918	2948
840.055	3070
840.193	3043
840.33	3066
840.467	3089
840.604	3165
840.742	3401
840.879	3066
841.016	3013
841.153	3100
841.29	3348
841.427	3317
841.564	3237
841.701	3294
841.838	3192
841.975	3157
842.112	3184
842.249	3066
842.385	3028
842.522	3256
842.659	3043
842.796	3085
842.933	3097
843.069	3070
843.206	3001
843.343	3146
843.479	3085
843.616	3157
843.752	2929
843.889	2838
844.025	3077
844.162	2842
844.298	3051
844.435	2941
844.571	2868
844.708	3047
844.844	3214
844.98	3203
845.117	3192
845.253	3036
845.389	2998
845.525	3104
845.661	3085
845.798	2960
845.934	3127
846.07	3039
846.206	3226
846.342	3325
846.478	3245
846.614	3074
846.75	3070
846.886	3013
847.022	3218
847.158	3150
847.294	3222
847.429	3256
847.565	3169
847.701	3443
847.837	3047
847.972	2960
848.108	3157
848.244	3116
848.379	3009
848.515	2922
848.65	2918
848.786	2941
848.921	3032
849.057	3119
849.192	3157
849.328	3051
849.463	3108
849.598	3058
849.734	3043
849.869	2956
850.004	2941
850.14	2952
850.275	2925
850.41	2864
850.545	2872
850.68	2948
850.815	2979
850.95	2994
851.085	3173
851.22	3074
851.355	3024
851.49	2944
851.625	2982
851.76	2998
851.895	2960
852.03	2910
852.165	3051
852.299	3093
852.434	3165
852.569	3112
852.703	3138
852.838	3241
852.973	3321
853.107	3302
853.242	3165
853.376	3093
853.511	2963
853.645	3032
853.78	3214
853.914	3100
854.048	3100
854.183	3074
854.317	3169
854.451	3294
854.585	3119
854.72	3104
854.854	3180
854.988	3009
855.122	3062
855.256	2948
855.39	3135
855.524	3230
855.658	3226
855.792	3161
855.926	3184
856.06	3199
856.194	3218
856.327	3169
856.461	3077
856.595	3051
856.729	3081
856.862	3192
856.996	3142
857.13	3180
857.263	3214
857.397	3245
857.53	3157
857.664	3192
857.797	3230
857.931	3260
858.064	3138
858.197	3260
858.331	3169
858.464	3104
858.597	2979
858.731	3100
858.864	3119
858.997	3074
859.13	3169
859.263	3142
859.396	3180
859.529	3116
859.662	3058
859.795	3013
859.928	3089
860.061	3264
860.194	3310
860.327	3135
860.46	3039
860.592	3218
860.725	3306
860.858	3256
860.99	3100
861.123	3001
861.256	3062
861.388	3123
861.521	3884
861.653	3005
861.786	2944
861.918	2975
862.05	3039
862.183	3085
862.315	3119
862.447	3157
862.58	3074
862.712	2941
862.844	2876
862.976	2971
863.108	3036
863.24	3336
863.372	2883
863.504	2952
863.636	2925
863.768	3043
863.9	2994
864.032	2922
864.164	2990
864.296	3043
864.428	3077
864.559	3081
864.691	3085
864.823	3085
864.954	2990
865.086	3020
865.217	2998
865.349	2952
865.48	2971
865.612	3005
865.743	3100
865.875	2933
866.006	2914
866.137	2956
866.269	2941
866.4	2925
866.531	2941
866.662	2929
866.793	2902
866.924	2891
867.055	2994
867.186	2922
867.317	2906
867.448	2861
867.579	2834
867.71	2857
867.841	2845
867.972	2918
868.103	2910
868.233	2937
868.364	2864
868.495	2887
868.625	3089
868.756	3161
868.886	2952
869.017	2982
869.147	3176
869.278	3146
869.408	3036
869.539	3024
869.669	3077
869.799	3074
869.929	3119
870.06	3066
870.19	3348
870.32	3279
870.45	3287
870.58	3355
870.71	3454
870.84	3447
870.97	3287
871.1	3203
871.23	3488
871.36	3428
871.489	3344
871.619	3397
871.749	3397
871.879	3454
872.008	3462
872.138	3336
872.267	3272
872.397	3089
872.526	3131
872.656	3001
872.785	3135
872.915	3233
873.044	3310
873.173	3195
873.303	3249
873.432	3214
873.561	3241
873.69	3154
873.819	3157
873.948	3135
874.077	3093
874.206	3028
874.335	3081
874.464	3173
874.593	3325
874.722	3214
874.851	3340
874.979	3359
875.108	3306
875.237	3180
875.365	3195
875.494	3180
875.623	3214
875.751	3047
875.88	3123
876.008	3222
876.136	3211
876.265	3367
876.393	3553
876.521	3435
876.65	3386
876.778	3336
876.906	3237
877.034	3192
877.162	3260
877.29	3222
877.418	3268
877.546	3260
877.674	3245
877.802	3226
877.93	3256
878.058	3142
878.185	3074
878.313	3157
878.441	3218
878.568	3104
878.696	3161
878.824	3230
878.951	3291
879.079	3439
879.206	3614
879.333	3428
879.461	3336
879.588	3344
879.715	3519
879.842	3644
879.97	3386
880.097	3169
880.224	3142
880.351	3192
880.478	3218
880.605	3165
880.732	3207
880.859	3534
880.986	3317
881.112	3321
881.239	3195
881.366	3070
881.493	3051
881.619	3020
881.746	3112
881.872	3100
881.999	3142
882.125	3108
882.252	3226
882.378	3291
882.505	3443
882.631	3279
882.757	3169
882.883	3203
883.01	3230
883.136	3142
883.262	3112
883.388	3123
883.514	3272
883.64	3374
883.766	3291
883.892	3211
884.018	3230
884.143	3424
884.269	3557
884.395	3192
884.52	3157
884.646	3176
884.772	3112
884.897	3112
885.023	3180
885.148	3329
885.274	3416
885.399	3351
885.524	3283
885.65	3222
885.775	3336
885.9	3256
886.025	3397
886.15	3363
886.275	3317
886.4	3203
886.525	3249
886.65	3260
886.775	3264
886.9	3466
887.025	3660
887.149	3344
887.274	3253
887.399	3173
887.523	3226
887.648	3146
887.773	3161
887.897	3336
888.021	3389
888.146	3287
888.27	3420
888.395	3492
888.519	3450
888.643	3454
888.767	3447
888.891	3306
889.015	3226
889.139	3279
889.263	3230
889.387	3389
889.511	3523
889.635	3450
889.759	3241
889.883	3279
890.006	3367
890.13	3504
890.254	3310
890.377	3317
890.501	3199
890.624	3173
890.748	3283
890.871	3199
890.995	3112
891.118	3028
891.241	3184
891.364	3218
891.488	3313
891.611	3142
891.734	3169
891.857	3283
891.98	3249
892.103	3321
892.226	3279
892.349	3230
892.471	3097
892.594	3222
892.717	3264
892.839	3264
892.962	3268
893.085	3310
893.207	3287
893.33	3195
893.452	3207
893.575	3291
893.697	3207
893.819	3454
893.941	3530
894.064	3450
894.186	3275
894.308	3302
894.43	3450
894.552	3481
894.674	3473
894.796	3291
894.918	3310
895.04	3245
895.161	3420
895.283	3389
895.405	3275
895.526	3332
895.648	3420
895.769	3412
895.891	3439
896.012	3439
896.134	3443
896.255	3378
896.376	3412
896.498	3348
896.619	3458
896.74	3340
896.861	3401
896.982	3679
897.103	3812
897.224	3568
897.345	3473
897.466	3450
897.587	3485
897.708	3610
897.828	3530
897.949	3428
898.07	3336
898.19	3367
898.311	3591
898.431	3431
898.552	3485
898.672	3580
898.792	3584
898.913	3481
899.033	3389
899.153	3310
899.273	3199
899.393	3310
899.513	3321
899.633	3302
899.753	3306
899.873	3272
899.993	3367
900.113	3294
900.232	3363
900.352	3298
900.472	3264
900.591	3184
900.711	3302
900.83	3211
900.95	3382
901.069	3507
901.189	3302
901.308	3203
901.427	3146
901.546	3184
901.665	3340
901.784	3351
901.904	3207
902.023	3089
902.141	3001
902.26	2952
902.379	3161
902.498	3089
902.617	3062
902.735	3150
902.854	3245
902.973	3157
903.091	3032
903.21	3081
903.328	3112
903.446	3089
903.565	3074
903.683	3192
903.801	3138
903.919	3230
904.038	3260
904.156	3146
904.274	3302
904.392	3264
904.51	3306
904.627	3329
904.745	3420
904.863	3507
904.981	3207
905.098	3146
905.216	3260
905.334	3325
905.451	3272
905.569	3260
905.686	3469
905.803	3416
905.921	3298
906.038	3409
906.155	3363
906.272	3245
906.389	3329
906.506	3256
906.623	3237
906.74	3226
906.857	3195
906.974	3237
907.091	3439
907.208	3530
907.324	3496
907.441	3378
907.557	3241
907.674	3199
907.79	3222
907.907	3241
908.023	3370
908.139	3332
908.256	3298
908.372	3313
908.488	3351
908.604	3218
908.72	3203
908.836	3245
908.952	3268
909.068	3294
909.184	3492
909.3	3409
909.415	3481
909.531	3477
909.647	3241
909.762	3245
909.878	3245
909.993	3332
910.108	3317
910.224	3310
910.339	3424
910.454	3336
910.57	3230
910.685	3203
910.8	3568
910.915	3553
911.03	3405
911.145	3241
911.259	3253
911.374	3317
911.489	3245
911.604	3203
911.718	3085
911.833	3135
911.947	3020
912.062	2952
912.176	3173
912.291	3169
912.405	3192
912.519	3424
912.633	3443
912.748	3291
912.862	3287
912.976	3192
913.09	3058
913.204	3093
913.318	3218
913.431	3344
913.545	3336
913.659	3439
913.772	3329
913.886	3241
914	3226
914.113	3397
914.226	3450
914.34	3355
914.453	3184
914.566	3424
914.68	3329
914.793	3351
914.906	3161
915.019	3146
915.132	3070
915.245	3195
915.358	3233
915.47	3253
915.583	3287
915.696	3283
915.809	3439
915.921	3462
916.034	3249
916.146	3256
916.259	3260
916.371	3420
916.483	3401
916.595	3310
916.708	3363
916.82	3351
916.932	3340
917.044	3378
917.156	3389
917.268	3302
917.38	3367
917.491	3351
917.603	3359
917.715	3469
917.826	3492
917.938	3420
918.049	3279
918.161	3469
918.272	3622
918.384	3599
918.495	3507
918.606	3336
918.717	3340
918.828	3401
918.939	3405
919.05	3370
919.161	3401
919.272	3241
919.383	3348
919.494	3564
919.604	3728
919.715	3538
919.826	3447
919.936	3519
920.047	3641
920.157	3595
920.267	3808
920.378	3644
920.488	3603
920.598	3804
920.708	4017
920.818	3892
920.928	3876
921.038	4082
921.148	4040
921.258	3740
921.368	3622
921.477	3603
921.587	3587
921.697	3473
921.806	3713
921.916	3599
922.025	3393
922.134	3428
922.244	3340
922.353	3466
922.462	3310
922.571	3302
922.68	3112
922.789	3097
922.898	3176
923.007	3154
923.116	3256
923.224	3207
923.333	3264
923.442	3154
923.55	3108
923.659	3173
923.767	3241
923.876	3142
923.984	3268
924.092	3119
924.201	3237
924.309	3253
924.417	3283
924.525	3180
924.633	3249
924.741	4207
924.849	3077
924.956	3313
925.064	3169
925.172	3085
925.279	3108
925.387	3245
925.494	3199
925.602	3382
925.709	3344
925.816	3279
925.924	3359
926.031	3412
926.138	3374
926.245	3401
926.352	3291
926.459	3462
926.566	3481
926.673	3386
926.779	3298
926.886	3249
926.993	3176
927.099	3176
927.206	3161
927.312	3161
927.419	3313
927.525	3222
927.631	3291
927.737	3184
927.843	3127
927.95	3036
928.056	3176
928.162	3218
928.267	3275
928.373	3770
928.479	3329
928.585	3093
928.69	3218
928.796	3302
928.901	3176
929.007	3108
929.112	3222
929.218	3214
929.323	3176
929.428	3142
929.533	3378
929.638	3135
929.743	3180
929.848	3260
929.953	3249
930.058	3173
930.163	3005
930.267	3077
930.372	3226
930.477	3066
930.581	3321
930.685	3195
930.79	3100
930.894	3127
930.998	3116
931.103	3310
931.207	3005
931.311	2960
931.415	2937
931.519	2785
931.623	2838
