Data from test_V78500241_1765.txt Node
Date: Fri Mar 25 16:27:25 CST 2022
User: usil
Spectrometer: V785-0024
Trigger mode: 0
Integration Time (sec): 4.000000E-1
Scans to average: 1
Nonlinearity correction enabled: false
Boxcar width: 0
Storing dark spectrum: false
XAxis mode: Wavelengths
Number of Pixels in Spectrum: 1024
>>>>>Begin Spectral Data<<<<<
801.071	2872
801.214	2925
801.356	2845
801.499	2876
801.641	2838
801.783	2933
801.926	3039
802.068	2971
802.211	2967
802.353	3028
802.496	2963
802.638	3020
802.78	3001
802.923	3070
803.065	3013
803.208	2902
803.35	2880
803.492	2952
803.635	2918
803.777	2743
803.919	2861
804.061	3176
804.204	2925
804.346	2906
804.488	2864
804.63	3001
804.773	2891
804.915	2922
805.057	3097
805.199	2902
805.341	2952
805.483	3024
805.626	2998
805.768	2975
805.91	3062
806.052	3097
806.194	2998
806.336	3256
806.478	3001
806.62	2960
806.762	2933
806.904	3066
807.046	3150
807.188	2956
807.33	2910
807.472	2963
807.614	2883
807.756	3024
807.898	2952
808.04	2902
808.182	2982
808.324	2960
808.465	2876
808.607	2876
808.749	2792
808.891	2849
809.033	3028
809.174	2952
809.316	2899
809.458	2887
809.6	2743
809.741	2754
809.883	2785
810.025	2845
810.166	2819
810.308	2830
810.45	2857
810.591	2781
810.733	2746
810.875	2815
811.016	2796
811.158	2716
811.299	2792
811.441	2922
811.582	2902
811.724	2781
811.865	2842
812.007	2906
812.148	2876
812.29	2849
812.431	2887
812.573	2914
812.714	2952
812.855	3032
812.997	3047
813.138	3104
813.279	2982
813.421	2944
813.562	2967
813.703	2864
813.845	2876
813.986	2746
814.127	2712
814.268	2857
814.41	2861
814.551	2800
814.692	2895
814.833	2815
814.974	2910
815.115	2982
815.256	2857
815.397	2788
815.539	2883
815.68	2762
815.821	2807
815.962	2933
816.103	2914
816.244	2864
816.385	2883
816.526	2948
816.666	2906
816.807	2735
816.948	2891
817.089	2933
817.23	2800
817.371	2781
817.512	2773
817.653	2853
817.793	2815
817.934	2857
818.075	2952
818.216	2998
818.356	3028
818.497	2895
818.638	2811
818.778	2887
818.919	2792
819.06	2773
819.2	2849
819.341	2811
819.481	2823
819.622	2941
819.762	3062
819.903	3074
820.043	2910
820.184	2895
820.324	2872
820.465	3005
820.605	3009
820.746	3009
820.886	2941
821.026	3089
821.167	3127
821.307	3256
821.447	3283
821.588	3203
821.728	3192
821.868	3169
822.008	3074
822.149	3188
822.289	3184
822.429	3127
822.569	3093
822.709	3154
822.849	3001
822.99	3066
823.13	3165
823.27	3165
823.41	3066
823.55	3127
823.69	3154
823.83	3176
823.97	3077
824.11	2990
824.25	2982
824.389	3047
824.529	3127
824.669	3051
824.809	3184
824.949	3222
825.089	3192
825.228	3165
825.368	2982
825.508	2948
825.648	2960
825.787	3013
825.927	3009
826.067	2944
826.206	2944
826.346	3032
826.485	3074
826.625	3089
826.765	3291
826.904	3203
827.044	2990
827.183	2925
827.323	2880
827.462	2963
827.601	2933
827.741	2883
827.88	2967
828.02	2842
828.159	2937
828.298	3032
828.437	3097
828.577	3028
828.716	3226
828.855	3085
828.994	2910
829.134	2895
829.273	2914
829.412	2842
829.551	2872
829.69	2914
829.829	3017
829.968	3150
830.107	3005
830.246	3036
830.385	2906
830.524	2857
830.663	2819
830.802	2705
830.941	2655
831.08	2667
831.219	2766
831.357	2785
831.496	2952
831.635	2724
831.774	2640
831.913	2632
832.051	2514
832.19	2560
832.329	2674
832.467	2533
832.606	2465
832.744	2568
832.883	2587
833.022	2575
833.16	2606
833.299	2678
833.437	2678
833.576	2682
833.714	2701
833.852	2716
833.991	2777
834.129	2819
834.267	2819
834.406	2804
834.544	2857
834.682	2899
834.821	2880
834.959	3047
835.097	2868
835.235	3058
835.373	2990
835.511	3001
835.65	2922
835.788	2922
835.926	2830
836.064	2796
836.202	2823
836.34	3093
836.478	3157
836.615	3032
836.753	3100
836.891	3188
837.029	3157
837.167	3100
837.305	3055
837.443	3043
837.58	2910
837.718	3154
837.856	3097
837.993	3017
838.131	3104
838.269	3108
838.406	3093
838.544	3085
838.681	2941
838.819	2891
838.956	2807
839.094	2838
839.231	2941
839.369	3020
839.506	3317
839.643	3192
839.781	3001
839.918	2967
840.055	3005
840.193	3036
840.33	3089
840.467	3097
840.604	3123
840.742	3409
840.879	3055
841.016	3089
841.153	3097
841.29	3340
841.427	3283
841.564	3298
841.701	3275
841.838	3199
841.975	3211
842.112	3184
842.249	3097
842.385	3028
842.522	3237
842.659	3055
842.796	3055
842.933	3062
843.069	3047
843.206	3051
843.343	3161
843.479	3097
843.616	3123
843.752	2902
843.889	2853
844.025	3020
844.162	2906
844.298	3066
844.435	2941
844.571	2899
844.708	3077
844.844	3142
844.98	3256
845.117	3188
845.253	3043
845.389	3043
845.525	3112
845.661	3058
845.798	2967
845.934	3135
846.07	3047
846.206	3233
846.342	3298
846.478	3199
846.614	3108
846.75	3043
846.886	2986
847.022	3253
847.158	3127
847.294	3173
847.429	3211
847.565	3218
847.701	3519
847.837	3024
847.972	2986
848.108	3169
848.244	3119
848.379	2998
848.515	2918
848.65	2933
848.786	2944
848.921	3009
849.057	3097
849.192	3127
849.328	3062
849.463	3089
849.598	3047
849.734	3036
849.869	2975
850.004	2891
850.14	2948
850.275	2880
850.41	2853
850.545	2883
850.68	2902
850.815	2933
850.95	2960
851.085	3188
851.22	3112
851.355	3020
851.49	2963
851.625	2986
851.76	3009
851.895	2899
852.03	2887
852.165	3028
852.299	3066
852.434	3169
852.569	3157
852.703	3146
852.838	3218
852.973	3351
853.107	3329
853.242	3169
853.376	3070
853.511	2956
853.645	3036
853.78	3188
853.914	3104
854.048	3077
854.183	3081
854.317	3142
854.451	3298
854.585	3108
854.72	3047
854.854	3226
854.988	3039
855.122	3077
855.256	2925
855.39	3119
855.524	3241
855.658	3169
855.792	3146
855.926	3150
856.06	3169
856.194	3256
856.327	3150
856.461	3043
856.595	3077
856.729	3058
856.862	3195
856.996	3150
857.13	3176
857.263	3230
857.397	3279
857.53	3093
857.664	3173
857.797	3195
857.931	3233
858.064	3161
858.197	3233
858.331	3150
858.464	3100
858.597	2994
858.731	3123
858.864	3127
858.997	3081
859.13	3100
859.263	3119
859.396	3165
859.529	3070
859.662	3024
859.795	3036
859.928	3135
860.061	3310
860.194	3291
860.327	3108
860.46	3093
860.592	3207
860.725	3203
860.858	3245
860.99	3104
861.123	3077
861.256	3043
861.388	3108
861.521	3835
861.653	2986
861.786	2986
861.918	3005
862.05	3043
862.183	3066
862.315	3161
862.447	3176
862.58	3116
862.712	2952
862.844	2887
862.976	2998
863.108	2971
863.24	3313
863.372	2872
863.504	2933
863.636	2963
863.768	3005
863.9	2994
864.032	2887
864.164	2948
864.296	3020
864.428	3085
864.559	3074
864.691	3058
864.823	3051
864.954	3039
865.086	3009
865.217	2990
865.349	2944
865.48	2960
865.612	2994
865.743	3127
865.875	2994
866.006	2922
866.137	2952
866.269	2963
866.4	2922
866.531	2891
866.662	2899
866.793	2864
866.924	2880
867.055	2971
867.186	2910
867.317	2872
867.448	2857
867.579	2861
867.71	2853
867.841	2819
867.972	2914
868.103	2853
868.233	2853
868.364	2883
868.495	2902
868.625	3058
868.756	3146
868.886	2986
869.017	3009
869.147	3173
869.278	3169
869.408	3055
869.539	3028
869.669	3093
869.799	3039
869.929	3157
870.06	3123
870.19	3317
870.32	3275
870.45	3241
870.58	3386
870.71	3405
870.84	3386
870.97	3321
871.1	3199
871.23	3488
871.36	3469
871.489	3344
871.619	3401
871.749	3393
871.879	3416
872.008	3485
872.138	3340
872.267	3249
872.397	3142
872.526	3104
872.656	2975
872.785	3081
872.915	3203
873.044	3279
873.173	3199
873.303	3249
873.432	3203
873.561	3241
873.69	3138
873.819	3157
873.948	3195
874.077	3089
874.206	3036
874.335	3081
874.464	3161
874.593	3332
874.722	3249
874.851	3393
874.979	3332
875.108	3310
875.237	3211
875.365	3157
875.494	3116
875.623	3241
875.751	3055
875.88	3108
876.008	3169
876.136	3192
876.265	3329
876.393	3504
876.521	3405
876.65	3397
876.778	3359
876.906	3237
877.034	3176
877.162	3195
877.29	3199
877.418	3260
877.546	3192
877.674	3241
877.802	3214
877.93	3237
878.058	3165
878.185	3135
878.313	3211
878.441	3195
878.568	3085
878.696	3176
878.824	3233
878.951	3279
879.079	3477
879.206	3629
879.333	3416
879.461	3332
879.588	3348
879.715	3473
879.842	3561
879.97	3370
880.097	3173
880.224	3085
880.351	3226
880.478	3214
880.605	3157
880.732	3157
880.859	3466
880.986	3302
881.112	3317
881.239	3161
881.366	3104
881.493	3028
881.619	3020
881.746	3058
881.872	3089
881.999	3093
882.125	3135
882.252	3207
882.378	3275
882.505	3389
882.631	3291
882.757	3135
882.883	3199
883.01	3207
883.136	3161
883.262	3093
883.388	3131
883.514	3306
883.64	3344
883.766	3317
883.892	3165
884.018	3218
884.143	3424
884.269	3553
884.395	3199
884.52	3146
884.646	3138
884.772	3123
884.897	3104
885.023	3184
885.148	3310
885.274	3428
885.399	3389
885.524	3268
885.65	3260
885.775	3321
885.9	3260
886.025	3412
886.15	3332
886.275	3283
886.4	3214
886.525	3294
886.65	3256
886.775	3283
886.9	3519
887.025	3663
887.149	3416
887.274	3256
887.399	3176
887.523	3222
887.648	3165
887.773	3173
887.897	3332
888.021	3389
888.146	3260
888.27	3431
888.395	3526
888.519	3450
888.643	3409
888.767	3492
888.891	3317
889.015	3226
889.139	3272
889.263	3237
889.387	3378
889.511	3492
889.635	3424
889.759	3260
889.883	3313
890.006	3382
890.13	3431
890.254	3230
890.377	3313
890.501	3214
890.624	3195
890.748	3287
890.871	3176
890.995	3081
891.118	3058
891.241	3180
891.364	3214
891.488	3272
891.611	3142
891.734	3188
891.857	3233
891.98	3241
892.103	3302
892.226	3256
892.349	3222
892.471	3093
892.594	3218
892.717	3230
892.839	3272
892.962	3272
893.085	3355
893.207	3272
893.33	3135
893.452	3218
893.575	3310
893.697	3241
893.819	3469
893.941	3481
894.064	3439
894.186	3249
894.308	3211
894.43	3443
894.552	3545
894.674	3504
894.796	3272
894.918	3294
895.04	3302
895.161	3431
895.283	3374
895.405	3317
895.526	3355
895.648	3363
895.769	3401
895.891	3450
896.012	3469
896.134	3458
896.255	3374
896.376	3359
896.498	3359
896.619	3367
896.74	3374
896.861	3393
896.982	3675
897.103	3808
897.224	3584
897.345	3488
897.466	3443
897.587	3473
897.708	3637
897.828	3523
897.949	3401
898.07	3321
898.19	3332
898.311	3595
898.431	3439
898.552	3534
898.672	3618
898.792	3557
898.913	3523
899.033	3367
899.153	3291
899.273	3207
899.393	3264
899.513	3306
899.633	3340
899.753	3340
899.873	3283
899.993	3401
900.113	3313
900.232	3336
900.352	3336
900.472	3256
900.591	3222
900.711	3275
900.83	3207
900.95	3401
901.069	3469
901.189	3325
901.308	3161
901.427	3100
901.546	3150
901.665	3249
901.784	3336
901.904	3165
902.023	3138
902.141	3043
902.26	2979
902.379	3154
902.498	3116
902.617	3043
902.735	3230
902.854	3230
902.973	3188
903.091	3043
903.21	3047
903.328	3135
903.446	3127
903.565	3074
903.683	3218
903.801	3150
903.919	3264
904.038	3302
904.156	3199
904.274	3306
904.392	3264
904.51	3329
904.627	3386
904.745	3500
904.863	3557
904.981	3298
905.098	3199
905.216	3226
905.334	3329
905.451	3370
905.569	3340
905.686	3450
905.803	3443
905.921	3306
906.038	3458
906.155	3389
906.272	3367
906.389	3370
906.506	3298
906.623	3302
906.74	3325
906.857	3241
906.974	3298
907.091	3466
907.208	3584
907.324	3545
907.441	3420
907.557	3310
907.674	3294
907.79	3260
907.907	3348
908.023	3386
908.139	3424
908.256	3355
908.372	3382
908.488	3374
908.604	3317
908.72	3294
908.836	3348
908.952	3306
909.068	3348
909.184	3458
909.3	3412
909.415	3526
909.531	3477
909.647	3351
909.762	3332
909.878	3249
909.993	3412
910.108	3401
910.224	3401
910.339	3466
910.454	3374
910.57	3359
910.685	3253
910.8	3614
910.915	3553
911.03	3469
911.145	3302
911.259	3332
911.374	3340
911.489	3245
911.604	3249
911.718	3146
911.833	3199
911.947	3051
912.062	3005
912.176	3195
912.291	3230
912.405	3211
912.519	3485
912.633	3519
912.748	3378
912.862	3332
912.976	3218
913.09	3097
913.204	3195
913.318	3218
913.431	3355
913.545	3355
913.659	3473
913.772	3370
913.886	3275
914	3256
914.113	3367
914.226	3439
914.34	3412
914.453	3253
914.566	3443
914.68	3340
914.793	3340
914.906	3176
915.019	3142
915.132	3127
915.245	3226
915.358	3256
915.47	3230
915.583	3256
915.696	3294
915.809	3428
915.921	3458
916.034	3287
916.146	3283
916.259	3226
916.371	3389
916.483	3405
916.595	3336
916.708	3363
916.82	3370
916.932	3348
917.044	3409
917.156	3348
917.268	3283
917.38	3344
917.491	3329
917.603	3397
917.715	3466
917.826	3500
917.938	3389
918.049	3272
918.161	3473
918.272	3618
918.384	3587
918.495	3538
918.606	3340
918.717	3329
918.828	3405
918.939	3424
919.05	3306
919.161	3397
919.272	3207
919.383	3321
919.494	3523
919.604	3728
919.715	3519
919.826	3469
919.936	3454
920.047	3587
920.157	3622
920.267	3751
920.378	3610
920.488	3603
920.598	3762
920.708	4010
920.818	3854
920.928	3857
921.038	4101
921.148	4055
921.258	3705
921.368	3641
921.477	3591
921.587	3553
921.697	3447
921.806	3667
921.916	3549
922.025	3412
922.134	3363
922.244	3378
922.353	3420
922.462	3355
922.571	3256
922.68	3146
922.789	3116
922.898	3184
923.007	3157
923.116	3241
923.224	3214
923.333	3222
923.442	3127
923.55	3100
923.659	3184
923.767	3241
923.876	3188
923.984	3283
924.092	3100
924.201	3230
924.309	3264
924.417	3268
924.525	3233
924.633	3268
924.741	4048
924.849	3077
924.956	3294
925.064	3116
925.172	3051
925.279	3154
925.387	3203
925.494	3237
925.602	3378
925.709	3386
925.816	3203
925.924	3332
926.031	3416
926.138	3363
926.245	3416
926.352	3275
926.459	3450
926.566	3530
926.673	3378
926.779	3287
926.886	3283
926.993	3165
927.099	3146
927.206	3146
927.312	3165
927.419	3294
927.525	3222
927.631	3336
927.737	3169
927.843	3138
927.95	3055
928.056	3165
928.162	3188
928.267	3283
928.373	3922
928.479	3332
928.585	3077
928.69	3268
928.796	3317
928.901	3203
929.007	3116
929.112	3230
929.218	3207
929.323	3135
929.428	3165
929.533	3336
929.638	3123
929.743	3180
929.848	3321
929.953	3268
930.058	3157
930.163	3024
930.267	3093
930.372	3199
930.477	3047
930.581	3332
930.685	3176
930.79	3077
930.894	3161
930.998	3135
931.103	3279
931.207	3001
931.311	2941
931.415	2956
931.519	2807
931.623	2849
