Data from test_V78500241_1832.txt Node
Date: Fri Mar 25 16:27:53 CST 2022
User: usil
Spectrometer: V785-0024
Trigger mode: 0
Integration Time (sec): 4.000000E-1
Scans to average: 1
Nonlinearity correction enabled: false
Boxcar width: 0
Storing dark spectrum: false
XAxis mode: Wavelengths
Number of Pixels in Spectrum: 1024
>>>>>Begin Spectral Data<<<<<
801.071	2956
801.214	2982
801.356	2922
801.499	2906
801.641	2883
801.783	2902
801.926	3058
802.068	3009
802.211	3039
802.353	3032
802.496	2979
802.638	3020
802.78	3093
802.923	3089
803.065	2967
803.208	2941
803.35	2918
803.492	2937
803.635	2941
803.777	2773
803.919	2876
804.061	3211
804.204	3001
804.346	2956
804.488	2868
804.63	2960
804.773	2876
804.915	2902
805.057	3135
805.199	2944
805.341	2971
805.483	3074
805.626	3039
805.768	2952
805.91	3119
806.052	3146
806.194	3066
806.336	3237
806.478	3058
806.62	2967
806.762	3055
806.904	3051
807.046	3146
807.188	3013
807.33	2922
807.472	3036
807.614	2880
807.756	2998
807.898	2922
808.04	2929
808.182	2986
808.324	2937
808.465	2899
808.607	2861
808.749	2819
808.891	2868
809.033	3001
809.174	2994
809.316	2902
809.458	2899
809.6	2758
809.741	2826
809.883	2758
810.025	2861
810.166	2914
810.308	2838
810.45	2872
810.591	2777
810.733	2823
810.875	2823
811.016	2834
811.158	2811
811.299	2823
811.441	2941
811.582	2971
811.724	2845
811.865	2838
812.007	2914
812.148	2864
812.29	2872
812.431	2883
812.573	2925
812.714	2982
812.855	3043
812.997	3036
813.138	3169
813.279	2998
813.421	2990
813.562	2952
813.703	2861
813.845	2880
813.986	2800
814.127	2766
814.268	2849
814.41	2868
814.551	2815
814.692	2895
814.833	2830
814.974	2872
815.115	2990
815.256	2834
815.397	2807
815.539	2876
815.68	2781
815.821	2766
815.962	2937
816.103	2906
816.244	2899
816.385	2883
816.526	2975
816.666	2933
816.807	2754
816.948	2880
817.089	2899
817.23	2887
817.371	2800
817.512	2781
817.653	2876
817.793	2838
817.934	2883
818.075	2979
818.216	2971
818.356	2982
818.497	2918
818.638	2785
818.778	2826
818.919	2796
819.06	2754
819.2	2880
819.341	2819
819.481	2826
819.622	2910
819.762	3116
819.903	3077
820.043	2925
820.184	2918
820.324	2895
820.465	3017
820.605	3043
820.746	3005
820.886	2960
821.026	3104
821.167	3161
821.307	3253
821.447	3291
821.588	3237
821.728	3199
821.868	3195
822.008	3089
822.149	3207
822.289	3226
822.429	3089
822.569	3055
822.709	3150
822.849	3058
822.99	3074
823.13	3161
823.27	3176
823.41	3131
823.55	3157
823.69	3169
823.83	3222
823.97	3085
824.11	2998
824.25	3039
824.389	3070
824.529	3135
824.669	3081
824.809	3180
824.949	3241
825.089	3222
825.228	3154
825.368	3001
825.508	2963
825.648	2960
825.787	3005
825.927	3013
826.067	2952
826.206	2933
826.346	3043
826.485	3089
826.625	3089
826.765	3279
826.904	3203
827.044	3013
827.183	2937
827.323	2838
827.462	2975
827.601	2929
827.741	2922
827.88	2982
828.02	2826
828.159	2967
828.298	3039
828.437	3077
828.577	3039
828.716	3237
828.855	3085
828.994	2906
829.134	2887
829.273	2918
829.412	2845
829.551	2887
829.69	2880
829.829	2986
829.968	3123
830.107	2956
830.246	3009
830.385	2895
830.524	2902
830.663	2811
830.802	2708
830.941	2659
831.08	2621
831.219	2750
831.357	2750
831.496	2952
831.635	2708
831.774	2644
831.913	2659
832.051	2549
832.19	2587
832.329	2670
832.467	2541
832.606	2484
832.744	2560
832.883	2568
833.022	2579
833.16	2655
833.299	2705
833.437	2708
833.576	2716
833.714	2727
833.852	2724
833.991	2769
834.129	2826
834.267	2834
834.406	2792
834.544	2902
834.682	2880
834.821	2880
834.959	3066
835.097	2914
835.235	3085
835.373	3009
835.511	2998
835.65	2929
835.788	2967
835.926	2842
836.064	2823
836.202	2849
836.34	3066
836.478	3157
836.615	3024
836.753	3142
836.891	3203
837.029	3169
837.167	3097
837.305	3062
837.443	3032
837.58	2952
837.718	3108
837.856	3047
837.993	3070
838.131	3097
838.269	3066
838.406	3108
838.544	3112
838.681	2944
838.819	2925
838.956	2819
839.094	2849
839.231	2902
839.369	3028
839.506	3401
839.643	3207
839.781	2994
839.918	2975
840.055	3051
840.193	3039
840.33	3077
840.467	3085
840.604	3112
840.742	3431
840.879	3051
841.016	3074
841.153	3119
841.29	3325
841.427	3283
841.564	3256
841.701	3321
841.838	3233
841.975	3199
842.112	3226
842.249	3085
842.385	3066
842.522	3264
842.659	3100
842.796	3058
842.933	3089
843.069	2998
843.206	3036
843.343	3169
843.479	3119
843.616	3150
843.752	2861
843.889	2868
844.025	3093
844.162	2925
844.298	3077
844.435	2952
844.571	2933
844.708	3100
844.844	3188
844.98	3203
845.117	3188
845.253	3013
845.389	2998
845.525	3081
845.661	3100
845.798	3039
845.934	3165
846.07	3036
846.206	3230
846.342	3325
846.478	3241
846.614	3074
846.75	3055
846.886	3039
847.022	3226
847.158	3135
847.294	3214
847.429	3195
847.565	3218
847.701	3466
847.837	3017
847.972	3005
848.108	3135
848.244	3123
848.379	2998
848.515	2922
848.65	2948
848.786	2944
848.921	3013
849.057	3089
849.192	3146
849.328	3085
849.463	3097
849.598	3055
849.734	3066
849.869	2986
850.004	2956
850.14	2967
850.275	2880
850.41	2861
850.545	2899
850.68	2922
850.815	2963
850.95	2963
851.085	3180
851.22	3074
851.355	3043
851.49	2967
851.625	2994
851.76	3017
851.895	2933
852.03	2929
852.165	3100
852.299	3138
852.434	3180
852.569	3173
852.703	3199
852.838	3245
852.973	3336
853.107	3348
853.242	3169
853.376	3116
853.511	2963
853.645	3089
853.78	3264
853.914	3176
854.048	3157
854.183	3112
854.317	3218
854.451	3298
854.585	3195
854.72	3135
854.854	3245
854.988	3089
855.122	3146
855.256	3024
855.39	3123
855.524	3287
855.658	3218
855.792	3146
855.926	3256
856.06	3237
856.194	3291
856.327	3203
856.461	3127
856.595	3100
856.729	3138
856.862	3260
856.996	3169
857.13	3291
857.263	3279
857.397	3325
857.53	3154
857.664	3207
857.797	3253
857.931	3325
858.064	3188
858.197	3253
858.331	3146
858.464	3161
858.597	3055
858.731	3157
858.864	3127
858.997	3135
859.13	3192
859.263	3218
859.396	3233
859.529	3119
859.662	3119
859.795	3127
859.928	3123
860.061	3302
860.194	3355
860.327	3135
860.46	3119
860.592	3249
860.725	3298
860.858	3298
860.99	3119
861.123	3081
861.256	3074
861.388	3173
861.521	3884
861.653	3051
861.786	3017
861.918	2998
862.05	3135
862.183	3142
862.315	3176
862.447	3233
862.58	3119
862.712	2998
862.844	2895
862.976	3066
863.108	3051
863.24	3496
863.372	2891
863.504	2990
863.636	2975
863.768	3039
863.9	3013
864.032	2918
864.164	2967
864.296	3036
864.428	3123
864.559	3112
864.691	3093
864.823	3089
864.954	3051
865.086	3138
865.217	3047
865.349	2982
865.48	3005
865.612	3020
865.743	3214
865.875	3009
866.006	3005
866.137	2998
866.269	2994
866.4	2967
866.531	2952
866.662	2937
866.793	2956
866.924	2937
867.055	3001
867.186	2967
867.317	2899
867.448	2857
867.579	2868
867.71	2868
867.841	2868
867.972	2937
868.103	2971
868.233	2883
868.364	2914
868.495	2933
868.625	3135
868.756	3188
868.886	3017
869.017	3077
869.147	3211
869.278	3203
869.408	3077
869.539	3028
869.669	3138
869.799	3020
869.929	3218
870.06	3176
870.19	3336
870.32	3298
870.45	3351
870.58	3428
870.71	3488
870.84	3507
870.97	3336
871.1	3268
871.23	3557
871.36	3469
871.489	3367
871.619	3412
871.749	3458
871.879	3450
872.008	3542
872.138	3378
872.267	3294
872.397	3184
872.526	3146
872.656	3028
872.785	3116
872.915	3233
873.044	3348
873.173	3237
873.303	3253
873.432	3321
873.561	3272
873.69	3218
873.819	3157
873.948	3233
874.077	3154
874.206	3127
874.335	3131
874.464	3214
874.593	3409
874.722	3264
874.851	3428
874.979	3359
875.108	3332
875.237	3211
875.365	3211
875.494	3218
875.623	3249
875.751	3089
875.88	3135
876.008	3192
876.136	3279
876.265	3416
876.393	3564
876.521	3454
876.65	3401
876.778	3359
876.906	3260
877.034	3169
877.162	3222
877.29	3214
877.418	3256
877.546	3264
877.674	3287
877.802	3249
877.93	3199
878.058	3176
878.185	3135
878.313	3245
878.441	3218
878.568	3123
878.696	3123
878.824	3283
878.951	3340
879.079	3458
879.206	3652
879.333	3473
879.461	3382
879.588	3374
879.715	3530
879.842	3603
879.97	3359
880.097	3188
880.224	3123
880.351	3226
880.478	3211
880.605	3214
880.732	3192
880.859	3523
880.986	3306
881.112	3325
881.239	3199
881.366	3138
881.493	3066
881.619	3036
881.746	3112
881.872	3142
881.999	3161
882.125	3169
882.252	3313
882.378	3302
882.505	3492
882.631	3298
882.757	3138
882.883	3222
883.01	3237
883.136	3176
883.262	3142
883.388	3138
883.514	3321
883.64	3409
883.766	3298
883.892	3195
884.018	3279
884.143	3431
884.269	3572
884.395	3207
884.52	3199
884.646	3199
884.772	3127
884.897	3127
885.023	3199
885.148	3329
885.274	3409
885.399	3389
885.524	3279
885.65	3275
885.775	3344
885.9	3313
886.025	3466
886.15	3393
886.275	3355
886.4	3230
886.525	3363
886.65	3302
886.775	3294
886.9	3523
887.025	3599
887.149	3454
887.274	3317
887.399	3207
887.523	3199
887.648	3203
887.773	3230
887.897	3348
888.021	3416
888.146	3340
888.27	3439
888.395	3572
888.519	3466
888.643	3473
888.767	3473
888.891	3344
889.015	3306
889.139	3329
889.263	3294
889.387	3439
889.511	3500
889.635	3481
889.759	3283
889.883	3272
890.006	3428
890.13	3523
890.254	3260
890.377	3405
890.501	3214
890.624	3195
890.748	3310
890.871	3195
890.995	3108
891.118	3100
891.241	3184
891.364	3195
891.488	3329
891.611	3184
891.734	3272
891.857	3264
891.98	3264
892.103	3359
892.226	3253
892.349	3214
892.471	3138
892.594	3268
892.717	3313
892.839	3306
892.962	3264
893.085	3439
893.207	3313
893.33	3188
893.452	3253
893.575	3367
893.697	3298
893.819	3507
893.941	3477
894.064	3424
894.186	3291
894.308	3317
894.43	3473
894.552	3504
894.674	3473
894.796	3272
894.918	3302
895.04	3306
895.161	3469
895.283	3374
895.405	3294
895.526	3386
895.648	3428
895.769	3435
895.891	3469
896.012	3492
896.134	3473
896.255	3405
896.376	3405
896.498	3374
896.619	3431
896.74	3416
896.861	3382
896.982	3694
897.103	3865
897.224	3599
897.345	3526
897.466	3428
897.587	3488
897.708	3629
897.828	3545
897.949	3488
898.07	3355
898.19	3420
898.311	3591
898.431	3450
898.552	3488
898.672	3633
898.792	3591
898.913	3564
899.033	3420
899.153	3306
899.273	3253
899.393	3275
899.513	3329
899.633	3332
899.753	3329
899.873	3321
899.993	3450
900.113	3382
900.232	3401
900.352	3367
900.472	3321
900.591	3245
900.711	3317
900.83	3283
900.95	3420
901.069	3526
901.189	3367
901.308	3180
901.427	3138
901.546	3192
901.665	3306
901.784	3340
901.904	3218
902.023	3161
902.141	2990
902.26	3001
902.379	3173
902.498	3100
902.617	3066
902.735	3226
902.854	3237
902.973	3199
903.091	3055
903.21	3074
903.328	3119
903.446	3154
903.565	3123
903.683	3214
903.801	3169
903.919	3218
904.038	3313
904.156	3211
904.274	3298
904.392	3279
904.51	3306
904.627	3355
904.745	3454
904.863	3534
904.981	3279
905.098	3214
905.216	3218
905.334	3332
905.451	3351
905.569	3329
905.686	3477
905.803	3469
905.921	3310
906.038	3424
906.155	3359
906.272	3291
906.389	3310
906.506	3283
906.623	3310
906.74	3279
906.857	3222
906.974	3302
907.091	3466
907.208	3557
907.324	3492
907.441	3409
907.557	3256
907.674	3237
907.79	3207
907.907	3302
908.023	3439
908.139	3386
908.256	3306
908.372	3359
908.488	3332
908.604	3287
908.72	3233
908.836	3268
908.952	3283
909.068	3370
909.184	3485
909.3	3393
909.415	3526
909.531	3485
909.647	3306
909.762	3283
909.878	3302
909.993	3378
910.108	3378
910.224	3344
910.339	3439
910.454	3363
910.57	3294
910.685	3260
910.8	3641
910.915	3549
911.03	3454
911.145	3256
911.259	3283
911.374	3310
911.489	3233
911.604	3233
911.718	3119
911.833	3173
911.947	3036
912.062	3005
912.176	3150
912.291	3203
912.405	3207
912.519	3412
912.633	3466
912.748	3348
912.862	3291
912.976	3169
913.09	3005
913.204	3123
913.318	3199
913.431	3306
913.545	3370
913.659	3454
913.772	3340
913.886	3237
914	3207
914.113	3378
914.226	3431
914.34	3386
914.453	3222
914.566	3416
914.68	3302
914.793	3291
914.906	3176
915.019	3123
915.132	3081
915.245	3142
915.358	3256
915.47	3249
915.583	3287
915.696	3294
915.809	3389
915.921	3454
916.034	3256
916.146	3245
916.259	3253
916.371	3393
916.483	3389
916.595	3291
916.708	3321
916.82	3348
916.932	3359
917.044	3367
917.156	3374
917.268	3268
917.38	3325
917.491	3321
917.603	3374
917.715	3469
917.826	3454
917.938	3389
918.049	3275
918.161	3447
918.272	3553
918.384	3549
918.495	3473
918.606	3325
918.717	3260
918.828	3367
918.939	3424
919.05	3302
919.161	3363
919.272	3176
919.383	3283
919.494	3542
919.604	3682
919.715	3534
919.826	3409
919.936	3504
920.047	3595
920.157	3557
920.267	3789
920.378	3610
920.488	3561
920.598	3781
920.708	3934
920.818	3831
920.928	3854
921.038	4010
921.148	4006
921.258	3728
921.368	3660
921.477	3576
921.587	3530
921.697	3439
921.806	3656
921.916	3477
922.025	3321
922.134	3340
922.244	3302
922.353	3424
922.462	3275
922.571	3226
922.68	3104
922.789	3116
922.898	3203
923.007	3127
923.116	3188
923.224	3188
923.333	3165
923.442	3108
923.55	3077
923.659	3150
923.767	3245
923.876	3123
923.984	3268
924.092	3108
924.201	3207
924.309	3230
924.417	3222
924.525	3203
924.633	3233
924.741	4181
924.849	3062
924.956	3313
925.064	3055
925.172	3058
925.279	3119
925.387	3207
925.494	3184
925.602	3332
925.709	3325
925.816	3192
925.924	3287
926.031	3389
926.138	3291
926.245	3367
926.352	3222
926.459	3420
926.566	3435
926.673	3332
926.779	3226
926.886	3230
926.993	3165
927.099	3127
927.206	3150
927.312	3116
927.419	3226
927.525	3195
927.631	3283
927.737	3142
927.843	3165
927.95	3039
928.056	3131
928.162	3214
928.267	3230
928.373	3770
928.479	3321
928.585	3100
928.69	3241
928.796	3275
928.901	3131
929.007	3062
929.112	3199
929.218	3169
929.323	3146
929.428	3138
929.533	3279
929.638	3131
929.743	3157
929.848	3272
929.953	3211
930.058	3142
930.163	3055
930.267	3036
930.372	3192
930.477	3032
930.581	3329
930.685	3203
930.79	3043
930.894	3127
930.998	3119
931.103	3302
931.207	2982
931.311	2960
931.415	2941
931.519	2800
931.623	2823
