Data from test_V78500241_1803.txt Node
Date: Fri Mar 25 16:27:41 CST 2022
User: usil
Spectrometer: V785-0024
Trigger mode: 0
Integration Time (sec): 4.000000E-1
Scans to average: 1
Nonlinearity correction enabled: false
Boxcar width: 0
Storing dark spectrum: false
XAxis mode: Wavelengths
Number of Pixels in Spectrum: 1024
>>>>>Begin Spectral Data<<<<<
801.071	2933
801.214	2944
801.356	2883
801.499	2910
801.641	2857
801.783	2922
801.926	3043
802.068	2982
802.211	2960
802.353	3036
802.496	2967
802.638	3009
802.78	3047
802.923	3009
803.065	2998
803.208	2857
803.35	2910
803.492	2922
803.635	2914
803.777	2739
803.919	2895
804.061	3165
804.204	2956
804.346	2899
804.488	2857
804.63	3017
804.773	2872
804.915	2891
805.057	3047
805.199	2937
805.341	2960
805.483	3039
805.626	2982
805.768	2948
805.91	3074
806.052	3077
806.194	3051
806.336	3233
806.478	3028
806.62	2952
806.762	2948
806.904	3043
807.046	3184
807.188	2979
807.33	2929
807.472	2963
807.614	2899
807.756	2967
807.898	2937
808.04	2910
808.182	2971
808.324	2933
808.465	2883
808.607	2864
808.749	2792
808.891	2815
809.033	2960
809.174	2937
809.316	2868
809.458	2899
809.6	2750
809.741	2788
809.883	2777
810.025	2819
810.166	2826
810.308	2811
810.45	2857
810.591	2766
810.733	2754
810.875	2826
811.016	2777
811.158	2762
811.299	2785
811.441	2929
811.582	2929
811.724	2830
811.865	2785
812.007	2918
812.148	2864
812.29	2880
812.431	2880
812.573	2956
812.714	2944
812.855	3062
812.997	3020
813.138	3108
813.279	3009
813.421	2975
813.562	2948
813.703	2880
813.845	2902
813.986	2762
814.127	2746
814.268	2819
814.41	2842
814.551	2815
814.692	2842
814.833	2826
814.974	2922
815.115	2956
815.256	2830
815.397	2834
815.539	2849
815.68	2773
815.821	2743
815.962	2948
816.103	2948
816.244	2887
816.385	2880
816.526	2990
816.666	2918
816.807	2766
816.948	2864
817.089	2891
817.23	2861
817.371	2788
817.512	2815
817.653	2861
817.793	2807
817.934	2914
818.075	2975
818.216	3039
818.356	3009
818.497	2891
818.638	2781
818.778	2838
818.919	2781
819.06	2773
819.2	2883
819.341	2792
819.481	2826
819.622	2933
819.762	3116
819.903	3058
820.043	2929
820.184	2925
820.324	2910
820.465	3028
820.605	3024
820.746	3001
820.886	2963
821.026	3066
821.167	3176
821.307	3253
821.447	3291
821.588	3256
821.728	3173
821.868	3195
822.008	3074
822.149	3138
822.289	3233
822.429	3077
822.569	3108
822.709	3211
822.849	2990
822.99	3043
823.13	3161
823.27	3195
823.41	3097
823.55	3104
823.69	3138
823.83	3169
823.97	3058
824.11	2986
824.25	2948
824.389	3077
824.529	3135
824.669	3100
824.809	3195
824.949	3237
825.089	3184
825.228	3180
825.368	3001
825.508	2929
825.648	2990
825.787	3036
825.927	3013
826.067	2948
826.206	2922
826.346	3058
826.485	3119
826.625	3104
826.765	3272
826.904	3199
827.044	3001
827.183	2944
827.323	2834
827.462	2986
827.601	2925
827.741	2918
827.88	2994
828.02	2853
828.159	2941
828.298	3036
828.437	3081
828.577	3058
828.716	3226
828.855	3074
828.994	2918
829.134	2887
829.273	2895
829.412	2853
829.551	2845
829.69	2891
829.829	2986
829.968	3150
830.107	2998
830.246	3024
830.385	2887
830.524	2880
830.663	2807
830.802	2743
830.941	2648
831.08	2655
831.219	2739
831.357	2754
831.496	2914
831.635	2735
831.774	2632
831.913	2678
832.051	2571
832.19	2583
832.329	2651
832.467	2522
832.606	2495
832.744	2579
832.883	2560
833.022	2575
833.16	2629
833.299	2670
833.437	2674
833.576	2689
833.714	2705
833.852	2750
833.991	2731
834.129	2842
834.267	2823
834.406	2800
834.544	2845
834.682	2876
834.821	2899
834.959	3070
835.097	2952
835.235	3051
835.373	2982
835.511	3058
835.65	2963
835.788	2975
835.926	2845
836.064	2754
836.202	2861
836.34	3074
836.478	3169
836.615	3039
836.753	3131
836.891	3241
837.029	3203
837.167	3077
837.305	3039
837.443	3055
837.58	2986
837.718	3135
837.856	3028
837.993	3055
838.131	3097
838.269	3135
838.406	3108
838.544	3051
838.681	2918
838.819	2922
838.956	2766
839.094	2800
839.231	2891
839.369	2994
839.506	3386
839.643	3207
839.781	3005
839.918	3009
840.055	3036
840.193	3032
840.33	3047
840.467	3085
840.604	3135
840.742	3374
840.879	2990
841.016	3013
841.153	3093
841.29	3325
841.427	3306
841.564	3283
841.701	3279
841.838	3184
841.975	3173
842.112	3207
842.249	3081
842.385	3036
842.522	3218
842.659	3074
842.796	3058
842.933	3123
843.069	3055
843.206	3051
843.343	3157
843.479	3081
843.616	3119
843.752	2902
843.889	2849
844.025	3108
844.162	2880
844.298	3093
844.435	2975
844.571	2933
844.708	3043
844.844	3207
844.98	3203
845.117	3199
845.253	3017
845.389	2975
845.525	3089
845.661	3112
845.798	3013
845.934	3150
846.07	3043
846.206	3230
846.342	3317
846.478	3192
846.614	3066
846.75	3043
846.886	3001
847.022	3203
847.158	3119
847.294	3169
847.429	3253
847.565	3214
847.701	3431
847.837	3017
847.972	3028
848.108	3142
848.244	3142
848.379	2990
848.515	2929
848.65	2960
848.786	2971
848.921	3017
849.057	3108
849.192	3131
849.328	3089
849.463	3085
849.598	3039
849.734	3051
849.869	2933
850.004	2929
850.14	2982
850.275	2918
850.41	2823
850.545	2864
850.68	2933
850.815	2963
850.95	2967
851.085	3192
851.22	3062
851.355	3001
851.49	3009
851.625	2960
851.76	2986
851.895	2910
852.03	2887
852.165	3047
852.299	3116
852.434	3157
852.569	3100
852.703	3127
852.838	3249
852.973	3351
853.107	3306
853.242	3123
853.376	3077
853.511	2960
853.645	3028
853.78	3199
853.914	3085
854.048	3112
854.183	3074
854.317	3112
854.451	3310
854.585	3116
854.72	3066
854.854	3176
854.988	3024
855.122	3112
855.256	2979
855.39	3157
855.524	3203
855.658	3192
855.792	3180
855.926	3161
856.06	3230
856.194	3211
856.327	3131
856.461	3070
856.595	3093
856.729	3058
856.862	3184
856.996	3150
857.13	3211
857.263	3207
857.397	3287
857.53	3138
857.664	3184
857.797	3264
857.931	3249
858.064	3176
858.197	3214
858.331	3112
858.464	3077
858.597	2998
858.731	3119
858.864	3097
858.997	3074
859.13	3154
859.263	3180
859.396	3146
859.529	3074
859.662	3066
859.795	3066
859.928	3127
860.061	3253
860.194	3302
860.327	3138
860.46	3070
860.592	3256
860.725	3241
860.858	3233
860.99	3100
861.123	3085
861.256	3020
861.388	3173
861.521	3896
861.653	3001
861.786	2979
861.918	3024
862.05	3020
862.183	3104
862.315	3108
862.447	3214
862.58	3081
862.712	2952
862.844	2868
862.976	3032
863.108	2944
863.24	3287
863.372	2883
863.504	2948
863.636	2963
863.768	3036
863.9	2944
864.032	2929
864.164	2925
864.296	2998
864.428	3062
864.559	3104
864.691	3036
864.823	3081
864.954	3028
865.086	3058
865.217	2998
865.349	2937
865.48	2963
865.612	3028
865.743	3138
865.875	2982
866.006	2960
866.137	2952
866.269	2937
866.4	2918
866.531	2880
866.662	2872
866.793	2895
866.924	2895
867.055	2967
867.186	2891
867.317	2883
867.448	2830
867.579	2849
867.71	2823
867.841	2796
867.972	2880
868.103	2925
868.233	2899
868.364	2899
868.495	2883
868.625	3051
868.756	3150
868.886	2998
869.017	3043
869.147	3161
869.278	3157
869.408	3066
869.539	3043
869.669	3108
869.799	3047
869.929	3135
870.06	3127
870.19	3302
870.32	3264
870.45	3291
870.58	3363
870.71	3458
870.84	3393
870.97	3241
871.1	3230
871.23	3458
871.36	3435
871.489	3325
871.619	3374
871.749	3439
871.879	3405
872.008	3500
872.138	3348
872.267	3245
872.397	3150
872.526	3108
872.656	3039
872.785	3123
872.915	3233
873.044	3310
873.173	3214
873.303	3256
873.432	3241
873.561	3245
873.69	3180
873.819	3150
873.948	3165
874.077	3131
874.206	3036
874.335	3085
874.464	3245
874.593	3329
874.722	3230
874.851	3393
874.979	3355
875.108	3306
875.237	3207
875.365	3180
875.494	3131
875.623	3268
875.751	3108
875.88	3085
876.008	3192
876.136	3192
876.265	3370
876.393	3496
876.521	3416
876.65	3386
876.778	3329
876.906	3279
877.034	3226
877.162	3218
877.29	3146
877.418	3253
877.546	3249
877.674	3287
877.802	3230
877.93	3192
878.058	3135
878.185	3135
878.313	3203
878.441	3218
878.568	3070
878.696	3135
878.824	3211
878.951	3283
879.079	3450
879.206	3633
879.333	3447
879.461	3310
879.588	3344
879.715	3485
879.842	3587
879.97	3374
880.097	3195
880.224	3123
880.351	3161
880.478	3214
880.605	3203
880.732	3188
880.859	3504
880.986	3283
881.112	3310
881.239	3233
881.366	3070
881.493	3020
881.619	3036
881.746	3058
881.872	3108
881.999	3093
882.125	3154
882.252	3233
882.378	3275
882.505	3435
882.631	3253
882.757	3150
882.883	3237
883.01	3249
883.136	3218
883.262	3085
883.388	3100
883.514	3325
883.64	3367
883.766	3287
883.892	3203
884.018	3268
884.143	3443
884.269	3507
884.395	3192
884.52	3150
884.646	3138
884.772	3150
884.897	3089
885.023	3184
885.148	3302
885.274	3378
885.399	3359
885.524	3302
885.65	3233
885.775	3306
885.9	3317
886.025	3420
886.15	3340
886.275	3272
886.4	3226
886.525	3306
886.65	3256
886.775	3249
886.9	3507
887.025	3629
887.149	3435
887.274	3268
887.399	3184
887.523	3214
887.648	3173
887.773	3211
887.897	3355
888.021	3389
888.146	3275
888.27	3473
888.395	3553
888.519	3424
888.643	3409
888.767	3469
888.891	3313
889.015	3230
889.139	3340
889.263	3237
889.387	3374
889.511	3511
889.635	3397
889.759	3249
889.883	3275
890.006	3340
890.13	3450
890.254	3283
890.377	3386
890.501	3222
890.624	3199
890.748	3317
890.871	3146
890.995	3074
891.118	3077
891.241	3203
891.364	3253
891.488	3325
891.611	3180
891.734	3195
891.857	3291
891.98	3214
892.103	3329
892.226	3283
892.349	3180
892.471	3093
892.594	3241
892.717	3256
892.839	3275
892.962	3302
893.085	3359
893.207	3279
893.33	3123
893.452	3192
893.575	3332
893.697	3260
893.819	3481
893.941	3500
894.064	3469
894.186	3287
894.308	3268
894.43	3450
894.552	3530
894.674	3477
894.796	3253
894.918	3317
895.04	3230
895.161	3439
895.283	3393
895.405	3321
895.526	3344
895.648	3435
895.769	3431
895.891	3439
896.012	3458
896.134	3428
896.255	3424
896.376	3363
896.498	3363
896.619	3443
896.74	3348
896.861	3401
896.982	3663
897.103	3865
897.224	3595
897.345	3530
897.466	3435
897.587	3496
897.708	3622
897.828	3523
897.949	3485
898.07	3332
898.19	3412
898.311	3595
898.431	3469
898.552	3526
898.672	3584
898.792	3564
898.913	3507
899.033	3424
899.153	3310
899.273	3214
899.393	3287
899.513	3310
899.633	3317
899.753	3313
899.873	3351
899.993	3370
900.113	3306
900.232	3412
900.352	3351
900.472	3275
900.591	3211
900.711	3268
900.83	3203
900.95	3428
901.069	3534
901.189	3382
901.308	3173
901.427	3127
901.546	3173
901.665	3256
901.784	3351
901.904	3214
902.023	3165
902.141	3009
902.26	3009
902.379	3116
902.498	3116
902.617	3051
902.735	3184
902.854	3195
902.973	3226
903.091	3028
903.21	3062
903.328	3112
903.446	3104
903.565	3108
903.683	3195
903.801	3150
903.919	3249
904.038	3302
904.156	3184
904.274	3283
904.392	3253
904.51	3275
904.627	3332
904.745	3397
904.863	3488
904.981	3275
905.098	3184
905.216	3214
905.334	3306
905.451	3291
905.569	3298
905.686	3397
905.803	3447
905.921	3302
906.038	3405
906.155	3370
906.272	3256
906.389	3336
906.506	3237
906.623	3264
906.74	3260
906.857	3199
906.974	3249
907.091	3439
907.208	3584
907.324	3447
907.441	3386
907.557	3230
907.674	3222
907.79	3203
907.907	3279
908.023	3382
908.139	3382
908.256	3332
908.372	3367
908.488	3310
908.604	3264
908.72	3188
908.836	3279
908.952	3268
909.068	3351
909.184	3431
909.3	3393
909.415	3469
909.531	3481
909.647	3272
909.762	3249
909.878	3272
909.993	3393
910.108	3340
910.224	3332
910.339	3412
910.454	3355
910.57	3279
910.685	3218
910.8	3568
910.915	3564
911.03	3397
911.145	3256
911.259	3275
911.374	3329
911.489	3249
911.604	3218
911.718	3165
911.833	3135
911.947	3058
912.062	2944
912.176	3161
912.291	3214
912.405	3222
912.519	3443
912.633	3469
912.748	3344
912.862	3294
912.976	3195
913.09	3062
913.204	3146
913.318	3226
913.431	3336
913.545	3340
913.659	3416
913.772	3351
913.886	3203
914	3222
914.113	3397
914.226	3378
914.34	3336
914.453	3211
914.566	3389
914.68	3291
914.793	3317
914.906	3135
915.019	3100
915.132	3081
915.245	3169
915.358	3211
915.47	3211
915.583	3275
915.696	3275
915.809	3374
915.921	3405
916.034	3241
916.146	3264
916.259	3214
916.371	3336
916.483	3363
916.595	3279
916.708	3336
916.82	3340
916.932	3332
917.044	3363
917.156	3321
917.268	3279
917.38	3310
917.491	3294
917.603	3355
917.715	3420
917.826	3488
917.938	3374
918.049	3313
918.161	3462
918.272	3553
918.384	3545
918.495	3481
918.606	3329
918.717	3287
918.828	3348
918.939	3378
919.05	3306
919.161	3378
919.272	3184
919.383	3287
919.494	3534
919.604	3648
919.715	3488
919.826	3409
919.936	3458
920.047	3614
920.157	3500
920.267	3747
920.378	3641
920.488	3584
920.598	3781
920.708	3953
920.818	3873
920.928	3804
921.038	4021
921.148	3975
921.258	3724
921.368	3637
921.477	3595
921.587	3530
921.697	3481
921.806	3629
921.916	3500
922.025	3340
922.134	3340
922.244	3310
922.353	3420
922.462	3283
922.571	3211
922.68	3127
922.789	3077
922.898	3127
923.007	3093
923.116	3218
923.224	3169
923.333	3184
923.442	3074
923.55	3089
923.659	3203
923.767	3207
923.876	3097
923.984	3226
924.092	3131
924.201	3199
924.309	3195
924.417	3249
924.525	3211
924.633	3241
924.741	3987
924.849	3058
924.956	3260
925.064	3047
925.172	3017
925.279	3116
925.387	3192
925.494	3173
925.602	3340
925.709	3336
925.816	3176
925.924	3279
926.031	3386
926.138	3332
926.245	3348
926.352	3264
926.459	3458
926.566	3492
926.673	3298
926.779	3275
926.886	3245
926.993	3146
927.099	3100
927.206	3055
927.312	3100
927.419	3237
927.525	3222
927.631	3279
927.737	3138
927.843	3108
927.95	3066
928.056	3135
928.162	3188
928.267	3253
928.373	3789
928.479	3283
928.585	3070
928.69	3195
928.796	3291
928.901	3123
929.007	3032
929.112	3203
929.218	3195
929.323	3138
929.428	3161
929.533	3306
929.638	3055
929.743	3165
929.848	3260
929.953	3222
930.058	3169
930.163	3020
930.267	3013
930.372	3173
930.477	3051
930.581	3313
930.685	3176
930.79	3066
930.894	3104
930.998	3093
931.103	3272
931.207	2975
931.311	2937
931.415	2914
931.519	2788
931.623	2819
