Data from test_V78500241_344.txt Node
Date: Fri Mar 25 16:17:35 CST 2022
User: usil
Spectrometer: V785-0024
Trigger mode: 0
Integration Time (sec): 4.000000E-1
Scans to average: 1
Nonlinearity correction enabled: false
Boxcar width: 0
Storing dark spectrum: false
XAxis mode: Wavelengths
Number of Pixels in Spectrum: 1024
>>>>>Begin Spectral Data<<<<<
801.071	2899
801.214	2937
801.356	2876
801.499	2849
801.641	2849
801.783	2914
801.926	2998
802.068	2948
802.211	3017
802.353	3020
802.496	2948
802.638	3001
802.78	3005
802.923	3051
803.065	2994
803.208	2880
803.35	2902
803.492	2929
803.635	2925
803.777	2766
803.919	2815
804.061	3211
804.204	2910
804.346	2902
804.488	2826
804.63	2960
804.773	2834
804.915	2876
805.057	3066
805.199	2887
805.341	2956
805.483	3001
805.626	2944
805.768	2948
805.91	3104
806.052	3135
806.194	3013
806.336	3241
806.478	3043
806.62	2948
806.762	2956
806.904	3085
807.046	3184
807.188	2967
807.33	2941
807.472	2994
807.614	2880
807.756	3001
807.898	2910
808.04	2868
808.182	2971
808.324	2967
808.465	2864
808.607	2872
808.749	2777
808.891	2842
809.033	2960
809.174	2982
809.316	2845
809.458	2849
809.6	2804
809.741	2773
809.883	2785
810.025	2845
810.166	2864
810.308	2845
810.45	2823
810.591	2788
810.733	2766
810.875	2838
811.016	2781
811.158	2754
811.299	2815
811.441	2933
811.582	2902
811.724	2838
811.865	2804
812.007	2914
812.148	2880
812.29	2868
812.431	2883
812.573	2948
812.714	2975
812.855	3032
812.997	3055
813.138	3131
813.279	3001
813.421	3009
813.562	2967
813.703	2872
813.845	2864
813.986	2785
814.127	2750
814.268	2823
814.41	2849
814.551	2804
814.692	2853
814.833	2792
814.974	2887
815.115	2944
815.256	2853
815.397	2800
815.539	2876
815.68	2826
815.821	2826
815.962	2956
816.103	2918
816.244	2887
816.385	2872
816.526	2963
816.666	2918
816.807	2792
816.948	2887
817.089	2895
817.23	2845
817.371	2785
817.512	2769
817.653	2811
817.793	2864
817.934	2902
818.075	2975
818.216	2994
818.356	3032
818.497	2868
818.638	2750
818.778	2815
818.919	2788
819.06	2754
819.2	2887
819.341	2785
819.481	2785
819.622	2918
819.762	3104
819.903	3028
820.043	2937
820.184	2906
820.324	2910
820.465	3043
820.605	2990
820.746	3036
820.886	2906
821.026	3089
821.167	3165
821.307	3268
821.447	3272
821.588	3237
821.728	3207
821.868	3203
822.008	3070
822.149	3207
822.289	3222
822.429	3093
822.569	3077
822.709	3173
822.849	3036
822.99	3058
823.13	3138
823.27	3211
823.41	3112
823.55	3131
823.69	3104
823.83	3169
823.97	3123
824.11	3028
824.25	3005
824.389	3074
824.529	3070
824.669	3093
824.809	3188
824.949	3218
825.089	3241
825.228	3157
825.368	2986
825.508	2960
825.648	2944
825.787	3009
825.927	3005
826.067	2990
826.206	2982
826.346	3047
826.485	3058
826.625	3112
826.765	3214
826.904	3211
827.044	2982
827.183	2948
827.323	2891
827.462	2986
827.601	2922
827.741	2895
827.88	2967
828.02	2868
828.159	2979
828.298	3062
828.437	3100
828.577	3051
828.716	3268
828.855	3108
828.994	2933
829.134	2887
829.273	2941
829.412	2887
829.551	2895
829.69	2918
829.829	3020
829.968	3154
830.107	3058
830.246	3032
830.385	2952
830.524	2899
830.663	2857
830.802	2777
830.941	2667
831.08	2674
831.219	2815
831.357	2781
831.496	3005
831.635	2777
831.774	2712
831.913	2682
832.051	2575
832.19	2610
832.329	2724
832.467	2602
832.606	2533
832.744	2598
832.883	2640
833.022	2629
833.16	2697
833.299	2739
833.437	2766
833.576	2735
833.714	2746
833.852	2800
833.991	2800
834.129	2857
834.267	2883
834.406	2838
834.544	2918
834.682	2914
834.821	2956
834.959	3116
835.097	2963
835.235	3119
835.373	3032
835.511	3093
835.65	3009
835.788	3032
835.926	2891
836.064	2883
836.202	2864
836.34	3127
836.478	3192
836.615	3077
836.753	3154
836.891	3275
837.029	3188
837.167	3173
837.305	3112
837.443	3051
837.58	3028
837.718	3192
837.856	3127
837.993	3051
838.131	3150
838.269	3138
838.406	3157
838.544	3112
838.681	2952
838.819	2963
838.956	2906
839.094	2880
839.231	2902
839.369	3074
839.506	3416
839.643	3268
839.781	3032
839.918	2967
840.055	3077
840.193	3097
840.33	3093
840.467	3161
840.604	3192
840.742	3447
840.879	3093
841.016	3123
841.153	3142
841.29	3370
841.427	3348
841.564	3317
841.701	3363
841.838	3275
841.975	3226
842.112	3226
842.249	3123
842.385	3104
842.522	3264
842.659	3127
842.796	3116
842.933	3142
843.069	3097
843.206	3066
843.343	3237
843.479	3131
843.616	3169
843.752	2906
843.889	2887
844.025	3116
844.162	2922
844.298	3146
844.435	2967
844.571	2937
844.708	3127
844.844	3199
844.98	3279
845.117	3203
845.253	3081
845.389	3066
845.525	3150
845.661	3135
845.798	3062
845.934	3135
846.07	3093
846.206	3279
846.342	3325
846.478	3264
846.614	3119
846.75	3081
846.886	3077
847.022	3245
847.158	3211
847.294	3245
847.429	3291
847.565	3272
847.701	3492
847.837	3074
847.972	3028
848.108	3173
848.244	3218
848.379	3013
848.515	2975
848.65	2971
848.786	3005
848.921	3009
849.057	3127
849.192	3176
849.328	3131
849.463	3157
849.598	3066
849.734	3100
849.869	2994
850.004	2982
850.14	2990
850.275	2941
850.41	2830
850.545	2914
850.68	2960
850.815	2960
850.95	3001
851.085	3222
851.22	3116
851.355	3047
851.49	2994
851.625	3043
851.76	3020
851.895	2922
852.03	2910
852.165	3013
852.299	3173
852.434	3230
852.569	3161
852.703	3222
852.838	3279
852.973	3405
853.107	3355
853.242	3169
853.376	3112
853.511	2982
853.645	3089
853.78	3294
853.914	3131
854.048	3154
854.183	3077
854.317	3192
854.451	3329
854.585	3146
854.72	3112
854.854	3214
854.988	3070
855.122	3123
855.256	3005
855.39	3127
855.524	3260
855.658	3230
855.792	3184
855.926	3241
856.06	3275
856.194	3264
856.327	3195
856.461	3104
856.595	3104
856.729	3104
856.862	3245
856.996	3211
857.13	3188
857.263	3218
857.397	3264
857.53	3127
857.664	3203
857.797	3264
857.931	3268
858.064	3207
858.197	3256
858.331	3142
858.464	3116
858.597	3051
858.731	3138
858.864	3119
858.997	3119
859.13	3192
859.263	3222
859.396	3256
859.529	3097
859.662	3093
859.795	3070
859.928	3150
860.061	3291
860.194	3306
860.327	3142
860.46	3119
860.592	3256
860.725	3256
860.858	3291
860.99	3146
861.123	3066
861.256	3055
861.388	3207
861.521	3770
861.653	3036
861.786	3032
861.918	3051
862.05	3051
862.183	3108
862.315	3214
862.447	3241
862.58	3157
862.712	2982
862.844	2857
862.976	3020
863.108	3047
863.24	3325
863.372	2910
863.504	2982
863.636	2963
863.768	3062
863.9	3009
864.032	2929
864.164	2956
864.296	3062
864.428	3108
864.559	3089
864.691	3161
864.823	3081
864.954	3047
865.086	3108
865.217	3020
865.349	2979
865.48	3020
865.612	3039
865.743	3176
865.875	3032
866.006	2925
866.137	3005
866.269	3032
866.4	2941
866.531	2948
866.662	2922
866.793	2891
866.924	2922
867.055	3017
867.186	2944
867.317	2910
867.448	2857
867.579	2853
867.71	2872
867.841	2834
867.972	2948
868.103	2918
868.233	2914
868.364	2922
868.495	2918
868.625	3081
868.756	3157
868.886	3028
869.017	3032
869.147	3207
869.278	3176
869.408	3055
869.539	3055
869.669	3112
869.799	3081
869.929	3176
870.06	3150
870.19	3321
870.32	3340
870.45	3329
870.58	3431
870.71	3485
870.84	3481
870.97	3325
871.1	3245
871.23	3511
871.36	3458
871.489	3435
871.619	3405
871.749	3466
871.879	3469
872.008	3515
872.138	3393
872.267	3279
872.397	3142
872.526	3104
872.656	3020
872.785	3123
872.915	3283
873.044	3336
873.173	3230
873.303	3256
873.432	3264
873.561	3264
873.69	3184
873.819	3157
873.948	3226
874.077	3154
874.206	3077
874.335	3093
874.464	3237
874.593	3359
874.722	3275
874.851	3454
874.979	3348
875.108	3329
875.237	3203
875.365	3192
875.494	3184
875.623	3317
875.751	3108
875.88	3108
876.008	3218
876.136	3241
876.265	3397
876.393	3515
876.521	3435
876.65	3405
876.778	3294
876.906	3260
877.034	3207
877.162	3279
877.29	3176
877.418	3291
877.546	3260
877.674	3249
877.802	3253
877.93	3272
878.058	3173
878.185	3100
878.313	3230
878.441	3233
878.568	3089
878.696	3131
878.824	3287
878.951	3370
879.079	3458
879.206	3614
879.333	3435
879.461	3329
879.588	3370
879.715	3492
879.842	3652
879.97	3367
880.097	3214
880.224	3195
880.351	3203
880.478	3245
880.605	3203
880.732	3188
880.859	3507
880.986	3344
881.112	3348
881.239	3214
881.366	3112
881.493	3066
881.619	3039
881.746	3062
881.872	3112
881.999	3142
882.125	3173
882.252	3260
882.378	3287
882.505	3428
882.631	3287
882.757	3207
882.883	3241
883.01	3218
883.136	3157
883.262	3135
883.388	3165
883.514	3359
883.64	3401
883.766	3351
883.892	3211
884.018	3233
884.143	3416
884.269	3549
884.395	3180
884.52	3161
884.646	3207
884.772	3135
884.897	3108
885.023	3260
885.148	3374
885.274	3431
885.399	3393
885.524	3253
885.65	3279
885.775	3382
885.9	3287
886.025	3393
886.15	3393
886.275	3313
886.4	3233
886.525	3294
886.65	3310
886.775	3287
886.9	3538
887.025	3622
887.149	3412
887.274	3275
887.399	3222
887.523	3211
887.648	3188
887.773	3207
887.897	3401
888.021	3401
888.146	3317
888.27	3469
888.395	3538
888.519	3443
888.643	3466
888.767	3500
888.891	3344
889.015	3272
889.139	3317
889.263	3253
889.387	3420
889.511	3534
889.635	3466
889.759	3310
889.883	3298
890.006	3420
890.13	3542
890.254	3291
890.377	3370
890.501	3241
890.624	3176
890.748	3313
890.871	3184
890.995	3176
891.118	3074
891.241	3233
891.364	3279
891.488	3359
891.611	3199
891.734	3249
891.857	3310
891.98	3245
892.103	3310
892.226	3287
892.349	3226
892.471	3131
892.594	3241
892.717	3317
892.839	3287
892.962	3313
893.085	3374
893.207	3325
893.33	3188
893.452	3207
893.575	3378
893.697	3264
893.819	3454
893.941	3526
894.064	3500
894.186	3268
894.308	3291
894.43	3420
894.552	3523
894.674	3447
894.796	3306
894.918	3279
895.04	3279
895.161	3450
895.283	3397
895.405	3313
895.526	3405
895.648	3443
895.769	3405
895.891	3450
896.012	3485
896.134	3481
896.255	3488
896.376	3401
896.498	3340
896.619	3447
896.74	3386
896.861	3393
896.982	3686
897.103	3903
897.224	3614
897.345	3519
897.466	3469
897.587	3545
897.708	3637
897.828	3572
897.949	3511
898.07	3386
898.19	3389
898.311	3549
898.431	3496
898.552	3500
898.672	3595
898.792	3599
898.913	3542
899.033	3428
899.153	3332
899.273	3249
899.393	3268
899.513	3363
899.633	3283
899.753	3374
899.873	3264
899.993	3382
900.113	3325
900.232	3393
900.352	3370
900.472	3313
900.591	3245
900.711	3317
900.83	3264
900.95	3401
901.069	3504
901.189	3359
901.308	3184
901.427	3161
901.546	3188
901.665	3302
901.784	3306
901.904	3214
902.023	3169
902.141	3024
902.26	2994
902.379	3165
902.498	3077
902.617	3043
902.735	3222
902.854	3195
902.973	3211
903.091	3070
903.21	3058
903.328	3104
903.446	3146
903.565	3127
903.683	3226
903.801	3131
903.919	3241
904.038	3272
904.156	3203
904.274	3287
904.392	3287
904.51	3260
904.627	3348
904.745	3439
904.863	3504
904.981	3279
905.098	3165
905.216	3291
905.334	3298
905.451	3321
905.569	3317
905.686	3435
905.803	3435
905.921	3275
906.038	3447
906.155	3374
906.272	3294
906.389	3355
906.506	3256
906.623	3272
906.74	3313
906.857	3203
906.974	3272
907.091	3500
907.208	3561
907.324	3462
907.441	3397
907.557	3199
907.674	3226
907.79	3237
907.907	3313
908.023	3397
908.139	3382
908.256	3325
908.372	3386
908.488	3382
908.604	3253
908.72	3226
908.836	3313
908.952	3298
909.068	3367
909.184	3492
909.3	3401
909.415	3500
909.531	3488
909.647	3264
909.762	3317
909.878	3230
909.993	3351
910.108	3332
910.224	3348
910.339	3409
910.454	3336
910.57	3298
910.685	3272
910.8	3587
910.915	3549
911.03	3420
911.145	3253
911.259	3336
911.374	3313
911.489	3211
911.604	3226
911.718	3173
911.833	3176
911.947	3039
912.062	3020
912.176	3192
912.291	3195
912.405	3199
912.519	3424
912.633	3530
912.748	3344
912.862	3275
912.976	3207
913.09	3043
913.204	3123
913.318	3230
913.431	3310
913.545	3374
913.659	3386
913.772	3351
913.886	3249
914	3203
914.113	3310
914.226	3393
914.34	3370
914.453	3173
914.566	3443
914.68	3298
914.793	3317
914.906	3169
915.019	3081
915.132	3070
915.245	3188
915.358	3222
915.47	3268
915.583	3260
915.696	3283
915.809	3431
915.921	3454
916.034	3264
916.146	3268
916.259	3249
916.371	3409
916.483	3393
916.595	3287
916.708	3313
916.82	3374
916.932	3313
917.044	3348
917.156	3332
917.268	3211
917.38	3302
917.491	3294
917.603	3370
917.715	3477
917.826	3458
917.938	3412
918.049	3325
918.161	3447
918.272	3580
918.384	3557
918.495	3481
918.606	3317
918.717	3310
918.828	3393
918.939	3431
919.05	3340
919.161	3412
919.272	3165
919.383	3275
919.494	3481
919.604	3682
919.715	3511
919.826	3401
919.936	3466
920.047	3591
920.157	3534
920.267	3759
920.378	3614
920.488	3576
920.598	3736
920.708	3960
920.818	3854
920.928	3778
921.038	4002
921.148	3991
921.258	3713
921.368	3637
921.477	3603
921.587	3515
921.697	3458
921.806	3644
921.916	3530
922.025	3344
922.134	3340
922.244	3306
922.353	3428
922.462	3272
922.571	3237
922.68	3138
922.789	3097
922.898	3165
923.007	3108
923.116	3222
923.224	3199
923.333	3214
923.442	3097
923.55	3123
923.659	3165
923.767	3211
923.876	3089
923.984	3241
924.092	3146
924.201	3195
924.309	3237
924.417	3272
924.525	3195
924.633	3203
924.741	4166
924.849	3055
924.956	3302
925.064	3108
925.172	3036
925.279	3093
925.387	3199
925.494	3222
925.602	3363
925.709	3306
925.816	3237
925.924	3233
926.031	3405
926.138	3329
926.245	3359
926.352	3279
926.459	3401
926.566	3469
926.673	3317
926.779	3272
926.886	3245
926.993	3127
927.099	3127
927.206	3081
927.312	3093
927.419	3264
927.525	3222
927.631	3298
927.737	3142
927.843	3093
927.95	3036
928.056	3165
928.162	3184
928.267	3256
928.373	3892
928.479	3332
928.585	3104
928.69	3180
928.796	3272
928.901	3192
929.007	3024
929.112	3230
929.218	3176
929.323	3165
929.428	3146
929.533	3336
929.638	3169
929.743	3176
929.848	3222
929.953	3230
930.058	3146
930.163	2982
930.267	3020
930.372	3176
930.477	3070
930.581	3306
930.685	3161
930.79	3070
930.894	3138
930.998	3100
931.103	3302
931.207	2937
931.311	2925
931.415	2948
931.519	2811
931.623	2811
