Data from test_V78500241_661.txt Node
Date: Fri Mar 25 16:19:46 CST 2022
User: usil
Spectrometer: V785-0024
Trigger mode: 0
Integration Time (sec): 4.000000E-1
Scans to average: 1
Nonlinearity correction enabled: false
Boxcar width: 0
Storing dark spectrum: false
XAxis mode: Wavelengths
Number of Pixels in Spectrum: 1024
>>>>>Begin Spectral Data<<<<<
801.071	2933
801.214	2982
801.356	2895
801.499	2922
801.641	2899
801.783	2929
801.926	3055
802.068	2990
802.211	2982
802.353	3032
802.496	2971
802.638	2998
802.78	3058
802.923	3123
803.065	3032
803.208	2887
803.35	2906
803.492	2960
803.635	2941
803.777	2781
803.919	2876
804.061	3241
804.204	2952
804.346	2922
804.488	2861
804.63	3013
804.773	2899
804.915	2902
805.057	3085
805.199	2883
805.341	2975
805.483	3039
805.626	3013
805.768	2956
805.91	3058
806.052	3127
806.194	3036
806.336	3283
806.478	3032
806.62	2960
806.762	2986
806.904	3062
807.046	3169
807.188	3017
807.33	2922
807.472	3017
807.614	2883
807.756	2986
807.898	2910
808.04	2899
808.182	3017
808.324	2956
808.465	2891
808.607	2868
808.749	2777
808.891	2849
809.033	2963
809.174	3005
809.316	2880
809.458	2902
809.6	2792
809.741	2796
809.883	2746
810.025	2876
810.166	2861
810.308	2842
810.45	2834
810.591	2826
810.733	2796
810.875	2838
811.016	2807
811.158	2807
811.299	2807
811.441	2914
811.582	2872
811.724	2834
811.865	2853
812.007	2876
812.148	2902
812.29	2899
812.431	2906
812.573	2979
812.714	2963
812.855	3058
812.997	3081
813.138	3116
813.279	3039
813.421	2963
813.562	2990
813.703	2880
813.845	2880
813.986	2773
814.127	2739
814.268	2807
814.41	2807
814.551	2807
814.692	2899
814.833	2830
814.974	2922
815.115	2967
815.256	2819
815.397	2785
815.539	2891
815.68	2800
815.821	2834
815.962	2929
816.103	2922
816.244	2906
816.385	2883
816.526	2986
816.666	2948
816.807	2769
816.948	2899
817.089	2929
817.23	2899
817.371	2754
817.512	2777
817.653	2853
817.793	2842
817.934	2880
818.075	2990
818.216	2986
818.356	3043
818.497	2887
818.638	2830
818.778	2849
818.919	2804
819.06	2792
819.2	2876
819.341	2823
819.481	2796
819.622	2941
819.762	3104
819.903	3009
820.043	2944
820.184	2902
820.324	2880
820.465	3013
820.605	2990
820.746	3039
820.886	2937
821.026	3123
821.167	3161
821.307	3237
821.447	3317
821.588	3272
821.728	3203
821.868	3169
822.008	3127
822.149	3199
822.289	3214
822.429	3131
822.569	3055
822.709	3184
822.849	3005
822.99	3085
823.13	3157
823.27	3199
823.41	3100
823.55	3138
823.69	3142
823.83	3192
823.97	3100
824.11	2994
824.25	2994
824.389	3077
824.529	3036
824.669	3051
824.809	3188
824.949	3260
825.089	3226
825.228	3146
825.368	2994
825.508	2979
825.648	2998
825.787	3024
825.927	3039
826.067	2971
826.206	2944
826.346	3055
826.485	3085
826.625	3127
826.765	3253
826.904	3214
827.044	2990
827.183	2960
827.323	2864
827.462	2975
827.601	2918
827.741	2952
827.88	2963
828.02	2845
828.159	2952
828.298	3024
828.437	3112
828.577	3058
828.716	3241
828.855	3119
828.994	2899
829.134	2887
829.273	2914
829.412	2823
829.551	2868
829.69	2902
829.829	2994
829.968	3127
830.107	3055
830.246	3032
830.385	2922
830.524	2864
830.663	2838
830.802	2724
830.941	2655
831.08	2693
831.219	2788
831.357	2758
831.496	2956
831.635	2716
831.774	2636
831.913	2629
832.051	2522
832.19	2575
832.329	2678
832.467	2533
832.606	2480
832.744	2594
832.883	2564
833.022	2606
833.16	2651
833.299	2697
833.437	2686
833.576	2697
833.714	2735
833.852	2743
833.991	2746
834.129	2845
834.267	2819
834.406	2811
834.544	2861
834.682	2876
834.821	2853
834.959	3036
835.097	2906
835.235	3039
835.373	2990
835.511	3017
835.65	2963
835.788	2944
835.926	2842
836.064	2807
836.202	2845
836.34	3062
836.478	3097
836.615	3051
836.753	3123
836.891	3195
837.029	3214
837.167	3112
837.305	3058
837.443	3055
837.58	2986
837.718	3119
837.856	3066
837.993	3020
838.131	3119
838.269	3108
838.406	3074
838.544	3097
838.681	2937
838.819	2902
838.956	2842
839.094	2788
839.231	2933
839.369	2971
839.506	3367
839.643	3211
839.781	3001
839.918	2902
840.055	3039
840.193	3047
840.33	3070
840.467	3112
840.604	3135
840.742	3382
840.879	3077
841.016	3055
841.153	3135
841.29	3332
841.427	3291
841.564	3298
841.701	3272
841.838	3199
841.975	3169
842.112	3207
842.249	3135
842.385	3074
842.522	3291
842.659	3097
842.796	3043
842.933	3089
843.069	3062
843.206	3062
843.343	3180
843.479	3142
843.616	3184
843.752	2914
843.889	2906
844.025	3119
844.162	2910
844.298	3089
844.435	2967
844.571	2899
844.708	3131
844.844	3218
844.98	3268
845.117	3226
845.253	3097
845.389	3081
845.525	3150
845.661	3161
845.798	3043
845.934	3154
846.07	3081
846.206	3226
846.342	3355
846.478	3241
846.614	3097
846.75	3085
846.886	3051
847.022	3264
847.158	3180
847.294	3241
847.429	3275
847.565	3245
847.701	3496
847.837	3097
847.972	2994
848.108	3188
848.244	3207
848.379	3020
848.515	2960
848.65	2982
848.786	3009
848.921	3047
849.057	3165
849.192	3184
849.328	3081
849.463	3188
849.598	3100
849.734	3089
849.869	3028
850.004	2975
850.14	3005
850.275	2960
850.41	2880
850.545	2914
850.68	2971
850.815	3013
850.95	2998
851.085	3233
851.22	3116
851.355	3074
851.49	2990
851.625	3077
851.76	3039
851.895	2967
852.03	2960
852.165	3070
852.299	3192
852.434	3245
852.569	3199
852.703	3226
852.838	3264
852.973	3393
853.107	3378
853.242	3207
853.376	3131
853.511	2998
853.645	3085
853.78	3268
853.914	3142
854.048	3150
854.183	3119
854.317	3188
854.451	3351
854.585	3154
854.72	3127
854.854	3233
854.988	3070
855.122	3138
855.256	3024
855.39	3116
855.524	3294
855.658	3192
855.792	3176
855.926	3241
856.06	3237
856.194	3256
856.327	3173
856.461	3127
856.595	3097
856.729	3116
856.862	3226
856.996	3199
857.13	3230
857.263	3279
857.397	3268
857.53	3142
857.664	3195
857.797	3279
857.931	3302
858.064	3207
858.197	3245
858.331	3184
858.464	3135
858.597	3017
858.731	3131
858.864	3150
858.997	3142
859.13	3230
859.263	3203
859.396	3253
859.529	3138
859.662	3112
859.795	3085
859.928	3157
860.061	3272
860.194	3321
860.327	3154
860.46	3142
860.592	3291
860.725	3264
860.858	3275
860.99	3131
861.123	3093
861.256	3070
861.388	3195
861.521	3861
861.653	3066
861.786	3009
861.918	3039
862.05	3097
862.183	3112
862.315	3176
862.447	3264
862.58	3127
862.712	2982
862.844	2914
862.976	3032
863.108	3032
863.24	3458
863.372	2937
863.504	2994
863.636	2967
863.768	3024
863.9	3020
864.032	2933
864.164	2971
864.296	3070
864.428	3119
864.559	3123
864.691	3093
864.823	3112
864.954	3062
865.086	3062
865.217	3013
865.349	2990
865.48	3020
865.612	3028
865.743	3199
865.875	3028
866.006	2967
866.137	2971
866.269	2971
866.4	2960
866.531	2910
866.662	2952
866.793	2929
866.924	2922
867.055	2994
867.186	2944
867.317	2918
867.448	2880
867.579	2895
867.71	2872
867.841	2842
867.972	2918
868.103	2914
868.233	2918
868.364	2899
868.495	2918
868.625	3116
868.756	3180
868.886	2994
869.017	3043
869.147	3192
869.278	3150
869.408	3058
869.539	3047
869.669	3123
869.799	3066
869.929	3184
870.06	3104
870.19	3332
870.32	3313
870.45	3321
870.58	3378
870.71	3485
870.84	3496
870.97	3317
871.1	3264
871.23	3500
871.36	3454
871.489	3401
871.619	3370
871.749	3435
871.879	3450
872.008	3511
872.138	3409
872.267	3287
872.397	3165
872.526	3131
872.656	3028
872.785	3127
872.915	3260
873.044	3340
873.173	3264
873.303	3256
873.432	3260
873.561	3268
873.69	3211
873.819	3237
873.948	3180
874.077	3142
874.206	3062
874.335	3108
874.464	3222
874.593	3348
874.722	3268
874.851	3409
874.979	3367
875.108	3336
875.237	3214
875.365	3165
875.494	3161
875.623	3260
875.751	3131
875.88	3112
876.008	3226
876.136	3230
876.265	3370
876.393	3538
876.521	3431
876.65	3428
876.778	3351
876.906	3283
877.034	3237
877.162	3283
877.29	3199
877.418	3302
877.546	3264
877.674	3268
877.802	3268
877.93	3218
878.058	3211
878.185	3142
878.313	3222
878.441	3207
878.568	3127
878.696	3180
878.824	3287
878.951	3310
879.079	3439
879.206	3644
879.333	3504
879.461	3344
879.588	3405
879.715	3523
879.842	3534
879.97	3420
880.097	3233
880.224	3161
880.351	3218
880.478	3226
880.605	3260
880.732	3207
880.859	3443
880.986	3287
881.112	3351
881.239	3207
881.366	3146
881.493	3024
881.619	3039
881.746	3100
881.872	3123
881.999	3104
882.125	3173
882.252	3264
882.378	3291
882.505	3439
882.631	3279
882.757	3138
882.883	3279
883.01	3249
883.136	3161
883.262	3093
883.388	3135
883.514	3348
883.64	3378
883.766	3340
883.892	3195
884.018	3249
884.143	3405
884.269	3557
884.395	3195
884.52	3157
884.646	3211
884.772	3161
884.897	3138
885.023	3241
885.148	3329
885.274	3435
885.399	3409
885.524	3310
885.65	3302
885.775	3321
885.9	3291
886.025	3412
886.15	3359
886.275	3321
886.4	3279
886.525	3355
886.65	3310
886.775	3310
886.9	3523
887.025	3656
887.149	3409
887.274	3279
887.399	3218
887.523	3245
887.648	3222
887.773	3199
887.897	3363
888.021	3435
888.146	3336
888.27	3447
888.395	3538
888.519	3420
888.643	3450
888.767	3504
888.891	3313
889.015	3264
889.139	3306
889.263	3245
889.387	3428
889.511	3526
889.635	3450
889.759	3321
889.883	3317
890.006	3374
890.13	3466
890.254	3310
890.377	3340
890.501	3260
890.624	3180
890.748	3275
890.871	3184
890.995	3077
891.118	3100
891.241	3180
891.364	3211
891.488	3321
891.611	3169
891.734	3237
891.857	3253
891.98	3279
892.103	3359
892.226	3310
892.349	3260
892.471	3176
892.594	3253
892.717	3321
892.839	3272
892.962	3264
893.085	3344
893.207	3294
893.33	3150
893.452	3222
893.575	3344
893.697	3272
893.819	3485
893.941	3477
894.064	3485
894.186	3283
894.308	3302
894.43	3458
894.552	3523
894.674	3500
894.796	3268
894.918	3310
895.04	3298
895.161	3435
895.283	3409
895.405	3306
895.526	3397
895.648	3450
895.769	3416
895.891	3507
896.012	3469
896.134	3500
896.255	3466
896.376	3412
896.498	3374
896.619	3469
896.74	3363
896.861	3416
896.982	3690
897.103	3876
897.224	3599
897.345	3542
897.466	3431
897.587	3545
897.708	3660
897.828	3549
897.949	3435
898.07	3378
898.19	3412
898.311	3610
898.431	3458
898.552	3515
898.672	3633
898.792	3572
898.913	3549
899.033	3450
899.153	3313
899.273	3203
899.393	3294
899.513	3329
899.633	3332
899.753	3351
899.873	3325
899.993	3409
900.113	3329
900.232	3409
900.352	3340
900.472	3325
900.591	3226
900.711	3260
900.83	3237
900.95	3420
901.069	3504
901.189	3351
901.308	3165
901.427	3131
901.546	3233
901.665	3317
901.784	3367
901.904	3237
902.023	3180
902.141	3039
902.26	3017
902.379	3142
902.498	3077
902.617	3043
902.735	3211
902.854	3268
902.973	3214
903.091	3062
903.21	3066
903.328	3184
903.446	3119
903.565	3104
903.683	3173
903.801	3138
903.919	3222
904.038	3275
904.156	3207
904.274	3321
904.392	3256
904.51	3283
904.627	3359
904.745	3450
904.863	3519
904.981	3207
905.098	3161
905.216	3256
905.334	3302
905.451	3317
905.569	3340
905.686	3435
905.803	3450
905.921	3332
906.038	3409
906.155	3393
906.272	3294
906.389	3348
906.506	3241
906.623	3237
906.74	3317
906.857	3192
906.974	3218
907.091	3477
907.208	3561
907.324	3447
907.441	3401
907.557	3211
907.674	3237
907.79	3176
907.907	3302
908.023	3378
908.139	3378
908.256	3317
908.372	3382
908.488	3359
908.604	3253
908.72	3268
908.836	3310
908.952	3291
909.068	3382
909.184	3553
909.3	3367
909.415	3519
909.531	3473
909.647	3264
909.762	3279
909.878	3256
909.993	3325
910.108	3351
910.224	3313
910.339	3393
910.454	3340
910.57	3275
910.685	3249
910.8	3603
910.915	3542
911.03	3416
911.145	3256
911.259	3260
911.374	3279
911.489	3260
911.604	3230
911.718	3123
911.833	3161
911.947	3024
912.062	3005
912.176	3188
912.291	3214
912.405	3222
912.519	3424
912.633	3515
912.748	3298
912.862	3302
912.976	3173
913.09	3077
913.204	3180
913.318	3214
913.431	3382
913.545	3306
913.659	3428
913.772	3355
913.886	3230
914	3226
914.113	3355
914.226	3439
914.34	3370
914.453	3279
914.566	3405
914.68	3283
914.793	3317
914.906	3169
915.019	3116
915.132	3070
915.245	3207
915.358	3245
915.47	3222
915.583	3245
915.696	3283
915.809	3393
915.921	3447
916.034	3233
916.146	3230
916.259	3272
916.371	3401
916.483	3340
916.595	3279
916.708	3344
916.82	3359
916.932	3351
917.044	3363
917.156	3359
917.268	3264
917.38	3317
917.491	3287
917.603	3420
917.715	3435
917.826	3488
917.938	3389
918.049	3253
918.161	3431
918.272	3610
918.384	3603
918.495	3450
918.606	3340
918.717	3272
918.828	3359
918.939	3405
919.05	3294
919.161	3370
919.272	3188
919.383	3298
919.494	3477
919.604	3717
919.715	3485
919.826	3439
919.936	3496
920.047	3599
920.157	3561
920.267	3770
920.378	3603
920.488	3549
920.598	3781
920.708	3960
920.818	3835
920.928	3846
921.038	4025
921.148	3975
921.258	3675
921.368	3618
921.477	3542
921.587	3545
921.697	3454
921.806	3610
921.916	3526
922.025	3355
922.134	3401
922.244	3321
922.353	3416
922.462	3275
922.571	3199
922.68	3104
922.789	3081
922.898	3131
923.007	3127
923.116	3188
923.224	3203
923.333	3192
923.442	3116
923.55	3119
923.659	3169
923.767	3192
923.876	3131
923.984	3264
924.092	3070
924.201	3226
924.309	3199
924.417	3260
924.525	3173
924.633	3253
924.741	4067
924.849	3062
924.956	3275
925.064	3089
925.172	3055
925.279	3108
925.387	3207
925.494	3176
925.602	3416
925.709	3340
925.816	3199
925.924	3275
926.031	3405
926.138	3340
926.245	3367
926.352	3256
926.459	3420
926.566	3511
926.673	3302
926.779	3214
926.886	3268
926.993	3169
927.099	3123
927.206	3138
927.312	3104
927.419	3230
927.525	3192
927.631	3249
927.737	3127
927.843	3135
927.95	3024
928.056	3100
928.162	3169
928.267	3291
928.373	3785
928.479	3298
928.585	3089
928.69	3207
928.796	3230
928.901	3173
929.007	3039
929.112	3195
929.218	3180
929.323	3176
929.428	3157
929.533	3344
929.638	3100
929.743	3154
929.848	3268
929.953	3226
930.058	3138
930.163	3001
930.267	3066
930.372	3226
930.477	3024
930.581	3317
930.685	3199
930.79	3097
930.894	3142
930.998	3127
931.103	3302
931.207	2937
931.311	2937
931.415	2952
931.519	2766
931.623	2792
