Data from test_V78500241_522.txt Node
Date: Fri Mar 25 16:18:49 CST 2022
User: usil
Spectrometer: V785-0024
Trigger mode: 0
Integration Time (sec): 4.000000E-1
Scans to average: 1
Nonlinearity correction enabled: false
Boxcar width: 0
Storing dark spectrum: false
XAxis mode: Wavelengths
Number of Pixels in Spectrum: 1024
>>>>>Begin Spectral Data<<<<<
801.071	2887
801.214	2933
801.356	2842
801.499	2891
801.641	2872
801.783	2910
801.926	3062
802.068	2952
802.211	2982
802.353	3001
802.496	2990
802.638	3028
802.78	3024
802.923	3039
803.065	2982
803.208	2883
803.35	2895
803.492	2902
803.635	2891
803.777	2724
803.919	2857
804.061	3214
804.204	2937
804.346	2914
804.488	2819
804.63	2994
804.773	2857
804.915	2899
805.057	3093
805.199	2910
805.341	2952
805.483	3032
805.626	3001
805.768	2925
805.91	3062
806.052	3070
806.194	3005
806.336	3199
806.478	2994
806.62	2960
806.762	2979
806.904	3062
807.046	3161
807.188	2998
807.33	2895
807.472	2994
807.614	2838
807.756	2975
807.898	2906
808.04	2910
808.182	2956
808.324	2990
808.465	2906
808.607	2849
808.749	2807
808.891	2819
809.033	2990
809.174	2941
809.316	2902
809.458	2872
809.6	2754
809.741	2796
809.883	2720
810.025	2853
810.166	2834
810.308	2853
810.45	2864
810.591	2746
810.733	2766
810.875	2834
811.016	2762
811.158	2785
811.299	2788
811.441	2922
811.582	2876
811.724	2811
811.865	2811
812.007	2861
812.148	2868
812.29	2842
812.431	2868
812.573	2948
812.714	2960
812.855	3036
812.997	3066
813.138	3119
813.279	3005
813.421	2929
813.562	2971
813.703	2864
813.845	2876
813.986	2746
814.127	2716
814.268	2815
814.41	2807
814.551	2819
814.692	2864
814.833	2788
814.974	2883
815.115	2941
815.256	2807
815.397	2769
815.539	2868
815.68	2777
815.821	2777
815.962	2914
816.103	2914
816.244	2876
816.385	2838
816.526	2979
816.666	2887
816.807	2746
816.948	2857
817.089	2925
817.23	2842
817.371	2762
817.512	2792
817.653	2823
817.793	2834
817.934	2876
818.075	2925
818.216	2967
818.356	3005
818.497	2834
818.638	2792
818.778	2785
818.919	2811
819.06	2735
819.2	2872
819.341	2804
819.481	2769
819.622	2929
819.762	3070
819.903	3055
820.043	2895
820.184	2902
820.324	2910
820.465	3024
820.605	3017
820.746	3032
820.886	2948
821.026	3104
821.167	3161
821.307	3214
821.447	3302
821.588	3249
821.728	3188
821.868	3150
822.008	3077
822.149	3211
822.289	3241
822.429	3085
822.569	3093
822.709	3218
822.849	3051
822.99	3047
823.13	3180
823.27	3176
823.41	3081
823.55	3104
823.69	3135
823.83	3176
823.97	3093
824.11	3005
824.25	2982
824.389	3043
824.529	3089
824.669	3070
824.809	3154
824.949	3249
825.089	3249
825.228	3146
825.368	3013
825.508	2952
825.648	2948
825.787	3013
825.927	3024
826.067	2963
826.206	2948
826.346	3055
826.485	3081
826.625	3104
826.765	3249
826.904	3184
827.044	3001
827.183	2948
827.323	2849
827.462	2982
827.601	2922
827.741	2902
827.88	2986
828.02	2834
828.159	2979
828.298	3009
828.437	3093
828.577	3005
828.716	3272
828.855	3074
828.994	2910
829.134	2880
829.273	2906
829.412	2849
829.551	2834
829.69	2899
829.829	2963
829.968	3112
830.107	2998
830.246	2994
830.385	2933
830.524	2910
830.663	2826
830.802	2705
830.941	2632
831.08	2629
831.219	2743
831.357	2746
831.496	2910
831.635	2670
831.774	2651
831.913	2644
832.051	2564
832.19	2552
832.329	2663
832.467	2507
832.606	2465
832.744	2571
832.883	2560
833.022	2560
833.16	2617
833.299	2667
833.437	2682
833.576	2659
833.714	2693
833.852	2743
833.991	2735
834.129	2834
834.267	2785
834.406	2766
834.544	2826
834.682	2849
834.821	2823
834.959	3020
835.097	2887
835.235	3051
835.373	2960
835.511	3013
835.65	2937
835.788	2963
835.926	2838
836.064	2800
836.202	2815
836.34	3074
836.478	3135
836.615	3043
836.753	3116
836.891	3173
837.029	3150
837.167	3097
837.305	3047
837.443	3028
837.58	2960
837.718	3116
837.856	3062
837.993	2975
838.131	3119
838.269	3104
838.406	3077
838.544	3062
838.681	2925
838.819	2880
838.956	2819
839.094	2864
839.231	2918
839.369	3005
839.506	3393
839.643	3188
839.781	2979
839.918	2948
840.055	3024
840.193	3047
840.33	3051
840.467	3100
840.604	3161
840.742	3389
840.879	3039
841.016	3047
841.153	3085
841.29	3317
841.427	3272
841.564	3287
841.701	3317
841.838	3184
841.975	3154
842.112	3203
842.249	3077
842.385	3020
842.522	3256
842.659	3085
842.796	3055
842.933	3104
843.069	3005
843.206	3047
843.343	3157
843.479	3081
843.616	3157
843.752	2864
843.889	2853
844.025	3081
844.162	2876
844.298	3036
844.435	2891
844.571	2883
844.708	3070
844.844	3192
844.98	3218
845.117	3180
845.253	3051
845.389	2986
845.525	3104
845.661	3077
845.798	2979
845.934	3123
846.07	3062
846.206	3207
846.342	3302
846.478	3237
846.614	3070
846.75	3017
846.886	3005
847.022	3241
847.158	3104
847.294	3169
847.429	3249
847.565	3173
847.701	3450
847.837	3028
847.972	2986
848.108	3089
848.244	3097
848.379	2982
848.515	2895
848.65	2918
848.786	2952
848.921	3028
849.057	3066
849.192	3138
849.328	3085
849.463	3131
849.598	3062
849.734	3058
849.869	3013
850.004	2925
850.14	2963
850.275	2929
850.41	2864
850.545	2887
850.68	2937
850.815	2979
850.95	2979
851.085	3207
851.22	3123
851.355	3070
851.49	3005
851.625	2998
851.76	3070
851.895	2952
852.03	2906
852.165	3058
852.299	3138
852.434	3222
852.569	3165
852.703	3184
852.838	3272
852.973	3389
853.107	3355
853.242	3184
853.376	3157
853.511	3009
853.645	3043
853.78	3272
853.914	3161
854.048	3138
854.183	3112
854.317	3195
854.451	3298
854.585	3195
854.72	3138
854.854	3260
854.988	3100
855.122	3165
855.256	3001
855.39	3169
855.524	3287
855.658	3199
855.792	3150
855.926	3249
856.06	3264
856.194	3291
856.327	3195
856.461	3123
856.595	3150
856.729	3173
856.862	3253
856.996	3218
857.13	3207
857.263	3214
857.397	3329
857.53	3123
857.664	3188
857.797	3283
857.931	3310
858.064	3195
858.197	3245
858.331	3199
858.464	3123
858.597	3062
858.731	3146
858.864	3169
858.997	3119
859.13	3199
859.263	3188
859.396	3237
859.529	3089
859.662	3100
859.795	3039
859.928	3154
860.061	3287
860.194	3348
860.327	3157
860.46	3142
860.592	3268
860.725	3279
860.858	3249
860.99	3146
861.123	3093
861.256	3051
861.388	3169
861.521	3930
861.653	3077
861.786	3028
861.918	3017
862.05	3089
862.183	3135
862.315	3169
862.447	3283
862.58	3154
862.712	2944
862.844	2895
862.976	3032
863.108	3039
863.24	3439
863.372	2910
863.504	2948
863.636	3005
863.768	3066
863.9	3013
864.032	2902
864.164	2986
864.296	3039
864.428	3100
864.559	3104
864.691	3077
864.823	3089
864.954	3039
865.086	3062
865.217	3001
865.349	2952
865.48	3013
865.612	3051
865.743	3173
865.875	3020
866.006	2990
866.137	3032
866.269	2971
866.4	2956
866.531	2963
866.662	2895
866.793	2902
866.924	2952
867.055	2990
867.186	2941
867.317	2929
867.448	2883
867.579	2876
867.71	2891
867.841	2842
867.972	2944
868.103	2880
868.233	2918
868.364	2887
868.495	2880
868.625	3093
868.756	3161
868.886	2990
869.017	3028
869.147	3218
869.278	3161
869.408	3070
869.539	3036
869.669	3123
869.799	3097
869.929	3161
870.06	3119
870.19	3367
870.32	3279
870.45	3272
870.58	3420
870.71	3466
870.84	3488
870.97	3306
871.1	3291
871.23	3492
871.36	3473
871.489	3382
871.619	3431
871.749	3424
871.879	3454
872.008	3504
872.138	3382
872.267	3291
872.397	3176
872.526	3135
872.656	3066
872.785	3100
872.915	3272
873.044	3302
873.173	3233
873.303	3291
873.432	3279
873.561	3237
873.69	3180
873.819	3154
873.948	3211
874.077	3119
874.206	3085
874.335	3100
874.464	3230
874.593	3355
874.722	3298
874.851	3378
874.979	3370
875.108	3317
875.237	3218
875.365	3211
875.494	3211
875.623	3298
875.751	3089
875.88	3165
876.008	3184
876.136	3218
876.265	3382
876.393	3572
876.521	3481
876.65	3412
876.778	3363
876.906	3275
877.034	3241
877.162	3264
877.29	3211
877.418	3325
877.546	3256
877.674	3264
877.802	3245
877.93	3241
878.058	3176
878.185	3123
878.313	3233
878.441	3272
878.568	3108
878.696	3180
878.824	3260
878.951	3321
879.079	3443
879.206	3652
879.333	3435
879.461	3351
879.588	3393
879.715	3526
879.842	3606
879.97	3386
880.097	3192
880.224	3180
880.351	3188
880.478	3272
880.605	3203
880.732	3222
880.859	3515
880.986	3313
881.112	3355
881.239	3195
881.366	3176
881.493	3062
881.619	3074
881.746	3108
881.872	3127
881.999	3104
882.125	3180
882.252	3226
882.378	3355
882.505	3485
882.631	3310
882.757	3184
882.883	3222
883.01	3233
883.136	3154
883.262	3108
883.388	3127
883.514	3351
883.64	3401
883.766	3310
883.892	3184
884.018	3283
884.143	3447
884.269	3561
884.395	3233
884.52	3169
884.646	3203
884.772	3127
884.897	3119
885.023	3230
885.148	3355
885.274	3431
885.399	3447
885.524	3310
885.65	3264
885.775	3287
885.9	3283
886.025	3462
886.15	3386
886.275	3298
886.4	3260
886.525	3336
886.65	3260
886.775	3298
886.9	3519
887.025	3648
887.149	3397
887.274	3268
887.399	3203
887.523	3233
887.648	3180
887.773	3233
887.897	3386
888.021	3439
888.146	3310
888.27	3428
888.395	3576
888.519	3443
888.643	3431
888.767	3473
888.891	3332
889.015	3287
889.139	3313
889.263	3245
889.387	3401
889.511	3523
889.635	3473
889.759	3306
889.883	3332
890.006	3389
890.13	3488
890.254	3287
890.377	3374
890.501	3211
890.624	3207
890.748	3313
890.871	3211
890.995	3138
891.118	3093
891.241	3230
891.364	3253
891.488	3348
891.611	3180
891.734	3272
891.857	3302
891.98	3230
892.103	3367
892.226	3291
892.349	3241
892.471	3112
892.594	3260
892.717	3298
892.839	3256
892.962	3275
893.085	3393
893.207	3329
893.33	3154
893.452	3214
893.575	3412
893.697	3275
893.819	3473
893.941	3530
894.064	3450
894.186	3310
894.308	3302
894.43	3428
894.552	3564
894.674	3481
894.796	3291
894.918	3302
895.04	3310
895.161	3443
895.283	3439
895.405	3336
895.526	3405
895.648	3466
895.769	3443
895.891	3481
896.012	3485
896.134	3492
896.255	3382
896.376	3382
896.498	3382
896.619	3481
896.74	3397
896.861	3454
896.982	3694
897.103	3827
897.224	3652
897.345	3564
897.466	3496
897.587	3523
897.708	3614
897.828	3584
897.949	3454
898.07	3317
898.19	3439
898.311	3561
898.431	3481
898.552	3530
898.672	3576
898.792	3580
898.913	3515
899.033	3439
899.153	3306
899.273	3226
899.393	3279
899.513	3336
899.633	3325
899.753	3340
899.873	3321
899.993	3405
900.113	3344
900.232	3420
900.352	3401
900.472	3329
900.591	3222
900.711	3325
900.83	3279
900.95	3469
901.069	3511
901.189	3370
901.308	3161
901.427	3157
901.546	3207
901.665	3306
901.784	3351
901.904	3222
902.023	3142
902.141	3020
902.26	3005
902.379	3131
902.498	3104
902.617	3097
902.735	3207
902.854	3245
902.973	3218
903.091	3081
903.21	3081
903.328	3188
903.446	3112
903.565	3097
903.683	3214
903.801	3157
903.919	3233
904.038	3268
904.156	3180
904.274	3329
904.392	3275
904.51	3253
904.627	3321
904.745	3447
904.863	3507
904.981	3279
905.098	3169
905.216	3253
905.334	3321
905.451	3348
905.569	3344
905.686	3435
905.803	3409
905.921	3321
906.038	3450
906.155	3351
906.272	3313
906.389	3355
906.506	3222
906.623	3291
906.74	3272
906.857	3192
906.974	3291
907.091	3462
907.208	3610
907.324	3519
907.441	3401
907.557	3287
907.674	3253
907.79	3237
907.907	3291
908.023	3416
908.139	3393
908.256	3359
908.372	3386
908.488	3367
908.604	3287
908.72	3272
908.836	3294
908.952	3256
909.068	3359
909.184	3511
909.3	3393
909.415	3477
909.531	3485
909.647	3268
909.762	3294
909.878	3275
909.993	3336
910.108	3340
910.224	3363
910.339	3450
910.454	3370
910.57	3321
910.685	3260
910.8	3584
910.915	3568
911.03	3458
911.145	3283
911.259	3275
911.374	3340
911.489	3256
911.604	3268
911.718	3123
911.833	3192
911.947	3036
912.062	2998
912.176	3214
912.291	3199
912.405	3199
912.519	3412
912.633	3454
912.748	3370
912.862	3249
912.976	3184
913.09	3081
913.204	3154
913.318	3214
913.431	3325
913.545	3332
913.659	3424
913.772	3367
913.886	3249
914	3218
914.113	3382
914.226	3416
914.34	3359
914.453	3195
914.566	3378
914.68	3317
914.793	3294
914.906	3123
915.019	3135
915.132	3097
915.245	3192
915.358	3207
915.47	3230
915.583	3256
915.696	3325
915.809	3409
915.921	3443
916.034	3329
916.146	3230
916.259	3241
916.371	3405
916.483	3382
916.595	3294
916.708	3348
916.82	3340
916.932	3355
917.044	3374
917.156	3389
917.268	3302
917.38	3321
917.491	3298
917.603	3435
917.715	3450
917.826	3496
917.938	3401
918.049	3283
918.161	3477
918.272	3591
918.384	3633
918.495	3523
918.606	3378
918.717	3275
918.828	3386
918.939	3431
919.05	3340
919.161	3367
919.272	3233
919.383	3336
919.494	3504
919.604	3701
919.715	3507
919.826	3424
919.936	3504
920.047	3652
920.157	3572
920.267	3781
920.378	3679
920.488	3622
920.598	3838
920.708	3972
920.818	3888
920.928	3861
921.038	4063
921.148	4055
921.258	3778
921.368	3717
921.477	3637
921.587	3538
921.697	3477
921.806	3698
921.916	3580
922.025	3416
922.134	3367
922.244	3363
922.353	3462
922.462	3287
922.571	3329
922.68	3161
922.789	3108
922.898	3169
923.007	3180
923.116	3268
923.224	3199
923.333	3184
923.442	3131
923.55	3123
923.659	3161
923.767	3294
923.876	3161
923.984	3268
924.092	3123
924.201	3237
924.309	3241
924.417	3283
924.525	3241
924.633	3294
924.741	4215
924.849	3062
924.956	3294
925.064	3180
925.172	3081
925.279	3150
925.387	3245
925.494	3211
925.602	3405
925.709	3355
925.816	3207
925.924	3329
926.031	3405
926.138	3359
926.245	3401
926.352	3302
926.459	3447
926.566	3507
926.673	3340
926.779	3306
926.886	3279
926.993	3173
927.099	3180
927.206	3173
927.312	3142
927.419	3268
927.525	3211
927.631	3351
927.737	3169
927.843	3173
927.95	3062
928.056	3207
928.162	3207
928.267	3287
928.373	3857
928.479	3355
928.585	3100
928.69	3260
928.796	3294
928.901	3195
929.007	3062
929.112	3253
929.218	3233
929.323	3161
929.428	3180
929.533	3329
929.638	3176
929.743	3241
929.848	3298
929.953	3283
930.058	3188
930.163	3032
930.267	3089
930.372	3237
930.477	3077
930.581	3359
930.685	3222
930.79	3070
930.894	3169
930.998	3150
931.103	3332
931.207	3005
931.311	2998
931.415	2967
931.519	2800
931.623	2815
