Data from test_V78500241_519.txt Node
Date: Fri Mar 25 16:18:47 CST 2022
User: usil
Spectrometer: V785-0024
Trigger mode: 0
Integration Time (sec): 4.000000E-1
Scans to average: 1
Nonlinearity correction enabled: false
Boxcar width: 0
Storing dark spectrum: false
XAxis mode: Wavelengths
Number of Pixels in Spectrum: 1024
>>>>>Begin Spectral Data<<<<<
801.071	2933
801.214	2929
801.356	2861
801.499	2941
801.641	2842
801.783	2902
801.926	3074
802.068	2948
802.211	2963
802.353	3020
802.496	2967
802.638	2990
802.78	3055
802.923	3058
803.065	2975
803.208	2872
803.35	2906
803.492	2952
803.635	2918
803.777	2724
803.919	2838
804.061	3207
804.204	2922
804.346	2876
804.488	2868
804.63	2960
804.773	2819
804.915	2891
805.057	3051
805.199	2929
805.341	2952
805.483	3062
805.626	2963
805.768	2929
805.91	3066
806.052	3089
806.194	3032
806.336	3199
806.478	3005
806.62	2948
806.762	2929
806.904	3005
807.046	3138
807.188	2948
807.33	2922
807.472	2986
807.614	2899
807.756	2979
807.898	2918
808.04	2933
808.182	2967
808.324	2922
808.465	2845
808.607	2853
808.749	2804
808.891	2845
809.033	2956
809.174	2929
809.316	2883
809.458	2857
809.6	2750
809.741	2754
809.883	2773
810.025	2834
810.166	2792
810.308	2830
810.45	2868
810.591	2758
810.733	2746
810.875	2857
811.016	2746
811.158	2735
811.299	2781
811.441	2937
811.582	2861
811.724	2796
811.865	2800
812.007	2883
812.148	2883
812.29	2815
812.431	2891
812.573	2929
812.714	2952
812.855	3036
812.997	3062
813.138	3116
813.279	2975
813.421	2986
813.562	2918
813.703	2872
813.845	2857
813.986	2773
814.127	2724
814.268	2800
814.41	2823
814.551	2804
814.692	2872
814.833	2800
814.974	2891
815.115	2963
815.256	2830
815.397	2804
815.539	2845
815.68	2785
815.821	2788
815.962	2963
816.103	2929
816.244	2868
816.385	2842
816.526	2941
816.666	2937
816.807	2750
816.948	2880
817.089	2914
817.23	2834
817.371	2720
817.512	2777
817.653	2800
817.793	2842
817.934	2872
818.075	2967
818.216	3009
818.356	2975
818.497	2880
818.638	2807
818.778	2792
818.919	2807
819.06	2754
819.2	2895
819.341	2807
819.481	2838
819.622	2941
819.762	3077
819.903	3051
820.043	2922
820.184	2883
820.324	2906
820.465	3024
820.605	3058
820.746	2994
820.886	2895
821.026	3047
821.167	3154
821.307	3253
821.447	3298
821.588	3222
821.728	3161
821.868	3203
822.008	3062
822.149	3207
822.289	3195
822.429	3116
822.569	3066
822.709	3184
822.849	3017
822.99	3058
823.13	3169
823.27	3173
823.41	3112
823.55	3161
823.69	3138
823.83	3169
823.97	3089
824.11	3017
824.25	3017
824.389	3062
824.529	3081
824.669	3066
824.809	3154
824.949	3256
825.089	3188
825.228	3154
825.368	3024
825.508	2971
825.648	2982
825.787	2982
825.927	2994
826.067	2956
826.206	2960
826.346	3028
826.485	3070
826.625	3123
826.765	3233
826.904	3195
827.044	2990
827.183	2948
827.323	2845
827.462	2975
827.601	2906
827.741	2883
827.88	2971
828.02	2880
828.159	2948
828.298	3039
828.437	3108
828.577	3024
828.716	3245
828.855	3032
828.994	2922
829.134	2910
829.273	2902
829.412	2845
829.551	2845
829.69	2906
829.829	2967
829.968	3154
830.107	3039
830.246	3013
830.385	2899
830.524	2891
830.663	2811
830.802	2746
830.941	2636
831.08	2629
831.219	2792
831.357	2762
831.496	2941
831.635	2720
831.774	2651
831.913	2667
832.051	2545
832.19	2594
832.329	2686
832.467	2541
832.606	2507
832.744	2552
832.883	2556
833.022	2598
833.16	2613
833.299	2678
833.437	2674
833.576	2731
833.714	2727
833.852	2731
833.991	2785
834.129	2845
834.267	2857
834.406	2785
834.544	2838
834.682	2902
834.821	2883
834.959	3066
835.097	2910
835.235	3070
835.373	2971
835.511	3009
835.65	2941
835.788	2948
835.926	2819
836.064	2811
836.202	2826
836.34	3066
836.478	3138
836.615	3039
836.753	3131
836.891	3207
837.029	3135
837.167	3119
837.305	3081
837.443	3055
837.58	2941
837.718	3131
837.856	3047
837.993	3055
838.131	3138
838.269	3119
838.406	3093
838.544	3051
838.681	2960
838.819	2914
838.956	2796
839.094	2838
839.231	2918
839.369	3020
839.506	3378
839.643	3199
839.781	3013
839.918	2933
840.055	3047
840.193	3043
840.33	3077
840.467	3104
840.604	3142
840.742	3405
840.879	3043
841.016	3051
841.153	3123
841.29	3313
841.427	3283
841.564	3256
841.701	3302
841.838	3203
841.975	3173
842.112	3214
842.249	3089
842.385	3047
842.522	3253
842.659	3032
842.796	3055
842.933	3093
843.069	3020
843.206	3017
843.343	3173
843.479	3127
843.616	3161
843.752	2937
843.889	2872
844.025	3047
844.162	2883
844.298	3093
844.435	2971
844.571	2891
844.708	3055
844.844	3173
844.98	3203
845.117	3150
845.253	3077
845.389	2982
845.525	3093
845.661	3081
845.798	3013
845.934	3116
846.07	3032
846.206	3199
846.342	3264
846.478	3184
846.614	3085
846.75	3066
846.886	3036
847.022	3226
847.158	3112
847.294	3203
847.429	3256
847.565	3157
847.701	3481
847.837	3005
847.972	2990
848.108	3157
848.244	3116
848.379	2998
848.515	2941
848.65	2891
848.786	2925
848.921	3009
849.057	3081
849.192	3123
849.328	3074
849.463	3119
849.598	3062
849.734	3005
849.869	2944
850.004	2914
850.14	2979
850.275	2887
850.41	2834
850.545	2864
850.68	2937
850.815	2960
850.95	2967
851.085	3173
851.22	3108
851.355	3066
851.49	2975
851.625	2975
851.76	3009
851.895	2864
852.03	2914
852.165	3017
852.299	3119
852.434	3135
852.569	3154
852.703	3131
852.838	3207
852.973	3336
853.107	3321
853.242	3154
853.376	3077
853.511	2963
853.645	3028
853.78	3256
853.914	3100
854.048	3081
854.183	3062
854.317	3142
854.451	3306
854.585	3116
854.72	3104
854.854	3207
854.988	3043
855.122	3066
855.256	2960
855.39	3093
855.524	3233
855.658	3154
855.792	3131
855.926	3176
856.06	3214
856.194	3253
856.327	3138
856.461	3077
856.595	3074
856.729	3085
856.862	3184
856.996	3146
857.13	3173
857.263	3218
857.397	3233
857.53	3116
857.664	3180
857.797	3211
857.931	3241
858.064	3131
858.197	3222
858.331	3146
858.464	3097
858.597	2998
858.731	3116
858.864	3131
858.997	3074
859.13	3165
859.263	3138
859.396	3192
859.529	3062
859.662	3066
859.795	3017
859.928	3127
860.061	3268
860.194	3279
860.327	3142
860.46	3100
860.592	3226
860.725	3264
860.858	3203
860.99	3104
861.123	3062
861.256	3043
861.388	3146
861.521	3876
861.653	3043
861.786	2982
861.918	2998
862.05	3032
862.183	3070
862.315	3142
862.447	3199
862.58	3093
862.712	2967
862.844	2880
862.976	3032
863.108	3020
863.24	3409
863.372	2864
863.504	2956
863.636	2944
863.768	2979
863.9	2967
864.032	2906
864.164	2933
864.296	2990
864.428	3104
864.559	3081
864.691	3077
864.823	3028
864.954	3024
865.086	3036
865.217	2994
865.349	2937
865.48	2963
865.612	3017
865.743	3157
865.875	2994
866.006	2941
866.137	2982
866.269	2975
866.4	2929
866.531	2933
866.662	2868
866.793	2880
866.924	2906
867.055	2979
867.186	2952
867.317	2864
867.448	2830
867.579	2845
867.71	2880
867.841	2842
867.972	2891
868.103	2922
868.233	2899
868.364	2872
868.495	2887
868.625	3055
868.756	3138
868.886	2937
869.017	3005
869.147	3146
869.278	3138
869.408	3039
869.539	3043
869.669	3070
869.799	3058
869.929	3112
870.06	3123
870.19	3367
870.32	3241
870.45	3317
870.58	3367
870.71	3443
870.84	3424
870.97	3291
871.1	3260
871.23	3424
871.36	3443
871.489	3344
871.619	3401
871.749	3370
871.879	3397
872.008	3450
872.138	3332
872.267	3272
872.397	3165
872.526	3119
872.656	3009
872.785	3093
872.915	3237
873.044	3298
873.173	3226
873.303	3264
873.432	3199
873.561	3249
873.69	3180
873.819	3146
873.948	3211
874.077	3085
874.206	3051
874.335	3100
874.464	3226
874.593	3386
874.722	3253
874.851	3370
874.979	3374
875.108	3321
875.237	3211
875.365	3169
875.494	3157
875.623	3249
875.751	3104
875.88	3085
876.008	3169
876.136	3233
876.265	3336
876.393	3500
876.521	3428
876.65	3348
876.778	3348
876.906	3241
877.034	3188
877.162	3237
877.29	3173
877.418	3260
877.546	3256
877.674	3226
877.802	3222
877.93	3233
878.058	3161
878.185	3066
878.313	3199
878.441	3214
878.568	3055
878.696	3157
878.824	3230
878.951	3340
879.079	3412
879.206	3561
879.333	3405
879.461	3355
879.588	3344
879.715	3450
879.842	3572
879.97	3363
880.097	3161
880.224	3119
880.351	3173
880.478	3253
880.605	3192
880.732	3188
880.859	3496
880.986	3272
881.112	3332
881.239	3211
881.366	3097
881.493	3009
881.619	3013
881.746	3047
881.872	3085
881.999	3055
882.125	3135
882.252	3214
882.378	3325
882.505	3428
882.631	3256
882.757	3157
882.883	3169
883.01	3195
883.136	3180
883.262	3085
883.388	3112
883.514	3283
883.64	3378
883.766	3298
883.892	3169
884.018	3245
884.143	3428
884.269	3534
884.395	3199
884.52	3157
884.646	3176
884.772	3116
884.897	3108
885.023	3211
885.148	3321
885.274	3416
885.399	3363
885.524	3264
885.65	3241
885.775	3310
885.9	3275
886.025	3420
886.15	3359
886.275	3275
886.4	3203
886.525	3291
886.65	3237
886.775	3283
886.9	3492
887.025	3595
887.149	3412
887.274	3237
887.399	3192
887.523	3245
887.648	3207
887.773	3176
887.897	3332
888.021	3420
888.146	3325
888.27	3416
888.395	3515
888.519	3439
888.643	3466
888.767	3443
888.891	3329
889.015	3211
889.139	3287
889.263	3283
889.387	3397
889.511	3473
889.635	3450
889.759	3310
889.883	3291
890.006	3355
890.13	3485
890.254	3279
890.377	3348
890.501	3176
890.624	3165
890.748	3306
890.871	3165
890.995	3062
891.118	3074
891.241	3165
891.364	3233
891.488	3287
891.611	3165
891.734	3199
891.857	3222
891.98	3233
892.103	3348
892.226	3298
892.349	3214
892.471	3108
892.594	3214
892.717	3291
892.839	3253
892.962	3306
893.085	3355
893.207	3283
893.33	3135
893.452	3222
893.575	3378
893.697	3279
893.819	3435
893.941	3523
894.064	3481
894.186	3241
894.308	3264
894.43	3469
894.552	3561
894.674	3500
894.796	3249
894.918	3283
895.04	3260
895.161	3435
895.283	3374
895.405	3275
895.526	3348
895.648	3420
895.769	3450
895.891	3428
896.012	3469
896.134	3462
896.255	3382
896.376	3374
896.498	3367
896.619	3382
896.74	3363
896.861	3378
896.982	3663
897.103	3838
897.224	3538
897.345	3534
897.466	3428
897.587	3485
897.708	3652
897.828	3557
897.949	3439
898.07	3325
898.19	3443
898.311	3614
898.431	3439
898.552	3530
898.672	3603
898.792	3576
898.913	3485
899.033	3416
899.153	3291
899.273	3188
899.393	3275
899.513	3302
899.633	3351
899.753	3298
899.873	3298
899.993	3382
900.113	3317
900.232	3401
900.352	3336
900.472	3268
900.591	3180
900.711	3294
900.83	3230
900.95	3420
901.069	3488
901.189	3359
901.308	3157
901.427	3119
901.546	3161
901.665	3306
901.784	3344
901.904	3161
902.023	3154
902.141	3028
902.26	2986
902.379	3146
902.498	3074
902.617	3017
902.735	3245
902.854	3222
902.973	3176
903.091	3039
903.21	3055
903.328	3135
903.446	3119
903.565	3081
903.683	3203
903.801	3123
903.919	3226
904.038	3306
904.156	3138
904.274	3275
904.392	3249
904.51	3306
904.627	3321
904.745	3469
904.863	3458
904.981	3230
905.098	3161
905.216	3272
905.334	3283
905.451	3283
905.569	3313
905.686	3443
905.803	3469
905.921	3268
906.038	3409
906.155	3367
906.272	3294
906.389	3302
906.506	3222
906.623	3253
906.74	3264
906.857	3192
906.974	3256
907.091	3389
907.208	3538
907.324	3477
907.441	3393
907.557	3272
907.674	3218
907.79	3214
907.907	3253
908.023	3370
908.139	3370
908.256	3340
908.372	3378
908.488	3409
908.604	3222
908.72	3203
908.836	3279
908.952	3287
909.068	3321
909.184	3488
909.3	3378
909.415	3504
909.531	3443
909.647	3264
909.762	3279
909.878	3253
909.993	3348
910.108	3306
910.224	3351
910.339	3405
910.454	3348
910.57	3283
910.685	3226
910.8	3595
910.915	3515
911.03	3409
911.145	3275
911.259	3230
911.374	3332
911.489	3214
911.604	3233
911.718	3108
911.833	3165
911.947	3051
912.062	2979
912.176	3169
912.291	3176
912.405	3180
912.519	3447
912.633	3447
912.748	3370
912.862	3294
912.976	3176
913.09	3081
913.204	3119
913.318	3169
913.431	3332
913.545	3298
913.659	3386
913.772	3363
913.886	3211
914	3214
914.113	3348
914.226	3409
914.34	3332
914.453	3184
914.566	3389
914.68	3317
914.793	3332
914.906	3146
915.019	3138
915.132	3062
915.245	3192
915.358	3237
915.47	3253
915.583	3245
915.696	3245
915.809	3401
915.921	3420
916.034	3214
916.146	3275
916.259	3279
916.371	3378
916.483	3313
916.595	3298
916.708	3321
916.82	3340
916.932	3329
917.044	3336
917.156	3355
917.268	3237
917.38	3336
917.491	3287
917.603	3374
917.715	3386
917.826	3447
917.938	3374
918.049	3260
918.161	3473
918.272	3549
918.384	3564
918.495	3466
918.606	3348
918.717	3291
918.828	3367
918.939	3435
919.05	3313
919.161	3389
919.272	3157
919.383	3287
919.494	3450
919.604	3675
919.715	3481
919.826	3435
919.936	3458
920.047	3603
920.157	3549
920.267	3770
920.378	3557
920.488	3576
920.598	3755
920.708	3945
920.818	3827
920.928	3846
921.038	4025
921.148	3979
921.258	3717
921.368	3644
921.477	3595
921.587	3534
921.697	3439
921.806	3606
921.916	3523
922.025	3348
922.134	3359
922.244	3321
922.353	3435
922.462	3260
922.571	3233
922.68	3112
922.789	3077
922.898	3131
923.007	3127
923.116	3199
923.224	3138
923.333	3161
923.442	3108
923.55	3100
923.659	3150
923.767	3203
923.876	3089
923.984	3237
924.092	3081
924.201	3192
924.309	3230
924.417	3226
924.525	3176
924.633	3237
924.741	4166
924.849	3062
924.956	3279
925.064	3066
925.172	3036
925.279	3112
925.387	3154
925.494	3203
925.602	3393
925.709	3325
925.816	3222
925.924	3264
926.031	3382
926.138	3294
926.245	3355
926.352	3241
926.459	3397
926.566	3504
926.673	3332
926.779	3245
926.886	3226
926.993	3154
927.099	3112
927.206	3123
927.312	3146
927.419	3256
927.525	3195
927.631	3275
927.737	3154
927.843	3108
927.95	3001
928.056	3131
928.162	3138
928.267	3230
928.373	3766
928.479	3298
928.585	3047
928.69	3256
928.796	3264
928.901	3138
929.007	3028
929.112	3169
929.218	3188
929.323	3157
929.428	3142
929.533	3344
929.638	3123
929.743	3135
929.848	3207
929.953	3241
930.058	3131
930.163	3001
930.267	3024
930.372	3192
930.477	3032
930.581	3332
930.685	3157
930.79	3036
930.894	3119
930.998	3077
931.103	3230
931.207	2960
931.311	2933
931.415	2910
931.519	2800
931.623	2804
