Data from test_V78500241_1754.txt Node
Date: Fri Mar 25 16:27:21 CST 2022
User: usil
Spectrometer: V785-0024
Trigger mode: 0
Integration Time (sec): 4.000000E-1
Scans to average: 1
Nonlinearity correction enabled: false
Boxcar width: 0
Storing dark spectrum: false
XAxis mode: Wavelengths
Number of Pixels in Spectrum: 1024
>>>>>Begin Spectral Data<<<<<
801.071	2941
801.214	2941
801.356	2868
801.499	2845
801.641	2845
801.783	2910
801.926	3047
802.068	2937
802.211	3005
802.353	3055
802.496	2967
802.638	3020
802.78	3028
802.923	3100
803.065	3001
803.208	2880
803.35	2902
803.492	2910
803.635	2922
803.777	2731
803.919	2853
804.061	3195
804.204	2952
804.346	2906
804.488	2849
804.63	2975
804.773	2823
804.915	2922
805.057	3062
805.199	2899
805.341	2960
805.483	3032
805.626	3039
805.768	2971
805.91	3097
806.052	3123
806.194	3051
806.336	3241
806.478	3020
806.62	2922
806.762	2998
806.904	3055
807.046	3135
807.188	3017
807.33	2933
807.472	3013
807.614	2906
807.756	2975
807.898	2933
808.04	2861
808.182	2948
808.324	2933
808.465	2861
808.607	2922
808.749	2785
808.891	2853
809.033	2963
809.174	2982
809.316	2872
809.458	2876
809.6	2788
809.741	2777
809.883	2773
810.025	2853
810.166	2849
810.308	2811
810.45	2857
810.591	2785
810.733	2766
810.875	2838
811.016	2842
811.158	2777
811.299	2807
811.441	2925
811.582	2910
811.724	2796
811.865	2823
812.007	2937
812.148	2861
812.29	2891
812.431	2864
812.573	2963
812.714	2975
812.855	3036
812.997	3055
813.138	3116
813.279	3024
813.421	2952
813.562	2902
813.703	2868
813.845	2880
813.986	2731
814.127	2712
814.268	2796
814.41	2785
814.551	2819
814.692	2868
814.833	2804
814.974	2857
815.115	2971
815.256	2830
815.397	2826
815.539	2861
815.68	2781
815.821	2800
815.962	2914
816.103	2948
816.244	2891
816.385	2872
816.526	2937
816.666	2883
816.807	2754
816.948	2872
817.089	2914
817.23	2872
817.371	2766
817.512	2762
817.653	2845
817.793	2807
817.934	2849
818.075	2948
818.216	2990
818.356	3039
818.497	2845
818.638	2788
818.778	2826
818.919	2807
819.06	2743
819.2	2880
819.341	2788
819.481	2773
819.622	2902
819.762	3104
819.903	3005
820.043	2910
820.184	2895
820.324	2872
820.465	3066
820.605	3043
820.746	3024
820.886	2933
821.026	3123
821.167	3173
821.307	3184
821.447	3268
821.588	3237
821.728	3184
821.868	3199
822.008	3055
822.149	3165
822.289	3260
822.429	3089
822.569	3077
822.709	3192
822.849	3017
822.99	3047
823.13	3089
823.27	3154
823.41	3127
823.55	3161
823.69	3165
823.83	3184
823.97	3112
824.11	2967
824.25	3013
824.389	3043
824.529	3097
824.669	3039
824.809	3249
824.949	3272
825.089	3199
825.228	3127
825.368	3001
825.508	2971
825.648	2979
825.787	2967
825.927	3036
826.067	2941
826.206	2944
826.346	3039
826.485	3039
826.625	3116
826.765	3249
826.904	3176
827.044	2975
827.183	2933
827.323	2857
827.462	2952
827.601	2922
827.741	2914
827.88	2960
828.02	2876
828.159	2971
828.298	3036
828.437	3074
828.577	3043
828.716	3253
828.855	3089
828.994	2918
829.134	2845
829.273	2922
829.412	2853
829.551	2857
829.69	2887
829.829	2963
829.968	3131
830.107	3032
830.246	3070
830.385	2922
830.524	2872
830.663	2788
830.802	2708
830.941	2625
831.08	2636
831.219	2754
831.357	2750
831.496	2899
831.635	2716
831.774	2625
831.913	2625
832.051	2526
832.19	2587
832.329	2667
832.467	2537
832.606	2476
832.744	2606
832.883	2583
833.022	2602
833.16	2640
833.299	2640
833.437	2708
833.576	2712
833.714	2735
833.852	2731
833.991	2746
834.129	2823
834.267	2819
834.406	2773
834.544	2842
834.682	2849
834.821	2830
834.959	3070
835.097	2864
835.235	3066
835.373	2990
835.511	3009
835.65	2925
835.788	2975
835.926	2834
836.064	2819
836.202	2838
836.34	3066
836.478	3154
836.615	3024
836.753	3100
836.891	3188
837.029	3192
837.167	3100
837.305	3089
837.443	3017
837.58	2952
837.718	3127
837.856	3051
837.993	3028
838.131	3097
838.269	3112
838.406	3097
838.544	3058
838.681	2906
838.819	2868
838.956	2823
839.094	2823
839.231	2925
839.369	3032
839.506	3374
839.643	3199
839.781	3009
839.918	2975
840.055	3047
840.193	3039
840.33	3070
840.467	3074
840.604	3138
840.742	3409
840.879	3074
841.016	3055
841.153	3077
841.29	3313
841.427	3310
841.564	3264
841.701	3275
841.838	3180
841.975	3142
842.112	3157
842.249	3062
842.385	3051
842.522	3272
842.659	3085
842.796	3081
842.933	3108
843.069	3055
843.206	3039
843.343	3180
843.479	3119
843.616	3085
843.752	2864
843.889	2861
844.025	3066
844.162	2842
844.298	3058
844.435	2937
844.571	2918
844.708	3055
844.844	3184
844.98	3218
845.117	3192
845.253	3028
845.389	2994
845.525	3104
845.661	3104
845.798	3013
845.934	3116
846.07	3058
846.206	3222
846.342	3317
846.478	3203
846.614	3081
846.75	3047
846.886	3009
847.022	3268
847.158	3116
847.294	3165
847.429	3245
847.565	3188
847.701	3431
847.837	3032
847.972	3005
848.108	3127
848.244	3169
848.379	2971
848.515	2956
848.65	2933
848.786	2937
848.921	2986
849.057	3112
849.192	3116
849.328	3116
849.463	3093
849.598	3039
849.734	3017
849.869	2963
850.004	2902
850.14	2960
850.275	2910
850.41	2842
850.545	2861
850.68	2929
850.815	2944
850.95	2967
851.085	3150
851.22	3085
851.355	3020
851.49	2979
851.625	2960
851.76	2963
851.895	2895
852.03	2929
852.165	3039
852.299	3100
852.434	3169
852.569	3146
852.703	3135
852.838	3226
852.973	3321
853.107	3363
853.242	3150
853.376	3081
853.511	2982
853.645	3024
853.78	3207
853.914	3108
854.048	3089
854.183	3104
854.317	3176
854.451	3272
854.585	3119
854.72	3062
854.854	3188
854.988	3070
855.122	3074
855.256	2971
855.39	3097
855.524	3230
855.658	3161
855.792	3161
855.926	3173
856.06	3241
856.194	3275
856.327	3146
856.461	3089
856.595	3055
856.729	3074
856.862	3233
856.996	3165
857.13	3188
857.263	3214
857.397	3275
857.53	3097
857.664	3203
857.797	3195
857.931	3268
858.064	3161
858.197	3203
858.331	3093
858.464	3055
858.597	3009
858.731	3135
858.864	3116
858.997	3047
859.13	3127
859.263	3146
859.396	3173
859.529	3066
859.662	3070
859.795	3020
859.928	3150
860.061	3268
860.194	3268
860.327	3112
860.46	3093
860.592	3230
860.725	3241
860.858	3256
860.99	3108
861.123	3051
861.256	3047
861.388	3097
861.521	3854
861.653	2994
861.786	2956
861.918	2990
862.05	3058
862.183	3100
862.315	3131
862.447	3226
862.58	3093
862.712	2960
862.844	2876
862.976	3001
863.108	3013
863.24	3283
863.372	2883
863.504	2941
863.636	2937
863.768	3043
863.9	2975
864.032	2922
864.164	2929
864.296	3028
864.428	3055
864.559	3123
864.691	3039
864.823	3104
864.954	3055
865.086	3024
865.217	2971
865.349	2899
865.48	2990
865.612	3024
865.743	3127
865.875	2986
866.006	2914
866.137	2948
866.269	2952
866.4	2948
866.531	2925
866.662	2842
866.793	2899
866.924	2922
867.055	2937
867.186	2910
867.317	2872
867.448	2830
867.579	2853
867.71	2883
867.841	2800
867.972	2902
868.103	2902
868.233	2883
868.364	2849
868.495	2899
868.625	3062
868.756	3184
868.886	2986
869.017	3013
869.147	3154
869.278	3161
869.408	3032
869.539	2990
869.669	3077
869.799	3039
869.929	3142
870.06	3112
870.19	3310
870.32	3291
870.45	3279
870.58	3355
870.71	3462
870.84	3431
870.97	3302
871.1	3241
871.23	3462
871.36	3466
871.489	3313
871.619	3359
871.749	3378
871.879	3409
872.008	3454
872.138	3393
872.267	3268
872.397	3127
872.526	3077
872.656	2967
872.785	3081
872.915	3233
873.044	3256
873.173	3214
873.303	3214
873.432	3222
873.561	3218
873.69	3150
873.819	3173
873.948	3211
874.077	3077
874.206	3047
874.335	3066
874.464	3195
874.593	3329
874.722	3256
874.851	3412
874.979	3367
875.108	3294
875.237	3203
875.365	3150
875.494	3169
875.623	3245
875.751	3097
875.88	3104
876.008	3176
876.136	3207
876.265	3367
876.393	3492
876.521	3439
876.65	3405
876.778	3329
876.906	3253
877.034	3176
877.162	3237
877.29	3176
877.418	3218
877.546	3245
877.674	3199
877.802	3211
877.93	3192
878.058	3150
878.185	3146
878.313	3157
878.441	3169
878.568	3047
878.696	3127
878.824	3249
878.951	3302
879.079	3450
879.206	3637
879.333	3454
879.461	3329
879.588	3393
879.715	3488
879.842	3606
879.97	3401
880.097	3127
880.224	3146
880.351	3173
880.478	3207
880.605	3173
880.732	3199
880.859	3519
880.986	3332
881.112	3332
881.239	3184
881.366	3085
881.493	3024
881.619	3020
881.746	3077
881.872	3066
881.999	3104
882.125	3154
882.252	3287
882.378	3291
882.505	3405
882.631	3233
882.757	3146
882.883	3241
883.01	3214
883.136	3180
883.262	3085
883.388	3097
883.514	3291
883.64	3367
883.766	3294
883.892	3207
884.018	3230
884.143	3443
884.269	3553
884.395	3192
884.52	3146
884.646	3195
884.772	3100
884.897	3116
885.023	3230
885.148	3355
885.274	3386
885.399	3363
885.524	3237
885.65	3279
885.775	3302
885.9	3256
886.025	3439
886.15	3367
886.275	3272
886.4	3237
886.525	3294
886.65	3241
886.775	3272
886.9	3488
887.025	3641
887.149	3401
887.274	3275
887.399	3169
887.523	3226
887.648	3211
887.773	3207
887.897	3329
888.021	3367
888.146	3306
888.27	3412
888.395	3515
888.519	3435
888.643	3469
888.767	3462
888.891	3344
889.015	3230
889.139	3291
889.263	3226
889.387	3378
889.511	3485
889.635	3405
889.759	3294
889.883	3294
890.006	3332
890.13	3458
890.254	3272
890.377	3344
890.501	3192
890.624	3180
890.748	3294
890.871	3199
890.995	3097
891.118	3074
891.241	3199
891.364	3230
891.488	3302
891.611	3184
891.734	3218
891.857	3291
891.98	3237
892.103	3332
892.226	3249
892.349	3237
892.471	3142
892.594	3226
892.717	3291
892.839	3268
892.962	3302
893.085	3344
893.207	3264
893.33	3176
893.452	3222
893.575	3313
893.697	3260
893.819	3473
893.941	3500
894.064	3447
894.186	3287
894.308	3283
894.43	3439
894.552	3530
894.674	3458
894.796	3260
894.918	3302
895.04	3287
895.161	3397
895.283	3401
895.405	3294
895.526	3348
895.648	3393
895.769	3412
895.891	3458
896.012	3431
896.134	3447
896.255	3374
896.376	3363
896.498	3344
896.619	3443
896.74	3336
896.861	3397
896.982	3663
897.103	3819
897.224	3584
897.345	3515
897.466	3431
897.587	3477
897.708	3599
897.828	3561
897.949	3450
898.07	3336
898.19	3382
898.311	3568
898.431	3447
898.552	3485
898.672	3561
898.792	3572
898.913	3530
899.033	3397
899.153	3279
899.273	3199
899.393	3279
899.513	3275
899.633	3317
899.753	3325
899.873	3310
899.993	3374
900.113	3294
900.232	3386
900.352	3340
900.472	3253
900.591	3218
900.711	3287
900.83	3272
900.95	3401
901.069	3504
901.189	3389
901.308	3146
901.427	3176
901.546	3214
901.665	3283
901.784	3336
901.904	3161
902.023	3108
902.141	3020
902.26	3013
902.379	3127
902.498	3070
902.617	3077
902.735	3249
902.854	3230
902.973	3188
903.091	3051
903.21	3074
903.328	3146
903.446	3112
903.565	3104
903.683	3169
903.801	3135
903.919	3222
904.038	3283
904.156	3199
904.274	3302
904.392	3249
904.51	3298
904.627	3329
904.745	3386
904.863	3454
904.981	3245
905.098	3173
905.216	3241
905.334	3310
905.451	3260
905.569	3279
905.686	3389
905.803	3412
905.921	3298
906.038	3397
906.155	3344
906.272	3264
906.389	3363
906.506	3218
906.623	3226
906.74	3325
906.857	3180
906.974	3226
907.091	3435
907.208	3568
907.324	3435
907.441	3397
907.557	3256
907.674	3218
907.79	3165
907.907	3291
908.023	3363
908.139	3367
908.256	3355
908.372	3378
908.488	3389
908.604	3249
908.72	3245
908.836	3279
908.952	3279
909.068	3313
909.184	3469
909.3	3420
909.415	3507
909.531	3424
909.647	3256
909.762	3272
909.878	3268
909.993	3363
910.108	3321
910.224	3329
910.339	3409
910.454	3344
910.57	3291
910.685	3226
910.8	3534
910.915	3549
911.03	3439
911.145	3275
911.259	3272
911.374	3283
911.489	3287
911.604	3241
911.718	3089
911.833	3173
911.947	3028
912.062	2963
912.176	3161
912.291	3180
912.405	3211
912.519	3443
912.633	3473
912.748	3317
912.862	3317
912.976	3127
913.09	3032
913.204	3127
913.318	3192
913.431	3325
913.545	3291
913.659	3450
913.772	3332
913.886	3222
914	3199
914.113	3306
914.226	3420
914.34	3401
914.453	3268
914.566	3382
914.68	3275
914.793	3313
914.906	3169
915.019	3081
915.132	3062
915.245	3184
915.358	3203
915.47	3207
915.583	3260
915.696	3275
915.809	3439
915.921	3412
916.034	3268
916.146	3249
916.259	3226
916.371	3424
916.483	3367
916.595	3230
916.708	3363
916.82	3310
916.932	3321
917.044	3336
917.156	3291
917.268	3256
917.38	3287
917.491	3291
917.603	3359
917.715	3458
917.826	3488
917.938	3397
918.049	3241
918.161	3450
918.272	3564
918.384	3549
918.495	3462
918.606	3272
918.717	3272
918.828	3393
918.939	3386
919.05	3310
919.161	3321
919.272	3203
919.383	3287
919.494	3450
919.604	3690
919.715	3496
919.826	3485
919.936	3473
920.047	3625
920.157	3542
920.267	3747
920.378	3595
920.488	3561
920.598	3785
920.708	3930
920.818	3861
920.928	3804
921.038	3998
921.148	3983
921.258	3675
921.368	3614
921.477	3557
921.587	3507
921.697	3492
921.806	3629
921.916	3496
922.025	3348
922.134	3344
922.244	3344
922.353	3443
922.462	3279
922.571	3241
922.68	3089
922.789	3077
922.898	3135
923.007	3093
923.116	3188
923.224	3192
923.333	3192
923.442	3108
923.55	3131
923.659	3176
923.767	3222
923.876	3100
923.984	3214
924.092	3123
924.201	3199
924.309	3222
924.417	3241
924.525	3188
924.633	3237
924.741	4013
924.849	3070
924.956	3268
925.064	3093
925.172	3032
925.279	3104
925.387	3195
925.494	3184
925.602	3370
925.709	3332
925.816	3188
925.924	3279
926.031	3393
926.138	3332
926.245	3344
926.352	3260
926.459	3374
926.566	3492
926.673	3298
926.779	3230
926.886	3214
926.993	3154
927.099	3104
927.206	3127
927.312	3135
927.419	3218
927.525	3199
927.631	3294
927.737	3146
927.843	3119
927.95	3032
928.056	3131
928.162	3184
928.267	3253
928.373	3884
928.479	3329
928.585	3024
928.69	3184
928.796	3260
928.901	3195
929.007	3043
929.112	3176
929.218	3180
929.323	3138
929.428	3146
929.533	3332
929.638	3097
929.743	3169
929.848	3275
929.953	3230
930.058	3104
930.163	3001
930.267	3009
930.372	3161
930.477	3032
930.581	3291
930.685	3161
930.79	3047
930.894	3138
930.998	3112
931.103	3260
931.207	2960
931.311	2937
931.415	2880
931.519	2773
931.623	2819
