Data from test_V78500241_695.txt Node
Date: Fri Mar 25 16:20:01 CST 2022
User: usil
Spectrometer: V785-0024
Trigger mode: 0
Integration Time (sec): 4.000000E-1
Scans to average: 1
Nonlinearity correction enabled: false
Boxcar width: 0
Storing dark spectrum: false
XAxis mode: Wavelengths
Number of Pixels in Spectrum: 1024
>>>>>Begin Spectral Data<<<<<
801.071	2899
801.214	2933
801.356	2887
801.499	2895
801.641	2872
801.783	2899
801.926	3036
802.068	2933
802.211	2960
802.353	3039
802.496	2933
802.638	3001
802.78	3051
802.923	3032
803.065	2998
803.208	2876
803.35	2922
803.492	2922
803.635	2925
803.777	2769
803.919	2830
804.061	3211
804.204	2944
804.346	2861
804.488	2853
804.63	3013
804.773	2872
804.915	2914
805.057	3097
805.199	2925
805.341	2975
805.483	3051
805.626	2975
805.768	2979
805.91	3051
806.052	3142
806.194	3028
806.336	3241
806.478	2994
806.62	2956
806.762	2937
806.904	3074
807.046	3161
807.188	2971
807.33	2925
807.472	3013
807.614	2883
807.756	2986
807.898	2941
808.04	2883
808.182	2975
808.324	2948
808.465	2902
808.607	2895
808.749	2819
808.891	2842
809.033	2960
809.174	2960
809.316	2914
809.458	2876
809.6	2769
809.741	2773
809.883	2727
810.025	2857
810.166	2826
810.308	2823
810.45	2880
810.591	2792
810.733	2758
810.875	2800
811.016	2804
811.158	2746
811.299	2781
811.441	2944
811.582	2880
811.724	2773
811.865	2842
812.007	2899
812.148	2864
812.29	2819
812.431	2891
812.573	2922
812.714	2979
812.855	2967
812.997	3058
813.138	3093
813.279	3001
813.421	2960
813.562	2986
813.703	2872
813.845	2899
813.986	2788
814.127	2701
814.268	2758
814.41	2823
814.551	2807
814.692	2861
814.833	2777
814.974	2891
815.115	2956
815.256	2807
815.397	2804
815.539	2887
815.68	2800
815.821	2785
815.962	2914
816.103	2899
816.244	2842
816.385	2864
816.526	2963
816.666	2937
816.807	2750
816.948	2868
817.089	2914
817.23	2845
817.371	2758
817.512	2788
817.653	2857
817.793	2815
817.934	2864
818.075	2998
818.216	2998
818.356	3020
818.497	2864
818.638	2788
818.778	2838
818.919	2781
819.06	2754
819.2	2872
819.341	2762
819.481	2834
819.622	2910
819.762	3081
819.903	3036
820.043	2948
820.184	2895
820.324	2895
820.465	3013
820.605	3032
820.746	3009
820.886	2918
821.026	3051
821.167	3150
821.307	3253
821.447	3275
821.588	3222
821.728	3188
821.868	3188
822.008	3062
822.149	3207
822.289	3180
822.429	3085
822.569	3077
822.709	3165
822.849	3020
822.99	3062
823.13	3180
823.27	3180
823.41	3097
823.55	3123
823.69	3150
823.83	3169
823.97	3097
824.11	2982
824.25	2994
824.389	3036
824.529	3051
824.669	3081
824.809	3188
824.949	3253
825.089	3192
825.228	3142
825.368	2986
825.508	2914
825.648	2937
825.787	2994
825.927	3024
826.067	2918
826.206	2941
826.346	3024
826.485	3043
826.625	3108
826.765	3264
826.904	3207
827.044	3001
827.183	2941
827.323	2857
827.462	2982
827.601	2891
827.741	2925
827.88	2990
828.02	2826
828.159	2975
828.298	3009
828.437	3100
828.577	3017
828.716	3249
828.855	3047
828.994	2895
829.134	2899
829.273	2941
829.412	2849
829.551	2838
829.69	2895
829.829	2944
829.968	3112
830.107	2982
830.246	3017
830.385	2922
830.524	2823
830.663	2819
830.802	2735
830.941	2651
831.08	2636
831.219	2769
831.357	2712
831.496	2944
831.635	2705
831.774	2640
831.913	2678
832.051	2514
832.19	2571
832.329	2651
832.467	2522
832.606	2457
832.744	2590
832.883	2583
833.022	2606
833.16	2663
833.299	2689
833.437	2697
833.576	2712
833.714	2731
833.852	2727
833.991	2762
834.129	2838
834.267	2842
834.406	2792
834.544	2891
834.682	2868
834.821	2849
834.959	3043
835.097	2895
835.235	3028
835.373	2982
835.511	3039
835.65	2929
835.788	2998
835.926	2773
836.064	2804
836.202	2819
836.34	3097
836.478	3138
836.615	2994
836.753	3119
836.891	3203
837.029	3131
837.167	3104
837.305	3055
837.443	3032
837.58	2975
837.718	3116
837.856	3077
837.993	3024
838.131	3131
838.269	3119
838.406	3108
838.544	3085
838.681	2914
838.819	2887
838.956	2834
839.094	2826
839.231	2929
839.369	2994
839.506	3382
839.643	3207
839.781	2963
839.918	2944
840.055	3051
840.193	3066
840.33	3093
840.467	3119
840.604	3127
840.742	3412
840.879	3043
841.016	3085
841.153	3131
841.29	3306
841.427	3287
841.564	3264
841.701	3294
841.838	3222
841.975	3169
842.112	3180
842.249	3062
842.385	3036
842.522	3253
842.659	3077
842.796	3070
842.933	3104
843.069	3062
843.206	3055
843.343	3176
843.479	3097
843.616	3150
843.752	2910
843.889	2876
844.025	3051
844.162	2883
844.298	3047
844.435	2933
844.571	2948
844.708	3058
844.844	3146
844.98	3192
845.117	3214
845.253	3055
845.389	2982
845.525	3138
845.661	3100
845.798	3024
845.934	3112
846.07	3036
846.206	3207
846.342	3313
846.478	3237
846.614	3074
846.75	3043
846.886	3020
847.022	3226
847.158	3138
847.294	3154
847.429	3226
847.565	3195
847.701	3488
847.837	3039
847.972	2998
848.108	3142
848.244	3150
848.379	3009
848.515	2925
848.65	2857
848.786	2944
848.921	2986
849.057	3104
849.192	3131
849.328	3051
849.463	3085
849.598	3070
849.734	3001
849.869	2982
850.004	2891
850.14	2967
850.275	2906
850.41	2853
850.545	2883
850.68	2910
850.815	2937
850.95	2956
851.085	3199
851.22	3112
851.355	3024
851.49	3001
851.625	2998
851.76	2994
851.895	2944
852.03	2876
852.165	3032
852.299	3093
852.434	3176
852.569	3112
852.703	3157
852.838	3230
852.973	3287
853.107	3336
853.242	3161
853.376	3104
853.511	2963
853.645	3077
853.78	3203
853.914	3100
854.048	3123
854.183	3062
854.317	3165
854.451	3268
854.585	3131
854.72	3062
854.854	3195
854.988	3032
855.122	3097
855.256	2979
855.39	3123
855.524	3192
855.658	3146
855.792	3119
855.926	3173
856.06	3184
856.194	3233
856.327	3119
856.461	3017
856.595	3089
856.729	3070
856.862	3218
856.996	3176
857.13	3195
857.263	3211
857.397	3298
857.53	3123
857.664	3154
857.797	3222
857.931	3249
858.064	3173
858.197	3176
858.331	3127
858.464	3085
858.597	3020
858.731	3131
858.864	3146
858.997	3051
859.13	3127
859.263	3154
859.396	3173
859.529	3112
859.662	3066
859.795	3055
859.928	3154
860.061	3241
860.194	3279
860.327	3165
860.46	3074
860.592	3211
860.725	3272
860.858	3268
860.99	3131
861.123	3062
861.256	3051
861.388	3123
861.521	3918
861.653	3001
861.786	2960
861.918	2971
862.05	3039
862.183	3058
862.315	3123
862.447	3211
862.58	3119
862.712	2941
862.844	2887
862.976	3024
863.108	2998
863.24	3370
863.372	2823
863.504	2944
863.636	2952
863.768	3097
863.9	2967
864.032	2929
864.164	2933
864.296	3039
864.428	3062
864.559	3062
864.691	3066
864.823	3055
864.954	3032
865.086	3028
865.217	2967
865.349	2944
865.48	2956
865.612	3017
865.743	3157
865.875	2941
866.006	2937
866.137	2963
866.269	2941
866.4	2906
866.531	2948
866.662	2895
866.793	2895
866.924	2910
867.055	2967
867.186	2895
867.317	2876
867.448	2842
867.579	2811
867.71	2807
867.841	2864
867.972	2902
868.103	2853
868.233	2872
868.364	2872
868.495	2914
868.625	3119
868.756	3157
868.886	2944
869.017	2979
869.147	3146
869.278	3131
869.408	3055
869.539	3024
869.669	3074
869.799	3032
869.929	3135
870.06	3127
870.19	3287
870.32	3268
870.45	3298
870.58	3363
870.71	3431
870.84	3458
870.97	3279
871.1	3233
871.23	3462
871.36	3439
871.489	3313
871.619	3378
871.749	3355
871.879	3386
872.008	3481
872.138	3363
872.267	3230
872.397	3142
872.526	3104
872.656	3024
872.785	3077
872.915	3203
873.044	3294
873.173	3230
873.303	3226
873.432	3203
873.561	3222
873.69	3154
873.819	3112
873.948	3195
874.077	3085
874.206	3001
874.335	3077
874.464	3207
874.593	3313
874.722	3237
874.851	3397
874.979	3359
875.108	3332
875.237	3188
875.365	3165
875.494	3169
875.623	3226
875.751	3058
875.88	3112
876.008	3173
876.136	3199
876.265	3363
876.393	3488
876.521	3416
876.65	3389
876.778	3336
876.906	3294
877.034	3218
877.162	3226
877.29	3138
877.418	3222
877.546	3256
877.674	3218
877.802	3207
877.93	3226
878.058	3150
878.185	3093
878.313	3207
878.441	3222
878.568	3043
878.696	3116
878.824	3218
878.951	3298
879.079	3431
879.206	3606
879.333	3409
879.461	3321
879.588	3351
879.715	3473
879.842	3591
879.97	3302
880.097	3176
880.224	3112
880.351	3176
880.478	3218
880.605	3203
880.732	3176
880.859	3462
880.986	3298
881.112	3321
881.239	3222
881.366	3093
881.493	3032
881.619	3036
881.746	3077
881.872	3089
881.999	3100
882.125	3116
882.252	3241
882.378	3340
882.505	3450
882.631	3294
882.757	3195
882.883	3218
883.01	3233
883.136	3165
883.262	3108
883.388	3108
883.514	3336
883.64	3397
883.766	3313
883.892	3184
884.018	3260
884.143	3443
884.269	3542
884.395	3268
884.52	3154
884.646	3199
884.772	3165
884.897	3135
885.023	3260
885.148	3389
885.274	3481
885.399	3401
885.524	3321
885.65	3321
885.775	3344
885.9	3348
886.025	3477
886.15	3363
886.275	3363
886.4	3264
886.525	3348
886.65	3332
886.775	3317
886.9	3534
887.025	3732
887.149	3447
887.274	3325
887.399	3211
887.523	3256
887.648	3264
887.773	3230
887.897	3435
888.021	3458
888.146	3348
888.27	3477
888.395	3564
888.519	3450
888.643	3473
888.767	3500
888.891	3336
889.015	3283
889.139	3317
889.263	3313
889.387	3431
889.511	3580
889.635	3515
889.759	3325
889.883	3359
890.006	3409
890.13	3549
890.254	3310
890.377	3378
890.501	3237
890.624	3214
890.748	3359
890.871	3192
890.995	3154
891.118	3081
891.241	3245
891.364	3268
891.488	3367
891.611	3192
891.734	3237
891.857	3283
891.98	3279
892.103	3348
892.226	3325
892.349	3237
892.471	3116
892.594	3283
892.717	3332
892.839	3321
892.962	3355
893.085	3389
893.207	3336
893.33	3184
893.452	3249
893.575	3382
893.697	3268
893.819	3473
893.941	3515
894.064	3477
894.186	3287
894.308	3302
894.43	3450
894.552	3580
894.674	3538
894.796	3283
894.918	3367
895.04	3313
895.161	3466
895.283	3389
895.405	3348
895.526	3386
895.648	3496
895.769	3466
895.891	3481
896.012	3507
896.134	3469
896.255	3447
896.376	3405
896.498	3393
896.619	3439
896.74	3424
896.861	3389
896.982	3682
897.103	3865
897.224	3618
897.345	3511
897.466	3454
897.587	3530
897.708	3637
897.828	3580
897.949	3443
898.07	3378
898.19	3435
898.311	3641
898.431	3466
898.552	3519
898.672	3671
898.792	3595
898.913	3534
899.033	3424
899.153	3321
899.273	3230
899.393	3363
899.513	3359
899.633	3306
899.753	3344
899.873	3336
899.993	3424
900.113	3370
900.232	3412
900.352	3344
900.472	3298
900.591	3233
900.711	3325
900.83	3256
900.95	3416
901.069	3538
901.189	3378
901.308	3173
901.427	3207
901.546	3207
901.665	3321
901.784	3370
901.904	3245
902.023	3165
902.141	3051
902.26	3017
902.379	3142
902.498	3081
902.617	3089
902.735	3249
902.854	3222
902.973	3214
903.091	3108
903.21	3116
903.328	3150
903.446	3157
903.565	3119
903.683	3211
903.801	3218
903.919	3287
904.038	3336
904.156	3192
904.274	3313
904.392	3317
904.51	3348
904.627	3344
904.745	3458
904.863	3519
904.981	3268
905.098	3180
905.216	3256
905.334	3325
905.451	3264
905.569	3363
905.686	3428
905.803	3477
905.921	3332
906.038	3469
906.155	3393
906.272	3329
906.389	3336
906.506	3260
906.623	3294
906.74	3294
906.857	3165
906.974	3260
907.091	3500
907.208	3599
907.324	3530
907.441	3401
907.557	3245
907.674	3272
907.79	3249
907.907	3329
908.023	3389
908.139	3382
908.256	3351
908.372	3420
908.488	3382
908.604	3283
908.72	3260
908.836	3336
908.952	3310
909.068	3378
909.184	3523
909.3	3447
909.415	3542
909.531	3481
909.647	3310
909.762	3298
909.878	3329
909.993	3374
910.108	3325
910.224	3378
910.339	3424
910.454	3367
910.57	3306
910.685	3249
910.8	3656
910.915	3549
911.03	3435
911.145	3287
911.259	3272
911.374	3344
911.489	3272
911.604	3226
911.718	3165
911.833	3192
911.947	3036
912.062	3039
912.176	3211
912.291	3211
912.405	3211
912.519	3435
912.633	3473
912.748	3363
912.862	3306
912.976	3192
913.09	3081
913.204	3173
913.318	3253
913.431	3351
913.545	3348
913.659	3439
913.772	3363
913.886	3237
914	3207
914.113	3397
914.226	3447
914.34	3401
914.453	3226
914.566	3424
914.68	3336
914.793	3317
914.906	3161
915.019	3131
915.132	3089
915.245	3195
915.358	3218
915.47	3260
915.583	3260
915.696	3287
915.809	3405
915.921	3435
916.034	3317
916.146	3268
916.259	3268
916.371	3439
916.483	3370
916.595	3336
916.708	3378
916.82	3382
916.932	3386
917.044	3382
917.156	3370
917.268	3306
917.38	3310
917.491	3340
917.603	3355
917.715	3500
917.826	3515
917.938	3409
918.049	3313
918.161	3439
918.272	3561
918.384	3580
918.495	3504
918.606	3378
918.717	3306
918.828	3351
918.939	3428
919.05	3321
919.161	3363
919.272	3192
919.383	3264
919.494	3526
919.604	3720
919.715	3542
919.826	3443
919.936	3466
920.047	3614
920.157	3572
920.267	3770
920.378	3641
920.488	3606
920.598	3793
920.708	3975
920.818	3846
920.928	3888
921.038	4071
921.148	3987
921.258	3701
921.368	3644
921.477	3614
921.587	3587
921.697	3481
921.806	3629
921.916	3557
922.025	3393
922.134	3389
922.244	3332
922.353	3485
922.462	3317
922.571	3272
922.68	3146
922.789	3116
922.898	3157
923.007	3097
923.116	3176
923.224	3199
923.333	3203
923.442	3081
923.55	3157
923.659	3176
923.767	3260
923.876	3135
923.984	3272
924.092	3093
924.201	3233
924.309	3237
924.417	3283
924.525	3256
924.633	3256
924.741	4078
924.849	3051
924.956	3256
925.064	3135
925.172	3062
925.279	3100
925.387	3199
925.494	3249
925.602	3389
925.709	3359
925.816	3184
925.924	3298
926.031	3389
926.138	3351
926.245	3351
926.352	3306
926.459	3443
926.566	3481
926.673	3329
926.779	3245
926.886	3272
926.993	3161
927.099	3165
927.206	3135
927.312	3097
927.419	3256
927.525	3207
927.631	3279
927.737	3173
927.843	3146
927.95	3047
928.056	3195
928.162	3180
928.267	3233
928.373	3892
928.479	3294
928.585	3020
928.69	3233
928.796	3298
928.901	3222
929.007	3058
929.112	3203
929.218	3165
929.323	3146
929.428	3150
929.533	3348
929.638	3138
929.743	3203
929.848	3287
929.953	3214
930.058	3138
930.163	3013
930.267	3104
930.372	3214
930.477	3047
930.581	3298
930.685	3165
930.79	3074
930.894	3104
930.998	3135
931.103	3294
931.207	2963
931.311	2948
931.415	2941
931.519	2830
931.623	2838
