Data from test_V78500241_769.txt Node
Date: Fri Mar 25 16:20:31 CST 2022
User: usil
Spectrometer: V785-0024
Trigger mode: 0
Integration Time (sec): 4.000000E-1
Scans to average: 1
Nonlinearity correction enabled: false
Boxcar width: 0
Storing dark spectrum: false
XAxis mode: Wavelengths
Number of Pixels in Spectrum: 1024
>>>>>Begin Spectral Data<<<<<
801.071	2956
801.214	2994
801.356	2883
801.499	2933
801.641	2891
801.783	2941
801.926	3058
802.068	3013
802.211	3024
802.353	3020
802.496	2941
802.638	3009
802.78	3028
802.923	3066
803.065	3024
803.208	2883
803.35	2941
803.492	2948
803.635	2937
803.777	2773
803.919	2868
804.061	3237
804.204	2990
804.346	2918
804.488	2838
804.63	2979
804.773	2880
804.915	2918
805.057	3093
805.199	2933
805.341	3039
805.483	3055
805.626	3017
805.768	2952
805.91	3051
806.052	3138
806.194	3074
806.336	3230
806.478	3043
806.62	2956
806.762	2982
806.904	3077
807.046	3188
807.188	3013
807.33	2929
807.472	2994
807.614	2925
807.756	2979
807.898	2902
808.04	2906
808.182	3013
808.324	2948
808.465	2895
808.607	2941
808.749	2807
808.891	2876
809.033	3005
809.174	3020
809.316	2887
809.458	2914
809.6	2826
809.741	2773
809.883	2815
810.025	2868
810.166	2883
810.308	2842
810.45	2845
810.591	2819
810.733	2762
810.875	2864
811.016	2826
811.158	2758
811.299	2834
811.441	2906
811.582	2883
811.724	2845
811.865	2845
812.007	2941
812.148	2895
812.29	2883
812.431	2899
812.573	2963
812.714	2975
812.855	3055
812.997	3066
813.138	3116
813.279	2990
813.421	2963
813.562	2941
813.703	2910
813.845	2899
813.986	2754
814.127	2739
814.268	2834
814.41	2861
814.551	2804
814.692	2868
814.833	2845
814.974	2899
815.115	2963
815.256	2849
815.397	2849
815.539	2872
815.68	2754
815.821	2800
815.962	2952
816.103	2914
816.244	2891
816.385	2880
816.526	2952
816.666	2914
816.807	2758
816.948	2868
817.089	2883
817.23	2868
817.371	2777
817.512	2819
817.653	2838
817.793	2857
817.934	2902
818.075	2975
818.216	2982
818.356	3013
818.497	2842
818.638	2777
818.778	2826
818.919	2785
819.06	2773
819.2	2906
819.341	2834
819.481	2804
819.622	2910
819.762	3074
819.903	3043
820.043	2925
820.184	2918
820.324	2872
820.465	3028
820.605	3028
820.746	2994
820.886	2944
821.026	3116
821.167	3146
821.307	3249
821.447	3291
821.588	3249
821.728	3211
821.868	3211
822.008	3112
822.149	3192
822.289	3275
822.429	3070
822.569	3085
822.709	3169
822.849	3043
822.99	3081
823.13	3188
823.27	3207
823.41	3074
823.55	3169
823.69	3169
823.83	3192
823.97	3089
824.11	3024
824.25	3028
824.389	3043
824.529	3112
824.669	3081
824.809	3188
824.949	3226
825.089	3211
825.228	3157
825.368	2979
825.508	2979
825.648	2986
825.787	2990
825.927	3032
826.067	3013
826.206	2929
826.346	3047
826.485	3055
826.625	3104
826.765	3279
826.904	3245
827.044	2998
827.183	2906
827.323	2883
827.462	3001
827.601	2914
827.741	2952
827.88	2941
828.02	2883
828.159	2944
828.298	3077
828.437	3138
828.577	3032
828.716	3192
828.855	3116
828.994	2941
829.134	2887
829.273	2906
829.412	2906
829.551	2845
829.69	2883
829.829	2990
829.968	3119
830.107	2975
830.246	3055
830.385	2902
830.524	2868
830.663	2792
830.802	2743
830.941	2640
831.08	2636
831.219	2743
831.357	2746
831.496	2937
831.635	2735
831.774	2644
831.913	2739
832.051	2522
832.19	2568
832.329	2659
832.467	2541
832.606	2473
832.744	2590
832.883	2613
833.022	2583
833.16	2651
833.299	2686
833.437	2693
833.576	2693
833.714	2731
833.852	2712
833.991	2773
834.129	2876
834.267	2804
834.406	2773
834.544	2861
834.682	2876
834.821	2880
834.959	3085
835.097	2876
835.235	3062
835.373	2971
835.511	3024
835.65	2994
835.788	2937
835.926	2864
836.064	2815
836.202	2876
836.34	3089
836.478	3150
836.615	3020
836.753	3135
836.891	3203
837.029	3180
837.167	3104
837.305	3036
837.443	3017
837.58	2967
837.718	3146
837.856	3074
837.993	3024
838.131	3112
838.269	3123
838.406	3100
838.544	3097
838.681	2933
838.819	2902
838.956	2788
839.094	2838
839.231	2899
839.369	3013
839.506	3401
839.643	3211
839.781	3028
839.918	3005
840.055	3051
840.193	3058
840.33	3074
840.467	3097
840.604	3142
840.742	3367
840.879	3047
841.016	3039
841.153	3116
841.29	3351
841.427	3302
841.564	3264
841.701	3256
841.838	3184
841.975	3188
842.112	3214
842.249	3108
842.385	3051
842.522	3230
842.659	3112
842.796	3074
842.933	3077
843.069	3047
843.206	3047
843.343	3222
843.479	3135
843.616	3161
843.752	2891
843.889	2857
844.025	3070
844.162	2872
844.298	3047
844.435	2925
844.571	2914
844.708	3039
844.844	3173
844.98	3241
845.117	3180
845.253	3036
845.389	3024
845.525	3112
845.661	3097
845.798	3017
845.934	3074
846.07	3074
846.206	3226
846.342	3329
846.478	3218
846.614	3089
846.75	3036
846.886	2998
847.022	3268
847.158	3131
847.294	3226
847.429	3233
847.565	3180
847.701	3485
847.837	3043
847.972	2975
848.108	3135
848.244	3100
848.379	3009
848.515	2944
848.65	2883
848.786	2963
848.921	3028
849.057	3089
849.192	3127
849.328	3036
849.463	3116
849.598	3032
849.734	3055
849.869	2998
850.004	2933
850.14	2891
850.275	2933
850.41	2830
850.545	2891
850.68	2925
850.815	2944
850.95	2963
851.085	3184
851.22	3089
851.355	3039
851.49	2998
851.625	2971
851.76	2929
851.895	2933
852.03	2918
852.165	3005
852.299	3100
852.434	3195
852.569	3138
852.703	3146
852.838	3253
852.973	3351
853.107	3378
853.242	3192
853.376	3104
853.511	3005
853.645	3024
853.78	3249
853.914	3142
854.048	3074
854.183	3108
854.317	3169
854.451	3294
854.585	3100
854.72	3097
854.854	3256
854.988	3077
855.122	3097
855.256	2960
855.39	3135
855.524	3253
855.658	3188
855.792	3192
855.926	3184
856.06	3275
856.194	3279
856.327	3199
856.461	3081
856.595	3127
856.729	3138
856.862	3272
856.996	3165
857.13	3192
857.263	3272
857.397	3302
857.53	3199
857.664	3169
857.797	3279
857.931	3306
858.064	3180
858.197	3249
858.331	3188
858.464	3195
858.597	3062
858.731	3161
858.864	3135
858.997	3112
859.13	3188
859.263	3203
859.396	3264
859.529	3093
859.662	3104
859.795	3104
859.928	3150
860.061	3306
860.194	3344
860.327	3131
860.46	3089
860.592	3256
860.725	3256
860.858	3283
860.99	3150
861.123	3062
861.256	3089
861.388	3230
861.521	3972
861.653	3058
861.786	3066
861.918	3055
862.05	3127
862.183	3116
862.315	3180
862.447	3203
862.58	3127
862.712	2982
862.844	2922
862.976	3077
863.108	3058
863.24	3469
863.372	2922
863.504	2994
863.636	2975
863.768	3051
863.9	2960
864.032	2937
864.164	2982
864.296	3017
864.428	3142
864.559	3146
864.691	3116
864.823	3112
864.954	3077
865.086	3077
865.217	3020
865.349	2998
865.48	3062
865.612	3043
865.743	3188
865.875	3005
866.006	3005
866.137	3047
866.269	2960
866.4	2979
866.531	2933
866.662	2937
866.793	2922
866.924	2910
867.055	2982
867.186	2975
867.317	2937
867.448	2804
867.579	2895
867.71	2876
867.841	2868
867.972	2975
868.103	2910
868.233	2971
868.364	2891
868.495	2948
868.625	3100
868.756	3195
868.886	2998
869.017	3047
869.147	3192
869.278	3211
869.408	3108
869.539	3112
869.669	3123
869.799	3089
869.929	3161
870.06	3154
870.19	3351
870.32	3344
870.45	3359
870.58	3393
870.71	3450
870.84	3477
870.97	3294
871.1	3275
871.23	3511
871.36	3469
871.489	3363
871.619	3420
871.749	3416
871.879	3435
872.008	3515
872.138	3435
872.267	3310
872.397	3199
872.526	3131
872.656	3047
872.785	3112
872.915	3256
873.044	3370
873.173	3268
873.303	3253
873.432	3272
873.561	3291
873.69	3188
873.819	3169
873.948	3203
874.077	3135
874.206	3104
874.335	3119
874.464	3211
874.593	3382
874.722	3245
874.851	3401
874.979	3374
875.108	3359
875.237	3222
875.365	3230
875.494	3173
875.623	3272
875.751	3089
875.88	3138
876.008	3203
876.136	3230
876.265	3428
876.393	3526
876.521	3431
876.65	3424
876.778	3344
876.906	3283
877.034	3241
877.162	3237
877.29	3222
877.418	3272
877.546	3306
877.674	3268
877.802	3253
877.93	3264
878.058	3195
878.185	3138
878.313	3241
878.441	3218
878.568	3127
878.696	3176
878.824	3302
878.951	3355
879.079	3454
879.206	3648
879.333	3435
879.461	3332
879.588	3405
879.715	3557
879.842	3591
879.97	3412
880.097	3199
880.224	3180
880.351	3199
880.478	3226
880.605	3222
880.732	3222
880.859	3504
880.986	3382
881.112	3344
881.239	3268
881.366	3154
881.493	3062
881.619	3036
881.746	3100
881.872	3116
881.999	3112
882.125	3138
882.252	3256
882.378	3294
882.505	3424
882.631	3321
882.757	3104
882.883	3241
883.01	3287
883.136	3146
883.262	3066
883.388	3142
883.514	3355
883.64	3397
883.766	3329
883.892	3230
884.018	3275
884.143	3435
884.269	3564
884.395	3214
884.52	3165
884.646	3218
884.772	3169
884.897	3123
885.023	3199
885.148	3359
885.274	3447
885.399	3382
885.524	3306
885.65	3302
885.775	3329
885.9	3294
886.025	3481
886.15	3348
886.275	3310
886.4	3264
886.525	3321
886.65	3348
886.775	3279
886.9	3454
887.025	3641
887.149	3397
887.274	3279
887.399	3184
887.523	3260
887.648	3226
887.773	3241
887.897	3389
888.021	3428
888.146	3329
888.27	3443
888.395	3526
888.519	3469
888.643	3473
888.767	3500
888.891	3351
889.015	3306
889.139	3306
889.263	3249
889.387	3435
889.511	3485
889.635	3511
889.759	3298
889.883	3310
890.006	3397
890.13	3492
890.254	3321
890.377	3367
890.501	3249
890.624	3218
890.748	3351
890.871	3188
890.995	3138
891.118	3085
891.241	3214
891.364	3207
891.488	3340
891.611	3230
891.734	3256
891.857	3313
891.98	3287
892.103	3359
892.226	3313
892.349	3233
892.471	3108
892.594	3256
892.717	3317
892.839	3256
892.962	3332
893.085	3389
893.207	3321
893.33	3176
893.452	3211
893.575	3340
893.697	3291
893.819	3507
893.941	3500
894.064	3435
894.186	3275
894.308	3310
894.43	3454
894.552	3568
894.674	3462
894.796	3283
894.918	3310
895.04	3340
895.161	3447
895.283	3428
895.405	3329
895.526	3355
895.648	3530
895.769	3409
895.891	3485
896.012	3492
896.134	3496
896.255	3412
896.376	3443
896.498	3370
896.619	3416
896.74	3397
896.861	3405
896.982	3686
897.103	3876
897.224	3614
897.345	3523
897.466	3492
897.587	3526
897.708	3675
897.828	3572
897.949	3420
898.07	3374
898.19	3416
898.311	3633
898.431	3450
898.552	3504
898.672	3629
898.792	3629
898.913	3538
899.033	3428
899.153	3306
899.273	3253
899.393	3336
899.513	3340
899.633	3336
899.753	3351
899.873	3351
899.993	3389
900.113	3382
900.232	3416
900.352	3370
900.472	3275
900.591	3245
900.711	3336
900.83	3264
900.95	3405
901.069	3515
901.189	3348
901.308	3180
901.427	3123
901.546	3203
901.665	3306
901.784	3363
901.904	3253
902.023	3173
902.141	3009
902.26	2986
902.379	3173
902.498	3089
902.617	3070
902.735	3245
902.854	3230
902.973	3218
903.091	3039
903.21	3097
903.328	3165
903.446	3089
903.565	3127
903.683	3222
903.801	3123
903.919	3253
904.038	3340
904.156	3214
904.274	3287
904.392	3253
904.51	3321
904.627	3340
904.745	3481
904.863	3561
904.981	3275
905.098	3146
905.216	3245
905.334	3294
905.451	3264
905.569	3306
905.686	3439
905.803	3450
905.921	3306
906.038	3447
906.155	3367
906.272	3230
906.389	3355
906.506	3214
906.623	3256
906.74	3275
906.857	3253
906.974	3302
907.091	3466
907.208	3553
907.324	3481
907.441	3420
907.557	3253
907.674	3253
907.79	3222
907.907	3313
908.023	3397
908.139	3389
908.256	3325
908.372	3382
908.488	3378
908.604	3291
908.72	3237
908.836	3340
908.952	3279
909.068	3332
909.184	3462
909.3	3431
909.415	3542
909.531	3458
909.647	3279
909.762	3298
909.878	3272
909.993	3351
910.108	3367
910.224	3378
910.339	3428
910.454	3378
910.57	3291
910.685	3287
910.8	3572
910.915	3496
911.03	3435
911.145	3249
911.259	3279
911.374	3310
911.489	3241
911.604	3241
911.718	3112
911.833	3188
911.947	3013
912.062	3009
912.176	3169
912.291	3165
912.405	3161
912.519	3477
912.633	3481
912.748	3374
912.862	3287
912.976	3161
913.09	3036
913.204	3150
913.318	3241
913.431	3325
913.545	3348
913.659	3416
913.772	3370
913.886	3218
914	3211
914.113	3355
914.226	3466
914.34	3389
914.453	3207
914.566	3344
914.68	3272
914.793	3359
914.906	3131
915.019	3116
915.132	3089
915.245	3176
915.358	3211
915.47	3287
915.583	3272
915.696	3302
915.809	3428
915.921	3431
916.034	3249
916.146	3283
916.259	3222
916.371	3401
916.483	3363
916.595	3268
916.708	3332
916.82	3317
916.932	3279
917.044	3355
917.156	3405
917.268	3283
917.38	3294
917.491	3306
917.603	3332
917.715	3492
917.826	3485
917.938	3393
918.049	3287
918.161	3454
918.272	3595
918.384	3572
918.495	3488
918.606	3363
918.717	3283
918.828	3401
918.939	3420
919.05	3348
919.161	3386
919.272	3173
919.383	3302
919.494	3496
919.604	3686
919.715	3507
919.826	3439
919.936	3496
920.047	3610
920.157	3568
920.267	3785
920.378	3625
920.488	3572
920.598	3800
920.708	3960
920.818	3808
920.928	3846
921.038	4017
921.148	4029
921.258	3724
921.368	3656
921.477	3606
921.587	3534
921.697	3504
921.806	3587
921.916	3557
922.025	3336
922.134	3340
922.244	3325
922.353	3424
922.462	3260
922.571	3233
922.68	3089
922.789	3058
922.898	3142
923.007	3127
923.116	3180
923.224	3176
923.333	3203
923.442	3119
923.55	3058
923.659	3135
923.767	3237
923.876	3161
923.984	3260
924.092	3093
924.201	3211
924.309	3249
924.417	3253
924.525	3230
924.633	3230
924.741	4131
924.849	3020
924.956	3253
925.064	3100
925.172	3047
925.279	3089
925.387	3169
925.494	3195
925.602	3351
925.709	3329
925.816	3199
925.924	3306
926.031	3386
926.138	3313
926.245	3401
926.352	3272
926.459	3412
926.566	3458
926.673	3374
926.779	3279
926.886	3272
926.993	3157
927.099	3157
927.206	3142
927.312	3097
927.419	3237
927.525	3207
927.631	3264
927.737	3138
927.843	3108
927.95	3055
928.056	3119
928.162	3161
928.267	3253
928.373	3740
928.479	3321
928.585	3085
928.69	3237
928.796	3275
928.901	3188
929.007	3074
929.112	3157
929.218	3180
929.323	3138
929.428	3138
929.533	3310
929.638	3116
929.743	3169
929.848	3275
929.953	3245
930.058	3176
930.163	3024
930.267	3070
930.372	3218
930.477	3005
930.581	3332
930.685	3176
930.79	3081
930.894	3146
930.998	3093
931.103	3260
931.207	2971
931.311	2948
931.415	2929
931.519	2769
931.623	2819
