Data from test_V78500241_296.txt Node
Date: Fri Mar 25 16:17:15 CST 2022
User: usil
Spectrometer: V785-0024
Trigger mode: 0
Integration Time (sec): 4.000000E-1
Scans to average: 1
Nonlinearity correction enabled: false
Boxcar width: 0
Storing dark spectrum: false
XAxis mode: Wavelengths
Number of Pixels in Spectrum: 1024
>>>>>Begin Spectral Data<<<<<
801.071	2941
801.214	2963
801.356	2933
801.499	2929
801.641	2918
801.783	2967
801.926	3100
802.068	2998
802.211	3005
802.353	3051
802.496	3009
802.638	3024
802.78	3058
802.923	3077
803.065	3039
803.208	2929
803.35	2925
803.492	2944
803.635	2918
803.777	2807
803.919	2872
804.061	3249
804.204	2990
804.346	2933
804.488	2853
804.63	3009
804.773	2864
804.915	2922
805.057	3089
805.199	2918
805.341	2994
805.483	3058
805.626	3005
805.768	2956
805.91	3093
806.052	3195
806.194	3024
806.336	3237
806.478	3047
806.62	2967
806.762	3013
806.904	3055
807.046	3169
807.188	3009
807.33	2902
807.472	2979
807.614	2895
807.756	3005
807.898	2914
808.04	2952
808.182	2990
808.324	2975
808.465	2906
808.607	2876
808.749	2823
808.891	2849
809.033	2982
809.174	2994
809.316	2883
809.458	2937
809.6	2788
809.741	2792
809.883	2815
810.025	2842
810.166	2857
810.308	2861
810.45	2864
810.591	2807
810.733	2781
810.875	2864
811.016	2773
811.158	2746
811.299	2819
811.441	2925
811.582	2899
811.724	2823
811.865	2838
812.007	2918
812.148	2895
812.29	2830
812.431	2922
812.573	2910
812.714	2998
812.855	3070
812.997	3077
813.138	3127
813.279	3028
813.421	3005
813.562	2990
813.703	2876
813.845	2883
813.986	2758
814.127	2781
814.268	2861
814.41	2853
814.551	2826
814.692	2902
814.833	2834
814.974	2899
815.115	2922
815.256	2853
815.397	2811
815.539	2876
815.68	2796
815.821	2819
815.962	2990
816.103	2933
816.244	2918
816.385	2906
816.526	3001
816.666	2944
816.807	2773
816.948	2937
817.089	2929
817.23	2872
817.371	2796
817.512	2842
817.653	2819
817.793	2864
817.934	2918
818.075	2979
818.216	3020
818.356	3051
818.497	2883
818.638	2788
818.778	2845
818.919	2819
819.06	2754
819.2	2880
819.341	2853
819.481	2796
819.622	2979
819.762	3116
819.903	3077
820.043	2944
820.184	2906
820.324	2933
820.465	3062
820.605	3036
820.746	3005
820.886	2952
821.026	3089
821.167	3173
821.307	3230
821.447	3298
821.588	3230
821.728	3218
821.868	3218
822.008	3066
822.149	3188
822.289	3260
822.429	3135
822.569	3058
822.709	3203
822.849	3043
822.99	3138
823.13	3154
823.27	3214
823.41	3131
823.55	3192
823.69	3169
823.83	3184
823.97	3104
824.11	3028
824.25	2994
824.389	3047
824.529	3116
824.669	3058
824.809	3207
824.949	3253
825.089	3241
825.228	3165
825.368	3020
825.508	2994
825.648	2986
825.787	2998
825.927	3017
826.067	3001
826.206	2998
826.346	3039
826.485	3055
826.625	3100
826.765	3233
826.904	3256
827.044	3013
827.183	2937
827.323	2830
827.462	2979
827.601	2963
827.741	2906
827.88	2960
828.02	2849
828.159	2994
828.298	3024
828.437	3119
828.577	3051
828.716	3256
828.855	3081
828.994	2918
829.134	2941
829.273	2948
829.412	2899
829.551	2876
829.69	2899
829.829	3005
829.968	3116
830.107	3005
830.246	3028
830.385	2948
830.524	2906
830.663	2830
830.802	2766
830.941	2663
831.08	2686
831.219	2758
831.357	2766
831.496	2967
831.635	2716
831.774	2686
831.913	2651
832.051	2533
832.19	2583
832.329	2697
832.467	2530
832.606	2488
832.744	2606
832.883	2590
833.022	2587
833.16	2670
833.299	2735
833.437	2697
833.576	2708
833.714	2762
833.852	2693
833.991	2769
834.129	2845
834.267	2834
834.406	2834
834.544	2864
834.682	2899
834.821	2906
834.959	3070
835.097	2929
835.235	3070
835.373	3028
835.511	3043
835.65	2979
835.788	2952
835.926	2834
836.064	2819
836.202	2861
836.34	3074
836.478	3138
836.615	3017
836.753	3135
836.891	3203
837.029	3154
837.167	3131
837.305	3081
837.443	3058
837.58	2956
837.718	3146
837.856	3074
837.993	3020
838.131	3123
838.269	3112
838.406	3135
838.544	3074
838.681	2952
838.819	2922
838.956	2788
839.094	2834
839.231	2933
839.369	3062
839.506	3367
839.643	3203
839.781	2998
839.918	2994
840.055	3047
840.193	3039
840.33	3051
840.467	3100
840.604	3176
840.742	3401
840.879	3051
841.016	3013
841.153	3119
841.29	3325
841.427	3310
841.564	3298
841.701	3310
841.838	3241
841.975	3154
842.112	3233
842.249	3085
842.385	3039
842.522	3283
842.659	3085
842.796	3058
842.933	3097
843.069	3039
843.206	3058
843.343	3180
843.479	3085
843.616	3146
843.752	2906
843.889	2887
844.025	3077
844.162	2868
844.298	3077
844.435	2937
844.571	2952
844.708	3089
844.844	3222
844.98	3230
845.117	3222
845.253	3070
845.389	3024
845.525	3123
845.661	3089
845.798	3020
845.934	3173
846.07	3039
846.206	3241
846.342	3310
846.478	3268
846.614	3100
846.75	3058
846.886	3036
847.022	3306
847.158	3100
847.294	3237
847.429	3226
847.565	3249
847.701	3477
847.837	3066
847.972	3032
848.108	3173
848.244	3123
848.379	2979
848.515	2967
848.65	2944
848.786	2971
848.921	3039
849.057	3119
849.192	3150
849.328	3108
849.463	3138
849.598	3047
849.734	3017
849.869	2982
850.004	2906
850.14	2975
850.275	2937
850.41	2853
850.545	2864
850.68	2944
850.815	2948
850.95	3009
851.085	3218
851.22	3089
851.355	3039
851.49	2975
851.625	3005
851.76	2998
851.895	2944
852.03	2929
852.165	3032
852.299	3131
852.434	3176
852.569	3173
852.703	3199
852.838	3237
852.973	3340
853.107	3340
853.242	3131
853.376	3077
853.511	2979
853.645	3062
853.78	3237
853.914	3150
854.048	3112
854.183	3085
854.317	3131
854.451	3302
854.585	3104
854.72	3081
854.854	3192
854.988	3081
855.122	3108
855.256	2990
855.39	3100
855.524	3237
855.658	3176
855.792	3142
855.926	3199
856.06	3203
856.194	3245
856.327	3161
856.461	3108
856.595	3089
856.729	3100
856.862	3241
856.996	3169
857.13	3203
857.263	3237
857.397	3321
857.53	3150
857.664	3211
857.797	3275
857.931	3249
858.064	3184
858.197	3222
858.331	3112
858.464	3116
858.597	3005
858.731	3093
858.864	3157
858.997	3108
859.13	3161
859.263	3138
859.396	3233
859.529	3081
859.662	3093
859.795	3039
859.928	3154
860.061	3260
860.194	3325
860.327	3138
860.46	3112
860.592	3260
860.725	3218
860.858	3283
860.99	3112
861.123	3077
861.256	3051
861.388	3165
861.521	3842
861.653	3017
861.786	3005
861.918	3020
862.05	3066
862.183	3066
862.315	3176
862.447	3173
862.58	3104
862.712	2956
862.844	2880
862.976	2998
863.108	2994
863.24	3313
863.372	2876
863.504	2967
863.636	2948
863.768	3047
863.9	2998
864.032	2902
864.164	2937
864.296	3013
864.428	3100
864.559	3089
864.691	3066
864.823	3097
864.954	3058
865.086	3051
865.217	2967
865.349	2967
865.48	2956
865.612	2994
865.743	3142
865.875	2998
866.006	2975
866.137	2967
866.269	2952
866.4	2925
866.531	2933
866.662	2880
866.793	2925
866.924	2910
867.055	3020
867.186	2944
867.317	2849
867.448	2868
867.579	2876
867.71	2842
867.841	2842
867.972	2948
868.103	2929
868.233	2868
868.364	2883
868.495	2868
868.625	3104
868.756	3207
868.886	2971
869.017	3013
869.147	3154
869.278	3138
869.408	3070
869.539	3036
869.669	3093
869.799	3039
869.929	3150
870.06	3100
870.19	3329
870.32	3294
870.45	3336
870.58	3355
870.71	3477
870.84	3428
870.97	3298
871.1	3222
871.23	3469
871.36	3519
871.489	3382
871.619	3370
871.749	3386
871.879	3488
872.008	3488
872.138	3332
872.267	3272
872.397	3154
872.526	3066
872.656	3001
872.785	3085
872.915	3260
873.044	3317
873.173	3233
873.303	3249
873.432	3245
873.561	3226
873.69	3165
873.819	3157
873.948	3184
874.077	3100
874.206	3036
874.335	3108
874.464	3218
874.593	3351
874.722	3249
874.851	3386
874.979	3336
875.108	3325
875.237	3203
875.365	3157
875.494	3173
875.623	3245
875.751	3135
875.88	3146
876.008	3211
876.136	3203
876.265	3348
876.393	3553
876.521	3462
876.65	3393
876.778	3344
876.906	3226
877.034	3195
877.162	3222
877.29	3203
877.418	3264
877.546	3245
877.674	3256
877.802	3222
877.93	3233
878.058	3157
878.185	3085
878.313	3211
878.441	3188
878.568	3036
878.696	3169
878.824	3249
878.951	3340
879.079	3412
879.206	3671
879.333	3424
879.461	3332
879.588	3355
879.715	3500
879.842	3557
879.97	3359
880.097	3165
880.224	3127
880.351	3161
880.478	3211
880.605	3222
880.732	3180
880.859	3519
880.986	3325
881.112	3329
881.239	3218
881.366	3089
881.493	3036
881.619	3028
881.746	3051
881.872	3066
881.999	3127
882.125	3112
882.252	3272
882.378	3302
882.505	3416
882.631	3268
882.757	3169
882.883	3218
883.01	3237
883.136	3180
883.262	3085
883.388	3131
883.514	3367
883.64	3367
883.766	3291
883.892	3214
884.018	3237
884.143	3439
884.269	3515
884.395	3214
884.52	3165
884.646	3199
884.772	3119
884.897	3108
885.023	3214
885.148	3306
885.274	3428
885.399	3340
885.524	3256
885.65	3264
885.775	3298
885.9	3287
886.025	3428
886.15	3351
886.275	3287
886.4	3272
886.525	3294
886.65	3283
886.775	3291
886.9	3515
887.025	3682
887.149	3367
887.274	3245
887.399	3180
887.523	3199
887.648	3222
887.773	3192
887.897	3397
888.021	3382
888.146	3317
888.27	3424
888.395	3553
888.519	3424
888.643	3416
888.767	3466
888.891	3348
889.015	3264
889.139	3302
889.263	3268
889.387	3412
889.511	3500
889.635	3454
889.759	3302
889.883	3313
890.006	3382
890.13	3511
890.254	3291
890.377	3325
890.501	3226
890.624	3195
890.748	3264
890.871	3116
890.995	3104
891.118	3077
891.241	3203
891.364	3249
891.488	3313
891.611	3184
891.734	3241
891.857	3298
891.98	3264
892.103	3351
892.226	3268
892.349	3207
892.471	3112
892.594	3260
892.717	3291
892.839	3302
892.962	3294
893.085	3355
893.207	3310
893.33	3123
893.452	3245
893.575	3359
893.697	3237
893.819	3424
893.941	3485
894.064	3477
894.186	3272
894.308	3256
894.43	3443
894.552	3538
894.674	3481
894.796	3275
894.918	3313
895.04	3348
895.161	3454
895.283	3382
895.405	3279
895.526	3325
895.648	3428
895.769	3439
895.891	3519
896.012	3496
896.134	3450
896.255	3382
896.376	3374
896.498	3378
896.619	3420
896.74	3401
896.861	3416
896.982	3690
897.103	3827
897.224	3606
897.345	3523
897.466	3450
897.587	3469
897.708	3644
897.828	3534
897.949	3454
898.07	3317
898.19	3393
898.311	3610
898.431	3435
898.552	3496
898.672	3599
898.792	3584
898.913	3523
899.033	3447
899.153	3287
899.273	3233
899.393	3306
899.513	3306
899.633	3310
899.753	3287
899.873	3306
899.993	3382
900.113	3332
900.232	3367
900.352	3355
900.472	3245
900.591	3211
900.711	3313
900.83	3222
900.95	3389
901.069	3500
901.189	3355
901.308	3169
901.427	3176
901.546	3207
901.665	3298
901.784	3351
901.904	3207
902.023	3135
902.141	2956
902.26	2998
902.379	3138
902.498	3062
902.617	3039
902.735	3211
902.854	3264
902.973	3184
903.091	3036
903.21	3051
903.328	3123
903.446	3097
903.565	3100
903.683	3165
903.801	3108
903.919	3272
904.038	3291
904.156	3146
904.274	3260
904.392	3253
904.51	3310
904.627	3317
904.745	3431
904.863	3519
904.981	3279
905.098	3150
905.216	3214
905.334	3287
905.451	3275
905.569	3321
905.686	3405
905.803	3443
905.921	3294
906.038	3409
906.155	3386
906.272	3264
906.389	3359
906.506	3249
906.623	3226
906.74	3268
906.857	3184
906.974	3245
907.091	3469
907.208	3580
907.324	3500
907.441	3367
907.557	3218
907.674	3218
907.79	3184
907.907	3306
908.023	3348
908.139	3378
908.256	3325
908.372	3386
908.488	3348
908.604	3249
908.72	3249
908.836	3302
908.952	3260
909.068	3329
909.184	3496
909.3	3397
909.415	3488
909.531	3469
909.647	3241
909.762	3268
909.878	3268
909.993	3317
910.108	3367
910.224	3302
910.339	3428
910.454	3313
910.57	3287
910.685	3249
910.8	3580
910.915	3545
911.03	3424
911.145	3272
911.259	3279
911.374	3336
911.489	3233
911.604	3256
911.718	3085
911.833	3142
911.947	3024
912.062	2971
912.176	3184
912.291	3176
912.405	3233
912.519	3447
912.633	3416
912.748	3386
912.862	3256
912.976	3192
913.09	3062
913.204	3131
913.318	3199
913.431	3340
913.545	3302
913.659	3409
913.772	3382
913.886	3253
914	3199
914.113	3370
914.226	3443
914.34	3393
914.453	3226
914.566	3412
914.68	3317
914.793	3298
914.906	3123
915.019	3138
915.132	3074
915.245	3195
915.358	3180
915.47	3253
915.583	3325
915.696	3291
915.809	3401
915.921	3439
916.034	3283
916.146	3264
916.259	3230
916.371	3348
916.483	3389
916.595	3272
916.708	3329
916.82	3351
916.932	3348
917.044	3351
917.156	3302
917.268	3272
917.38	3332
917.491	3313
917.603	3359
917.715	3431
917.826	3485
917.938	3393
918.049	3241
918.161	3401
918.272	3591
918.384	3599
918.495	3515
918.606	3332
918.717	3302
918.828	3420
918.939	3428
919.05	3283
919.161	3401
919.272	3157
919.383	3298
919.494	3507
919.604	3728
919.715	3477
919.826	3367
919.936	3466
920.047	3530
920.157	3545
920.267	3774
920.378	3618
920.488	3576
920.598	3800
920.708	3941
920.818	3846
920.928	3835
921.038	3994
921.148	4010
921.258	3709
921.368	3614
921.477	3595
921.587	3519
921.697	3481
921.806	3633
921.916	3473
922.025	3367
922.134	3336
922.244	3302
922.353	3397
922.462	3268
922.571	3260
922.68	3157
922.789	3097
922.898	3112
923.007	3146
923.116	3207
923.224	3199
923.333	3230
923.442	3123
923.55	3131
923.659	3154
923.767	3230
923.876	3100
923.984	3226
924.092	3089
924.201	3207
924.309	3211
924.417	3264
924.525	3214
924.633	3249
924.741	4196
924.849	3070
924.956	3298
925.064	3112
925.172	3051
925.279	3116
925.387	3245
925.494	3165
925.602	3340
925.709	3340
925.816	3154
925.924	3279
926.031	3405
926.138	3336
926.245	3355
926.352	3260
926.459	3424
926.566	3477
926.673	3348
926.779	3260
926.886	3272
926.993	3169
927.099	3142
927.206	3112
927.312	3146
927.419	3233
927.525	3245
927.631	3272
927.737	3135
927.843	3131
927.95	2979
928.056	3150
928.162	3199
928.267	3218
928.373	3884
928.479	3348
928.585	3077
928.69	3233
928.796	3279
928.901	3169
929.007	3017
929.112	3214
929.218	3169
929.323	3119
929.428	3123
929.533	3272
929.638	3127
929.743	3154
929.848	3272
929.953	3188
930.058	3150
930.163	2971
930.267	3062
930.372	3199
930.477	3032
930.581	3317
930.685	3188
930.79	3104
930.894	3146
930.998	3100
931.103	3294
931.207	2941
931.311	2941
931.415	2918
931.519	2792
931.623	2834
