Data from test_V78500241_184.txt Node
Date: Fri Mar 25 16:16:28 CST 2022
User: usil
Spectrometer: V785-0024
Trigger mode: 0
Integration Time (sec): 4.000000E-1
Scans to average: 1
Nonlinearity correction enabled: false
Boxcar width: 0
Storing dark spectrum: false
XAxis mode: Wavelengths
Number of Pixels in Spectrum: 1024
>>>>>Begin Spectral Data<<<<<
801.071	2933
801.214	2952
801.356	2845
801.499	2891
801.641	2868
801.783	2933
801.926	3070
802.068	2967
802.211	2986
802.353	3039
802.496	2956
802.638	3039
802.78	3066
802.923	3081
803.065	3017
803.208	2872
803.35	2918
803.492	2952
803.635	2941
803.777	2762
803.919	2864
804.061	3226
804.204	2990
804.346	2906
804.488	2864
804.63	2990
804.773	2868
804.915	2956
805.057	3112
805.199	2960
805.341	2963
805.483	3070
805.626	3047
805.768	2922
805.91	3074
806.052	3142
806.194	3028
806.336	3233
806.478	3020
806.62	2967
806.762	2967
806.904	3055
807.046	3131
807.188	3001
807.33	2929
807.472	3009
807.614	2929
807.756	2998
807.898	2944
808.04	2929
808.182	2994
808.324	2948
808.465	2887
808.607	2883
808.749	2800
808.891	2807
809.033	2975
809.174	2998
809.316	2902
809.458	2895
809.6	2754
809.741	2766
809.883	2777
810.025	2853
810.166	2868
810.308	2853
810.45	2845
810.591	2804
810.733	2815
810.875	2842
811.016	2823
811.158	2746
811.299	2823
811.441	2960
811.582	2918
811.724	2864
811.865	2826
812.007	2937
812.148	2849
812.29	2834
812.431	2902
812.573	2967
812.714	2956
812.855	3047
812.997	3104
813.138	3150
813.279	3013
813.421	2998
813.562	2956
813.703	2872
813.845	2914
813.986	2769
814.127	2739
814.268	2838
814.41	2880
814.551	2826
814.692	2906
814.833	2830
814.974	2948
815.115	2960
815.256	2845
815.397	2781
815.539	2861
815.68	2819
815.821	2785
815.962	2952
816.103	2902
816.244	2891
816.385	2880
816.526	2952
816.666	2910
816.807	2766
816.948	2948
817.089	2895
817.23	2872
817.371	2804
817.512	2815
817.653	2842
817.793	2788
817.934	2918
818.075	2971
818.216	3024
818.356	3028
818.497	2925
818.638	2842
818.778	2838
818.919	2823
819.06	2804
819.2	2902
819.341	2781
819.481	2834
819.622	2918
819.762	3116
819.903	3077
820.043	2960
820.184	2895
820.324	2933
820.465	3032
820.605	3001
820.746	3039
820.886	2960
821.026	3108
821.167	3146
821.307	3294
821.447	3283
821.588	3237
821.728	3211
821.868	3233
822.008	3070
822.149	3188
822.289	3264
822.429	3085
822.569	3070
822.709	3195
822.849	3055
822.99	3089
823.13	3176
823.27	3233
823.41	3093
823.55	3150
823.69	3161
823.83	3188
823.97	3116
824.11	2998
824.25	2990
824.389	3017
824.529	3104
824.669	3070
824.809	3237
824.949	3287
825.089	3279
825.228	3142
825.368	2948
825.508	2979
825.648	2971
825.787	3013
825.927	3043
826.067	2963
826.206	3001
826.346	3039
826.485	3058
826.625	3123
826.765	3298
826.904	3211
827.044	3013
827.183	2944
827.323	2887
827.462	2971
827.601	2956
827.741	2922
827.88	2952
828.02	2899
828.159	2998
828.298	3039
828.437	3150
828.577	3058
828.716	3245
828.855	3138
828.994	2929
829.134	2857
829.273	2944
829.412	2902
829.551	2830
829.69	2895
829.829	2998
829.968	3119
830.107	3005
830.246	3017
830.385	2925
830.524	2880
830.663	2830
830.802	2724
830.941	2674
831.08	2667
831.219	2773
831.357	2788
831.496	2960
831.635	2739
831.774	2613
831.913	2667
832.051	2568
832.19	2575
832.329	2720
832.467	2556
832.606	2473
832.744	2575
832.883	2579
833.022	2629
833.16	2663
833.299	2674
833.437	2716
833.576	2705
833.714	2735
833.852	2731
833.991	2785
834.129	2815
834.267	2826
834.406	2788
834.544	2902
834.682	2899
834.821	2887
834.959	3077
835.097	2914
835.235	3077
835.373	3013
835.511	3024
835.65	2971
835.788	2979
835.926	2819
836.064	2830
836.202	2842
836.34	3081
836.478	3116
836.615	3043
836.753	3154
836.891	3184
837.029	3192
837.167	3093
837.305	3051
837.443	3047
837.58	2979
837.718	3135
837.856	3066
837.993	3028
838.131	3138
838.269	3108
838.406	3097
838.544	3077
838.681	2956
838.819	2914
838.956	2815
839.094	2861
839.231	2971
839.369	3009
839.506	3382
839.643	3237
839.781	3005
839.918	2982
840.055	3085
840.193	3089
840.33	3062
840.467	3138
840.604	3180
840.742	3416
840.879	3047
841.016	3039
841.153	3165
841.29	3332
841.427	3336
841.564	3287
841.701	3313
841.838	3268
841.975	3169
842.112	3230
842.249	3100
842.385	3055
842.522	3264
842.659	3100
842.796	3085
842.933	3135
843.069	3055
843.206	3047
843.343	3188
843.479	3119
843.616	3150
843.752	2929
843.889	2876
844.025	3066
844.162	2876
844.298	3055
844.435	2944
844.571	2899
844.708	3074
844.844	3180
844.98	3275
845.117	3222
845.253	3047
845.389	3043
845.525	3100
845.661	3108
845.798	3005
845.934	3116
846.07	3039
846.206	3203
846.342	3325
846.478	3218
846.614	3146
846.75	3051
846.886	3039
847.022	3249
847.158	3112
847.294	3150
847.429	3237
847.565	3249
847.701	3492
847.837	3039
847.972	3013
848.108	3161
848.244	3116
848.379	3001
848.515	2952
848.65	2944
848.786	2944
848.921	3028
849.057	3119
849.192	3142
849.328	3074
849.463	3119
849.598	3066
849.734	3013
849.869	2982
850.004	2933
850.14	2994
850.275	2944
850.41	2845
850.545	2899
850.68	2963
850.815	2960
850.95	3009
851.085	3188
851.22	3146
851.355	3017
851.49	2990
851.625	3028
851.76	3001
851.895	2922
852.03	2895
852.165	3036
852.299	3127
852.434	3230
852.569	3154
852.703	3173
852.838	3275
852.973	3355
853.107	3374
853.242	3173
853.376	3070
853.511	2975
853.645	3058
853.78	3230
853.914	3119
854.048	3119
854.183	3089
854.317	3127
854.451	3287
854.585	3104
854.72	3081
854.854	3207
854.988	3028
855.122	3093
855.256	2982
855.39	3135
855.524	3222
855.658	3207
855.792	3165
855.926	3176
856.06	3222
856.194	3272
856.327	3150
856.461	3070
856.595	3112
856.729	3089
856.862	3211
856.996	3169
857.13	3195
857.263	3211
857.397	3264
857.53	3081
857.664	3195
857.797	3241
857.931	3272
858.064	3192
858.197	3264
858.331	3112
858.464	3116
858.597	3001
858.731	3150
858.864	3135
858.997	3127
859.13	3157
859.263	3184
859.396	3222
859.529	3074
859.662	3077
859.795	3055
859.928	3127
860.061	3287
860.194	3291
860.327	3119
860.46	3123
860.592	3298
860.725	3279
860.858	3275
860.99	3127
861.123	3047
861.256	3036
861.388	3161
861.521	3762
861.653	3009
861.786	2967
861.918	3009
862.05	3097
862.183	3066
862.315	3127
862.447	3180
862.58	3100
862.712	2960
862.844	2895
862.976	2986
863.108	3005
863.24	3344
863.372	2853
863.504	2998
863.636	2952
863.768	2990
863.9	3028
864.032	2883
864.164	2990
864.296	2986
864.428	3081
864.559	3104
864.691	3081
864.823	3093
864.954	3043
865.086	3093
865.217	3036
865.349	2956
865.48	3009
865.612	3032
865.743	3150
865.875	2994
866.006	2960
866.137	3017
866.269	2956
866.4	2937
866.531	2948
866.662	2887
866.793	2895
866.924	2910
867.055	2998
867.186	2944
867.317	2861
867.448	2872
867.579	2826
867.71	2811
867.841	2849
867.972	2937
868.103	2925
868.233	2868
868.364	2876
868.495	2929
868.625	3089
868.756	3161
868.886	3017
869.017	3024
869.147	3199
869.278	3184
869.408	3058
869.539	3036
869.669	3108
869.799	3024
869.929	3157
870.06	3112
870.19	3325
870.32	3272
870.45	3298
870.58	3393
870.71	3450
870.84	3515
870.97	3332
871.1	3256
871.23	3523
871.36	3466
871.489	3367
871.619	3416
871.749	3416
871.879	3439
872.008	3485
872.138	3359
872.267	3317
872.397	3123
872.526	3104
872.656	3005
872.785	3070
872.915	3203
873.044	3336
873.173	3256
873.303	3245
873.432	3245
873.561	3241
873.69	3150
873.819	3154
873.948	3203
874.077	3074
874.206	3062
874.335	3089
874.464	3195
874.593	3351
874.722	3291
874.851	3397
874.979	3359
875.108	3344
875.237	3184
875.365	3150
875.494	3150
875.623	3241
875.751	3097
875.88	3169
876.008	3176
876.136	3218
876.265	3386
876.393	3553
876.521	3431
876.65	3389
876.778	3306
876.906	3256
877.034	3211
877.162	3222
877.29	3184
877.418	3283
877.546	3256
877.674	3241
877.802	3222
877.93	3218
878.058	3157
878.185	3116
878.313	3176
878.441	3203
878.568	3119
878.696	3173
878.824	3279
878.951	3306
879.079	3443
879.206	3606
879.333	3450
879.461	3325
879.588	3355
879.715	3481
879.842	3564
879.97	3416
880.097	3150
880.224	3165
880.351	3203
880.478	3245
880.605	3237
880.732	3207
880.859	3511
880.986	3306
881.112	3329
881.239	3188
881.366	3058
881.493	3009
881.619	3024
881.746	3077
881.872	3112
881.999	3123
882.125	3173
882.252	3287
882.378	3302
882.505	3458
882.631	3310
882.757	3176
882.883	3264
883.01	3268
883.136	3184
883.262	3108
883.388	3150
883.514	3340
883.64	3405
883.766	3351
883.892	3203
884.018	3226
884.143	3454
884.269	3561
884.395	3192
884.52	3180
884.646	3176
884.772	3123
884.897	3142
885.023	3253
885.148	3382
885.274	3443
885.399	3397
885.524	3325
885.65	3260
885.775	3336
885.9	3245
886.025	3435
886.15	3374
886.275	3291
886.4	3260
886.525	3325
886.65	3275
886.775	3283
886.9	3515
887.025	3610
887.149	3397
887.274	3256
887.399	3218
887.523	3207
887.648	3211
887.773	3230
887.897	3367
888.021	3447
888.146	3313
888.27	3435
888.395	3507
888.519	3431
888.643	3492
888.767	3481
888.891	3336
889.015	3306
889.139	3310
889.263	3260
889.387	3409
889.511	3523
889.635	3409
889.759	3310
889.883	3313
890.006	3405
890.13	3473
890.254	3291
890.377	3283
890.501	3233
890.624	3192
890.748	3367
890.871	3195
890.995	3108
891.118	3116
891.241	3230
891.364	3203
891.488	3378
891.611	3207
891.734	3203
891.857	3298
891.98	3226
892.103	3325
892.226	3294
892.349	3207
892.471	3104
892.594	3291
892.717	3298
892.839	3287
892.962	3310
893.085	3401
893.207	3340
893.33	3169
893.452	3230
893.575	3336
893.697	3275
893.819	3473
893.941	3545
894.064	3450
894.186	3321
894.308	3256
894.43	3443
894.552	3572
894.674	3485
894.796	3283
894.918	3313
895.04	3294
895.161	3481
895.283	3386
895.405	3329
895.526	3367
895.648	3450
895.769	3412
895.891	3507
896.012	3485
896.134	3454
896.255	3443
896.376	3401
896.498	3378
896.619	3424
896.74	3367
896.861	3443
896.982	3675
897.103	3831
897.224	3591
897.345	3542
897.466	3443
897.587	3515
897.708	3660
897.828	3542
897.949	3454
898.07	3306
898.19	3435
898.311	3622
898.431	3450
898.552	3542
898.672	3618
898.792	3572
898.913	3564
899.033	3443
899.153	3283
899.273	3211
899.393	3302
899.513	3325
899.633	3332
899.753	3355
899.873	3351
899.993	3401
900.113	3363
900.232	3389
900.352	3382
900.472	3302
900.591	3241
900.711	3302
900.83	3283
900.95	3420
901.069	3507
901.189	3389
901.308	3241
901.427	3154
901.546	3180
901.665	3302
901.784	3344
901.904	3260
902.023	3176
902.141	3032
902.26	2994
902.379	3135
902.498	3093
902.617	3051
902.735	3245
902.854	3249
902.973	3233
903.091	3036
903.21	3085
903.328	3135
903.446	3142
903.565	3108
903.683	3211
903.801	3161
903.919	3275
904.038	3344
904.156	3165
904.274	3272
904.392	3294
904.51	3287
904.627	3321
904.745	3450
904.863	3511
904.981	3264
905.098	3184
905.216	3275
905.334	3302
905.451	3332
905.569	3336
905.686	3439
905.803	3447
905.921	3298
906.038	3439
906.155	3348
906.272	3275
906.389	3363
906.506	3230
906.623	3272
906.74	3294
906.857	3207
906.974	3321
907.091	3511
907.208	3584
907.324	3526
907.441	3409
907.557	3222
907.674	3226
907.79	3222
907.907	3298
908.023	3386
908.139	3397
908.256	3336
908.372	3382
908.488	3359
908.604	3272
908.72	3230
908.836	3310
908.952	3233
909.068	3344
909.184	3485
909.3	3393
909.415	3549
909.531	3462
909.647	3325
909.762	3279
909.878	3287
909.993	3412
910.108	3382
910.224	3344
910.339	3439
910.454	3348
910.57	3329
910.685	3245
910.8	3641
910.915	3545
911.03	3424
911.145	3260
911.259	3272
911.374	3332
911.489	3249
911.604	3237
911.718	3116
911.833	3173
911.947	3020
912.062	3005
912.176	3161
912.291	3249
912.405	3249
912.519	3477
912.633	3515
912.748	3370
912.862	3294
912.976	3211
913.09	3070
913.204	3157
913.318	3249
913.431	3325
913.545	3355
913.659	3458
913.772	3355
913.886	3218
914	3218
914.113	3344
914.226	3428
914.34	3382
914.453	3195
914.566	3405
914.68	3283
914.793	3329
914.906	3157
915.019	3135
915.132	3097
915.245	3173
915.358	3214
915.47	3226
915.583	3256
915.696	3310
915.809	3393
915.921	3450
916.034	3279
916.146	3306
916.259	3226
916.371	3382
916.483	3359
916.595	3264
916.708	3306
916.82	3294
916.932	3325
917.044	3393
917.156	3367
917.268	3302
917.38	3298
917.491	3298
917.603	3374
917.715	3458
917.826	3469
917.938	3355
918.049	3291
918.161	3454
918.272	3584
918.384	3549
918.495	3469
918.606	3321
918.717	3260
918.828	3374
918.939	3401
919.05	3310
919.161	3431
919.272	3207
919.383	3321
919.494	3511
919.604	3705
919.715	3538
919.826	3405
919.936	3507
920.047	3584
920.157	3568
920.267	3781
920.378	3656
920.488	3580
920.598	3747
920.708	3998
920.818	3850
920.928	3857
921.038	4059
921.148	3991
921.258	3728
921.368	3690
921.477	3644
921.587	3523
921.697	3462
921.806	3682
921.916	3526
922.025	3367
922.134	3393
922.244	3332
922.353	3428
922.462	3329
922.571	3260
922.68	3112
922.789	3085
922.898	3165
923.007	3104
923.116	3218
923.224	3207
923.333	3218
923.442	3154
923.55	3070
923.659	3138
923.767	3233
923.876	3142
923.984	3256
924.092	3127
924.201	3256
924.309	3192
924.417	3245
924.525	3188
924.633	3256
924.741	4173
924.849	3036
924.956	3260
925.064	3089
925.172	3066
925.279	3108
925.387	3195
925.494	3192
925.602	3393
925.709	3348
925.816	3211
925.924	3317
926.031	3443
926.138	3370
926.245	3447
926.352	3260
926.459	3424
926.566	3511
926.673	3344
926.779	3283
926.886	3245
926.993	3180
927.099	3165
927.206	3150
927.312	3123
927.419	3249
927.525	3237
927.631	3245
927.737	3169
927.843	3131
927.95	3020
928.056	3146
928.162	3173
928.267	3268
928.373	3899
928.479	3317
928.585	3093
928.69	3218
928.796	3279
928.901	3176
929.007	3074
929.112	3230
929.218	3199
929.323	3192
929.428	3154
929.533	3332
929.638	3131
929.743	3161
929.848	3253
929.953	3184
930.058	3157
930.163	3036
930.267	3066
930.372	3226
930.477	3066
930.581	3306
930.685	3218
930.79	3051
930.894	3138
930.998	3146
931.103	3313
931.207	2998
931.311	2971
931.415	2914
931.519	2796
931.623	2804
