Data from test_V78500241_1049.txt Node
Date: Fri Mar 25 16:22:28 CST 2022
User: usil
Spectrometer: V785-0024
Trigger mode: 0
Integration Time (sec): 4.000000E-1
Scans to average: 1
Nonlinearity correction enabled: false
Boxcar width: 0
Storing dark spectrum: false
XAxis mode: Wavelengths
Number of Pixels in Spectrum: 1024
>>>>>Begin Spectral Data<<<<<
801.071	2902
801.214	2933
801.356	2838
801.499	2891
801.641	2842
801.783	2906
801.926	3070
802.068	2982
802.211	2986
802.353	3017
802.496	2971
802.638	3001
802.78	3013
802.923	3058
803.065	2994
803.208	2887
803.35	2933
803.492	2922
803.635	2941
803.777	2739
803.919	2845
804.061	3161
804.204	2918
804.346	2899
804.488	2804
804.63	2986
804.773	2857
804.915	2914
805.057	3081
805.199	2918
805.341	2975
805.483	3039
805.626	2994
805.768	2944
805.91	3032
806.052	3062
806.194	3036
806.336	3207
806.478	3017
806.62	2967
806.762	2975
806.904	3036
807.046	3154
807.188	2982
807.33	2899
807.472	2982
807.614	2918
807.756	3005
807.898	2952
808.04	2929
808.182	2975
808.324	2941
808.465	2864
808.607	2876
808.749	2804
808.891	2807
809.033	2979
809.174	2960
809.316	2864
809.458	2883
809.6	2758
809.741	2758
809.883	2781
810.025	2861
810.166	2880
810.308	2830
810.45	2853
810.591	2773
810.733	2750
810.875	2834
811.016	2800
811.158	2750
811.299	2804
811.441	2895
811.582	2891
811.724	2819
811.865	2861
812.007	2891
812.148	2849
812.29	2807
812.431	2914
812.573	2948
812.714	2960
812.855	3043
812.997	3032
813.138	3119
813.279	3009
813.421	2986
813.562	2933
813.703	2883
813.845	2876
813.986	2785
814.127	2724
814.268	2796
814.41	2830
814.551	2796
814.692	2864
814.833	2807
814.974	2887
815.115	2967
815.256	2838
815.397	2834
815.539	2883
815.68	2754
815.821	2750
815.962	2925
816.103	2941
816.244	2902
816.385	2895
816.526	2963
816.666	2925
816.807	2746
816.948	2891
817.089	2933
817.23	2842
817.371	2758
817.512	2788
817.653	2864
817.793	2807
817.934	2895
818.075	2952
818.216	2990
818.356	2994
818.497	2883
818.638	2807
818.778	2815
818.919	2826
819.06	2769
819.2	2899
819.341	2830
819.481	2842
819.622	2910
819.762	3070
819.903	3039
820.043	2925
820.184	2910
820.324	2918
820.465	3020
820.605	3001
820.746	3013
820.886	2922
821.026	3097
821.167	3138
821.307	3218
821.447	3302
821.588	3260
821.728	3245
821.868	3192
822.008	3074
822.149	3184
822.289	3233
822.429	3089
822.569	3100
822.709	3180
822.849	3055
822.99	3055
823.13	3127
823.27	3176
823.41	3119
823.55	3097
823.69	3157
823.83	3161
823.97	3085
824.11	2971
824.25	2975
824.389	3028
824.529	3112
824.669	3043
824.809	3142
824.949	3241
825.089	3245
825.228	3112
825.368	3024
825.508	2963
825.648	2944
825.787	3032
825.927	3005
826.067	2986
826.206	2906
826.346	3062
826.485	3036
826.625	3085
826.765	3253
826.904	3218
827.044	2994
827.183	2929
827.323	2823
827.462	2979
827.601	2922
827.741	2933
827.88	2944
828.02	2853
828.159	2948
828.298	3077
828.437	3089
828.577	3024
828.716	3253
828.855	3055
828.994	2910
829.134	2918
829.273	2956
829.412	2899
829.551	2891
829.69	2883
829.829	2982
829.968	3112
830.107	2986
830.246	3028
830.385	2933
830.524	2842
830.663	2823
830.802	2731
830.941	2659
831.08	2667
831.219	2746
831.357	2766
831.496	2952
831.635	2716
831.774	2610
831.913	2659
832.051	2530
832.19	2564
832.329	2689
832.467	2514
832.606	2488
832.744	2575
832.883	2579
833.022	2568
833.16	2617
833.299	2651
833.437	2689
833.576	2674
833.714	2708
833.852	2716
833.991	2762
834.129	2792
834.267	2845
834.406	2788
834.544	2880
834.682	2864
834.821	2845
834.959	3032
835.097	2891
835.235	3070
835.373	2998
835.511	2994
835.65	2910
835.788	2963
835.926	2826
836.064	2804
836.202	2838
836.34	3089
836.478	3165
836.615	3032
836.753	3108
836.891	3203
837.029	3173
837.167	3074
837.305	3062
837.443	3020
837.58	2941
837.718	3108
837.856	3036
837.993	2994
838.131	3097
838.269	3104
838.406	3089
838.544	3058
838.681	2941
838.819	2891
838.956	2807
839.094	2800
839.231	2880
839.369	3028
839.506	3370
839.643	3184
839.781	3005
839.918	2971
840.055	3039
840.193	3070
840.33	3051
840.467	3074
840.604	3165
840.742	3401
840.879	3043
841.016	3055
841.153	3131
841.29	3329
841.427	3340
841.564	3249
841.701	3294
841.838	3230
841.975	3176
842.112	3180
842.249	3093
842.385	3005
842.522	3237
842.659	3074
842.796	3032
842.933	3116
843.069	3058
843.206	3051
843.343	3180
843.479	3100
843.616	3188
843.752	2918
843.889	2872
844.025	3062
844.162	2864
844.298	3058
844.435	2956
844.571	2895
844.708	3074
844.844	3146
844.98	3233
845.117	3222
845.253	3043
845.389	2982
845.525	3089
845.661	3097
845.798	3047
845.934	3154
846.07	3093
846.206	3199
846.342	3310
846.478	3237
846.614	3081
846.75	3055
846.886	3017
847.022	3230
847.158	3142
847.294	3207
847.429	3245
847.565	3173
847.701	3473
847.837	2994
847.972	2982
848.108	3165
848.244	3150
848.379	3005
848.515	2941
848.65	2914
848.786	2960
848.921	3039
849.057	3051
849.192	3150
849.328	3097
849.463	3119
849.598	3055
849.734	3013
849.869	2994
850.004	2933
850.14	2960
850.275	2883
850.41	2811
850.545	2872
850.68	2948
850.815	2933
850.95	2956
851.085	3157
851.22	3074
851.355	3062
851.49	2971
851.625	3020
851.76	3009
851.895	2910
852.03	2883
852.165	2998
852.299	3131
852.434	3173
852.569	3131
852.703	3184
852.838	3192
852.973	3321
853.107	3306
853.242	3135
853.376	3085
853.511	2956
853.645	3028
853.78	3233
853.914	3146
854.048	3108
854.183	3058
854.317	3116
854.451	3298
854.585	3104
854.72	3070
854.854	3184
854.988	3024
855.122	3058
855.256	2975
855.39	3131
855.524	3253
855.658	3146
855.792	3146
855.926	3195
856.06	3233
856.194	3272
856.327	3146
856.461	3039
856.595	3036
856.729	3100
856.862	3203
856.996	3173
857.13	3211
857.263	3199
857.397	3298
857.53	3119
857.664	3192
857.797	3233
857.931	3218
858.064	3199
858.197	3218
858.331	3146
858.464	3081
858.597	3020
858.731	3127
858.864	3157
858.997	3074
859.13	3150
859.263	3150
859.396	3188
859.529	3089
859.662	3066
859.795	3051
859.928	3135
860.061	3237
860.194	3268
860.327	3123
860.46	3070
860.592	3253
860.725	3237
860.858	3268
860.99	3108
861.123	3085
861.256	3062
861.388	3154
861.521	3816
861.653	3028
861.786	2975
861.918	2982
862.05	3062
862.183	3123
862.315	3165
862.447	3199
862.58	3100
862.712	2944
862.844	2910
862.976	3009
863.108	2998
863.24	3401
863.372	2891
863.504	2960
863.636	2937
863.768	3017
863.9	2979
864.032	2899
864.164	2960
864.296	2986
864.428	3070
864.559	3081
864.691	3032
864.823	3047
864.954	3005
865.086	3005
865.217	2948
865.349	2933
865.48	2998
865.612	2998
865.743	3150
865.875	2975
866.006	2918
866.137	2975
866.269	2914
866.4	2933
866.531	2899
866.662	2876
866.793	2895
866.924	2883
867.055	2956
867.186	2925
867.317	2887
867.448	2849
867.579	2845
867.71	2815
867.841	2788
867.972	2891
868.103	2910
868.233	2891
868.364	2849
868.495	2887
868.625	3047
868.756	3146
868.886	2975
869.017	2982
869.147	3169
869.278	3146
869.408	3032
869.539	3036
869.669	3097
869.799	2994
869.929	3108
870.06	3089
870.19	3306
870.32	3279
870.45	3306
870.58	3386
870.71	3431
870.84	3466
870.97	3279
871.1	3268
871.23	3439
871.36	3435
871.489	3348
871.619	3378
871.749	3412
871.879	3466
872.008	3469
872.138	3359
872.267	3241
872.397	3131
872.526	3077
872.656	3032
872.785	3085
872.915	3165
873.044	3321
873.173	3192
873.303	3237
873.432	3222
873.561	3211
873.69	3184
873.819	3161
873.948	3203
874.077	3135
874.206	3013
874.335	3093
874.464	3203
874.593	3351
874.722	3233
874.851	3405
874.979	3340
875.108	3283
875.237	3195
875.365	3176
875.494	3154
875.623	3249
875.751	3028
875.88	3085
876.008	3173
876.136	3237
876.265	3359
876.393	3477
876.521	3454
876.65	3370
876.778	3332
876.906	3245
877.034	3192
877.162	3222
877.29	3138
877.418	3264
877.546	3230
877.674	3249
877.802	3260
877.93	3230
878.058	3146
878.185	3058
878.313	3203
878.441	3180
878.568	3039
878.696	3135
878.824	3237
878.951	3317
879.079	3454
879.206	3622
879.333	3466
879.461	3325
879.588	3374
879.715	3462
879.842	3568
879.97	3386
880.097	3173
880.224	3119
880.351	3188
880.478	3207
880.605	3195
880.732	3161
880.859	3485
880.986	3260
881.112	3329
881.239	3199
881.366	3070
881.493	3001
881.619	2998
881.746	3112
881.872	3077
881.999	3123
882.125	3104
882.252	3249
882.378	3279
882.505	3435
882.631	3199
882.757	3135
882.883	3211
883.01	3207
883.136	3138
883.262	3081
883.388	3085
883.514	3272
883.64	3363
883.766	3283
883.892	3184
884.018	3260
884.143	3386
884.269	3496
884.395	3195
884.52	3142
884.646	3188
884.772	3077
884.897	3127
885.023	3230
885.148	3325
885.274	3393
885.399	3348
885.524	3268
885.65	3256
885.775	3340
885.9	3253
886.025	3389
886.15	3351
886.275	3310
886.4	3214
886.525	3310
886.65	3268
886.775	3268
886.9	3500
887.025	3614
887.149	3405
887.274	3275
887.399	3150
887.523	3173
887.648	3184
887.773	3203
887.897	3382
888.021	3401
888.146	3279
888.27	3435
888.395	3530
888.519	3370
888.643	3424
888.767	3454
888.891	3264
889.015	3233
889.139	3268
889.263	3241
889.387	3382
889.511	3542
889.635	3435
889.759	3294
889.883	3260
890.006	3370
890.13	3496
890.254	3291
890.377	3344
890.501	3192
890.624	3173
890.748	3294
890.871	3211
890.995	3131
891.118	3058
891.241	3211
891.364	3203
891.488	3348
891.611	3199
891.734	3226
891.857	3268
891.98	3249
892.103	3336
892.226	3272
892.349	3211
892.471	3097
892.594	3207
892.717	3268
892.839	3226
892.962	3329
893.085	3332
893.207	3291
893.33	3135
893.452	3207
893.575	3367
893.697	3245
893.819	3481
893.941	3481
894.064	3462
894.186	3256
894.308	3275
894.43	3397
894.552	3530
894.674	3420
894.796	3298
894.918	3283
895.04	3264
895.161	3412
895.283	3424
895.405	3336
895.526	3325
895.648	3420
895.769	3439
895.891	3454
896.012	3473
896.134	3477
896.255	3374
896.376	3367
896.498	3344
896.619	3439
896.74	3370
896.861	3450
896.982	3698
897.103	3831
897.224	3587
897.345	3515
897.466	3431
897.587	3500
897.708	3610
897.828	3564
897.949	3473
898.07	3321
898.19	3412
898.311	3595
898.431	3458
898.552	3504
898.672	3564
898.792	3584
898.913	3526
899.033	3405
899.153	3294
899.273	3222
899.393	3298
899.513	3272
899.633	3317
899.753	3306
899.873	3291
899.993	3401
900.113	3344
900.232	3378
900.352	3344
900.472	3325
900.591	3184
900.711	3268
900.83	3245
900.95	3405
901.069	3496
901.189	3386
901.308	3192
901.427	3116
901.546	3192
901.665	3260
901.784	3344
901.904	3184
902.023	3157
902.141	3005
902.26	2990
902.379	3123
902.498	3062
902.617	3032
902.735	3199
902.854	3203
902.973	3180
903.091	3066
903.21	3058
903.328	3097
903.446	3119
903.565	3051
903.683	3233
903.801	3150
903.919	3256
904.038	3302
904.156	3154
904.274	3253
904.392	3268
904.51	3287
904.627	3306
904.745	3428
904.863	3485
904.981	3268
905.098	3165
905.216	3211
905.334	3332
905.451	3332
905.569	3313
905.686	3435
905.803	3450
905.921	3283
906.038	3420
906.155	3348
906.272	3279
906.389	3336
906.506	3230
906.623	3275
906.74	3291
906.857	3173
906.974	3249
907.091	3420
907.208	3549
907.324	3481
907.441	3405
907.557	3214
907.674	3199
907.79	3180
907.907	3272
908.023	3382
908.139	3344
908.256	3332
908.372	3374
908.488	3397
908.604	3249
908.72	3237
908.836	3264
908.952	3279
909.068	3329
909.184	3462
909.3	3363
909.415	3500
909.531	3462
909.647	3283
909.762	3310
909.878	3222
909.993	3367
910.108	3325
910.224	3313
910.339	3447
910.454	3317
910.57	3268
910.685	3275
910.8	3599
910.915	3530
911.03	3435
911.145	3279
911.259	3283
911.374	3306
911.489	3249
911.604	3207
911.718	3116
911.833	3116
911.947	3013
912.062	2994
912.176	3146
912.291	3161
912.405	3199
912.519	3435
912.633	3458
912.748	3329
912.862	3279
912.976	3165
913.09	3047
913.204	3127
913.318	3241
913.431	3306
913.545	3317
913.659	3416
913.772	3336
913.886	3203
914	3214
914.113	3321
914.226	3450
914.34	3393
914.453	3241
914.566	3454
914.68	3253
914.793	3294
914.906	3131
915.019	3123
915.132	3017
915.245	3165
915.358	3233
915.47	3230
915.583	3272
915.696	3325
915.809	3397
915.921	3401
916.034	3218
916.146	3241
916.259	3245
916.371	3378
916.483	3363
916.595	3260
916.708	3321
916.82	3344
916.932	3310
917.044	3325
917.156	3325
917.268	3268
917.38	3321
917.491	3313
917.603	3359
917.715	3462
917.826	3481
917.938	3340
918.049	3291
918.161	3458
918.272	3584
918.384	3530
918.495	3454
918.606	3321
918.717	3298
918.828	3370
918.939	3393
919.05	3317
919.161	3351
919.272	3176
919.383	3268
919.494	3496
919.604	3656
919.715	3477
919.826	3412
919.936	3428
920.047	3564
920.157	3534
920.267	3774
920.378	3606
920.488	3587
920.598	3785
920.708	3968
920.818	3800
920.928	3850
921.038	4017
921.148	3945
921.258	3660
921.368	3660
921.477	3580
921.587	3549
921.697	3469
921.806	3606
921.916	3519
922.025	3321
922.134	3359
922.244	3336
922.353	3431
922.462	3298
922.571	3233
922.68	3085
922.789	3097
922.898	3154
923.007	3081
923.116	3211
923.224	3138
923.333	3184
923.442	3100
923.55	3077
923.659	3154
923.767	3211
923.876	3146
923.984	3260
924.092	3081
924.201	3169
924.309	3226
924.417	3226
924.525	3188
924.633	3241
924.741	4188
924.849	3062
924.956	3287
925.064	3123
925.172	2998
925.279	3085
925.387	3207
925.494	3203
925.602	3348
925.709	3340
925.816	3157
925.924	3264
926.031	3367
926.138	3287
926.245	3382
926.352	3275
926.459	3412
926.566	3496
926.673	3310
926.779	3241
926.886	3241
926.993	3161
927.099	3131
927.206	3112
927.312	3127
927.419	3230
927.525	3203
927.631	3272
927.737	3146
927.843	3108
927.95	3001
928.056	3150
928.162	3207
928.267	3237
928.373	3884
928.479	3325
928.585	3070
928.69	3222
928.796	3287
928.901	3169
929.007	3020
929.112	3207
929.218	3188
929.323	3146
929.428	3135
929.533	3291
929.638	3123
929.743	3195
929.848	3294
929.953	3176
930.058	3146
930.163	2986
930.267	3062
930.372	3180
930.477	3039
930.581	3268
930.685	3184
930.79	3066
930.894	3108
930.998	3123
931.103	3294
931.207	2975
931.311	2929
931.415	2914
931.519	2754
931.623	2823
