Data from test_V78500241_1582.txt Node
Date: Fri Mar 25 16:26:09 CST 2022
User: usil
Spectrometer: V785-0024
Trigger mode: 0
Integration Time (sec): 4.000000E-1
Scans to average: 1
Nonlinearity correction enabled: false
Boxcar width: 0
Storing dark spectrum: false
XAxis mode: Wavelengths
Number of Pixels in Spectrum: 1024
>>>>>Begin Spectral Data<<<<<
801.071	2883
801.214	2948
801.356	2845
801.499	2868
801.641	2845
801.783	2899
801.926	3013
802.068	2963
802.211	3009
802.353	3036
802.496	2967
802.638	2994
802.78	2994
802.923	3104
803.065	3005
803.208	2906
803.35	2956
803.492	2922
803.635	2929
803.777	2754
803.919	2823
804.061	3173
804.204	2952
804.346	2906
804.488	2849
804.63	2941
804.773	2868
804.915	2937
805.057	3085
805.199	2902
805.341	2975
805.483	3017
805.626	2971
805.768	2952
805.91	3097
806.052	3074
806.194	3017
806.336	3249
806.478	3020
806.62	2967
806.762	2994
806.904	3058
807.046	3135
807.188	2979
807.33	2910
807.472	2967
807.614	2861
807.756	2998
807.898	2902
808.04	2880
808.182	2971
808.324	2979
808.465	2876
808.607	2880
808.749	2804
808.891	2823
809.033	2994
809.174	2891
809.316	2876
809.458	2891
809.6	2796
809.741	2773
809.883	2788
810.025	2864
810.166	2842
810.308	2819
810.45	2845
810.591	2773
810.733	2773
810.875	2845
811.016	2762
811.158	2743
811.299	2807
811.441	2906
811.582	2864
811.724	2838
811.865	2796
812.007	2899
812.148	2842
812.29	2857
812.431	2887
812.573	2929
812.714	2929
812.855	2994
812.997	3036
813.138	3138
813.279	3024
813.421	2979
813.562	2990
813.703	2861
813.845	2876
813.986	2750
814.127	2731
814.268	2819
814.41	2838
814.551	2811
814.692	2849
814.833	2838
814.974	2853
815.115	2960
815.256	2842
815.397	2804
815.539	2872
815.68	2769
815.821	2777
815.962	2933
816.103	2941
816.244	2864
816.385	2857
816.526	2986
816.666	2929
816.807	2708
816.948	2868
817.089	2891
817.23	2868
817.371	2766
817.512	2819
817.653	2819
817.793	2807
817.934	2895
818.075	2956
818.216	2994
818.356	3005
818.497	2842
818.638	2746
818.778	2838
818.919	2766
819.06	2758
819.2	2880
819.341	2807
819.481	2766
819.622	2925
819.762	3108
819.903	3024
820.043	2944
820.184	2891
820.324	2925
820.465	3032
820.605	2971
820.746	2990
820.886	2941
821.026	3100
821.167	3184
821.307	3264
821.447	3310
821.588	3203
821.728	3207
821.868	3207
822.008	3058
822.149	3195
822.289	3207
822.429	3062
822.569	3093
822.709	3207
822.849	3070
822.99	3055
823.13	3135
823.27	3207
823.41	3085
823.55	3161
823.69	3165
823.83	3199
823.97	3070
824.11	2990
824.25	2990
824.389	3097
824.529	3100
824.669	3070
824.809	3207
824.949	3203
825.089	3176
825.228	3123
825.368	2994
825.508	2960
825.648	2941
825.787	3020
825.927	3001
826.067	2979
826.206	2944
826.346	3028
826.485	3039
826.625	3127
826.765	3214
826.904	3207
827.044	2994
827.183	2925
827.323	2834
827.462	2975
827.601	2883
827.741	2922
827.88	2933
828.02	2868
828.159	2963
828.298	3047
828.437	3093
828.577	3036
828.716	3233
828.855	3085
828.994	2922
829.134	2872
829.273	2906
829.412	2849
829.551	2826
829.69	2880
829.829	3017
829.968	3097
830.107	2986
830.246	3024
830.385	2902
830.524	2876
830.663	2838
830.802	2724
830.941	2651
831.08	2648
831.219	2743
831.357	2758
831.496	2944
831.635	2724
831.774	2651
831.913	2648
832.051	2549
832.19	2552
832.329	2670
832.467	2545
832.606	2476
832.744	2602
832.883	2590
833.022	2610
833.16	2640
833.299	2674
833.437	2670
833.576	2682
833.714	2705
833.852	2754
833.991	2739
834.129	2830
834.267	2826
834.406	2773
834.544	2853
834.682	2857
834.821	2876
834.959	3017
835.097	2842
835.235	3070
835.373	3009
835.511	3062
835.65	2952
835.788	2941
835.926	2800
836.064	2766
836.202	2830
836.34	3093
836.478	3154
836.615	3047
836.753	3116
836.891	3157
837.029	3116
837.167	3112
837.305	3017
837.443	3028
837.58	2925
837.718	3138
837.856	3070
837.993	2982
838.131	3070
838.269	3097
838.406	3085
838.544	3089
838.681	2929
838.819	2933
838.956	2804
839.094	2830
839.231	2883
839.369	3036
839.506	3382
839.643	3173
839.781	3005
839.918	2971
840.055	3039
840.193	3051
840.33	3024
840.467	3058
840.604	3123
840.742	3374
840.879	3039
841.016	3036
841.153	3097
841.29	3336
841.427	3329
841.564	3249
841.701	3310
841.838	3188
841.975	3169
842.112	3226
842.249	3093
842.385	3039
842.522	3233
842.659	3081
842.796	3077
842.933	3104
843.069	2994
843.206	3013
843.343	3157
843.479	3085
843.616	3123
843.752	2925
843.889	2899
844.025	3051
844.162	2872
844.298	3097
844.435	2929
844.571	2895
844.708	3089
844.844	3150
844.98	3222
845.117	3165
845.253	3032
845.389	3055
845.525	3070
845.661	3112
845.798	3009
845.934	3097
846.07	3074
846.206	3203
846.342	3310
846.478	3207
846.614	3055
846.75	3043
846.886	3013
847.022	3203
847.158	3112
847.294	3176
847.429	3222
847.565	3199
847.701	3416
847.837	3036
847.972	2986
848.108	3142
848.244	3138
848.379	2994
848.515	2933
848.65	2933
848.786	2937
848.921	3032
849.057	3070
849.192	3150
849.328	3036
849.463	3138
849.598	3047
849.734	3055
849.869	2994
850.004	2918
850.14	2967
850.275	2952
850.41	2876
850.545	2876
850.68	2918
850.815	2963
850.95	2952
851.085	3165
851.22	3116
851.355	3032
851.49	2979
851.625	2956
851.76	3036
851.895	2899
852.03	2891
852.165	3047
852.299	3100
852.434	3165
852.569	3150
852.703	3135
852.838	3241
852.973	3302
853.107	3313
853.242	3138
853.376	3085
853.511	2979
853.645	3009
853.78	3207
853.914	3100
854.048	3089
854.183	3062
854.317	3100
854.451	3283
854.585	3081
854.72	3070
854.854	3169
854.988	3097
855.122	3066
855.256	2963
855.39	3127
855.524	3241
855.658	3180
855.792	3142
855.926	3161
856.06	3241
856.194	3287
856.327	3119
856.461	3047
856.595	3085
856.729	3085
856.862	3218
856.996	3173
857.13	3207
857.263	3207
857.397	3272
857.53	3100
857.664	3233
857.797	3192
857.931	3256
858.064	3169
858.197	3218
858.331	3146
858.464	3081
858.597	2937
858.731	3093
858.864	3135
858.997	3070
859.13	3150
859.263	3184
859.396	3218
859.529	3085
859.662	3108
859.795	3039
859.928	3093
860.061	3291
860.194	3260
860.327	3127
860.46	3085
860.592	3268
860.725	3233
860.858	3256
860.99	3142
861.123	3017
861.256	3074
861.388	3146
861.521	3808
861.653	2982
861.786	3009
861.918	3009
862.05	3066
862.183	3119
862.315	3135
862.447	3195
862.58	3070
862.712	2941
862.844	2838
862.976	2994
863.108	3009
863.24	3279
863.372	2849
863.504	2971
863.636	2960
863.768	3009
863.9	2963
864.032	2929
864.164	2967
864.296	3036
864.428	3047
864.559	3093
864.691	3058
864.823	3055
864.954	3020
865.086	3039
865.217	2986
865.349	2922
865.48	2967
865.612	3024
865.743	3157
865.875	2986
866.006	2906
866.137	2967
866.269	2910
866.4	2922
866.531	2895
866.662	2861
866.793	2887
866.924	2880
867.055	2937
867.186	2868
867.317	2849
867.448	2826
867.579	2857
867.71	2849
867.841	2792
867.972	2891
868.103	2887
868.233	2895
868.364	2861
868.495	2910
868.625	3074
868.756	3184
868.886	2952
869.017	3032
869.147	3176
869.278	3154
869.408	3051
869.539	3020
869.669	3097
869.799	3005
869.929	3150
870.06	3093
870.19	3344
870.32	3283
870.45	3268
870.58	3367
870.71	3393
870.84	3469
870.97	3275
871.1	3226
871.23	3473
871.36	3462
871.489	3329
871.619	3370
871.749	3420
871.879	3416
872.008	3450
872.138	3336
872.267	3249
872.397	3154
872.526	3104
872.656	3039
872.785	3100
872.915	3245
873.044	3313
873.173	3230
873.303	3237
873.432	3237
873.561	3230
873.69	3157
873.819	3157
873.948	3203
874.077	3104
874.206	3024
874.335	3047
874.464	3176
874.593	3336
874.722	3249
874.851	3336
874.979	3367
875.108	3310
875.237	3203
875.365	3131
875.494	3165
875.623	3241
875.751	3089
875.88	3123
876.008	3195
876.136	3226
876.265	3317
876.393	3504
876.521	3428
876.65	3412
876.778	3363
876.906	3226
877.034	3157
877.162	3245
877.29	3146
877.418	3253
877.546	3230
877.674	3268
877.802	3233
877.93	3230
878.058	3169
878.185	3093
878.313	3184
878.441	3173
878.568	3032
878.696	3138
878.824	3260
878.951	3283
879.079	3454
879.206	3637
879.333	3389
879.461	3321
879.588	3351
879.715	3496
879.842	3580
879.97	3378
880.097	3169
880.224	3142
880.351	3161
880.478	3207
880.605	3218
880.732	3188
880.859	3439
880.986	3283
881.112	3310
881.239	3195
881.366	3123
881.493	3062
881.619	3001
881.746	3058
881.872	3070
881.999	3089
882.125	3127
882.252	3260
882.378	3279
882.505	3416
882.631	3264
882.757	3188
882.883	3230
883.01	3203
883.136	3157
883.262	3085
883.388	3081
883.514	3313
883.64	3378
883.766	3298
883.892	3195
884.018	3249
884.143	3428
884.269	3542
884.395	3211
884.52	3157
884.646	3199
884.772	3119
884.897	3074
885.023	3173
885.148	3344
885.274	3401
885.399	3359
885.524	3294
885.65	3264
885.775	3321
885.9	3260
886.025	3428
886.15	3378
886.275	3325
886.4	3241
886.525	3268
886.65	3283
886.775	3283
886.9	3466
887.025	3599
887.149	3393
887.274	3211
887.399	3199
887.523	3199
887.648	3199
887.773	3188
887.897	3336
888.021	3367
888.146	3283
888.27	3447
888.395	3553
888.519	3397
888.643	3447
888.767	3431
888.891	3310
889.015	3241
889.139	3283
889.263	3222
889.387	3424
889.511	3488
889.635	3454
889.759	3283
889.883	3317
890.006	3374
890.13	3488
890.254	3275
890.377	3367
890.501	3184
890.624	3169
890.748	3256
890.871	3146
890.995	3108
891.118	3055
891.241	3207
891.364	3203
891.488	3294
891.611	3165
891.734	3214
891.857	3291
891.98	3230
892.103	3329
892.226	3253
892.349	3195
892.471	3066
892.594	3237
892.717	3256
892.839	3211
892.962	3313
893.085	3336
893.207	3279
893.33	3165
893.452	3188
893.575	3294
893.697	3256
893.819	3454
893.941	3477
894.064	3424
894.186	3283
894.308	3302
894.43	3420
894.552	3526
894.674	3492
894.796	3260
894.918	3275
895.04	3272
895.161	3431
895.283	3405
895.405	3268
895.526	3363
895.648	3420
895.769	3435
895.891	3450
896.012	3450
896.134	3485
896.255	3416
896.376	3409
896.498	3351
896.619	3405
896.74	3355
896.861	3386
896.982	3682
897.103	3793
897.224	3610
897.345	3488
897.466	3447
897.587	3507
897.708	3576
897.828	3557
897.949	3450
898.07	3310
898.19	3462
898.311	3603
898.431	3469
898.552	3466
898.672	3576
898.792	3538
898.913	3511
899.033	3409
899.153	3329
899.273	3268
899.393	3241
899.513	3272
899.633	3291
899.753	3283
899.873	3313
899.993	3397
900.113	3332
900.232	3386
900.352	3348
900.472	3287
900.591	3192
900.711	3287
900.83	3203
900.95	3416
901.069	3462
901.189	3351
901.308	3142
901.427	3116
901.546	3154
901.665	3291
901.784	3355
901.904	3230
902.023	3161
902.141	3043
902.26	2994
902.379	3180
902.498	3051
902.617	3024
902.735	3165
902.854	3222
902.973	3150
903.091	3066
903.21	3058
903.328	3165
903.446	3142
903.565	3093
903.683	3211
903.801	3104
903.919	3237
904.038	3264
904.156	3165
904.274	3275
904.392	3253
904.51	3268
904.627	3317
904.745	3431
904.863	3488
904.981	3253
905.098	3188
905.216	3195
905.334	3306
905.451	3298
905.569	3291
905.686	3397
905.803	3409
905.921	3264
906.038	3409
906.155	3310
906.272	3275
906.389	3317
906.506	3226
906.623	3302
906.74	3264
906.857	3207
906.974	3256
907.091	3485
907.208	3545
907.324	3466
907.441	3340
907.557	3214
907.674	3218
907.79	3180
907.907	3272
908.023	3397
908.139	3363
908.256	3336
908.372	3332
908.488	3359
908.604	3211
908.72	3222
908.836	3264
908.952	3268
909.068	3325
909.184	3492
909.3	3367
909.415	3504
909.531	3488
909.647	3264
909.762	3287
909.878	3211
909.993	3340
910.108	3340
910.224	3310
910.339	3389
910.454	3344
910.57	3294
910.685	3199
910.8	3618
910.915	3576
911.03	3420
911.145	3233
911.259	3268
911.374	3313
911.489	3260
911.604	3226
911.718	3108
911.833	3154
911.947	3047
912.062	2975
912.176	3123
912.291	3192
912.405	3207
912.519	3431
912.633	3458
912.748	3302
912.862	3249
912.976	3180
913.09	3058
913.204	3150
913.318	3192
913.431	3329
913.545	3298
913.659	3401
913.772	3348
913.886	3260
914	3165
914.113	3363
914.226	3405
914.34	3348
914.453	3180
914.566	3424
914.68	3283
914.793	3287
914.906	3131
915.019	3100
915.132	3097
915.245	3116
915.358	3169
915.47	3241
915.583	3264
915.696	3302
915.809	3409
915.921	3485
916.034	3241
916.146	3256
916.259	3222
916.371	3367
916.483	3321
916.595	3291
916.708	3329
916.82	3302
916.932	3348
917.044	3332
917.156	3329
917.268	3226
917.38	3298
917.491	3310
917.603	3306
917.715	3435
917.826	3435
917.938	3378
918.049	3275
918.161	3420
918.272	3557
918.384	3526
918.495	3424
918.606	3332
918.717	3279
918.828	3355
918.939	3401
919.05	3287
919.161	3355
919.272	3161
919.383	3226
919.494	3447
919.604	3648
919.715	3458
919.826	3401
919.936	3454
920.047	3580
920.157	3542
920.267	3774
920.378	3610
920.488	3534
920.598	3728
920.708	3945
920.818	3808
920.928	3816
921.038	4025
921.148	3949
921.258	3709
921.368	3633
921.477	3587
921.587	3515
921.697	3443
921.806	3641
921.916	3500
922.025	3363
922.134	3325
922.244	3294
922.353	3393
922.462	3287
922.571	3253
922.68	3085
922.789	3089
922.898	3127
923.007	3070
923.116	3184
923.224	3154
923.333	3188
923.442	3135
923.55	3104
923.659	3146
923.767	3207
923.876	3123
923.984	3264
924.092	3138
924.201	3226
924.309	3237
924.417	3264
924.525	3192
924.633	3256
924.741	4207
924.849	3081
924.956	3302
925.064	3112
925.172	3058
925.279	3104
925.387	3226
925.494	3214
925.602	3329
925.709	3386
925.816	3195
925.924	3321
926.031	3409
926.138	3420
926.245	3420
926.352	3325
926.459	3447
926.566	3469
926.673	3386
926.779	3317
926.886	3279
926.993	3207
927.099	3180
927.206	3142
927.312	3176
927.419	3283
927.525	3249
927.631	3302
927.737	3199
927.843	3211
927.95	3074
928.056	3207
928.162	3203
928.267	3291
928.373	3888
928.479	3367
928.585	3085
928.69	3237
928.796	3302
928.901	3199
929.007	3039
929.112	3245
929.218	3188
929.323	3230
929.428	3207
929.533	3348
929.638	3112
929.743	3214
929.848	3272
929.953	3230
930.058	3211
930.163	3036
930.267	3070
930.372	3253
930.477	3097
930.581	3348
930.685	3203
930.79	3077
930.894	3176
930.998	3100
931.103	3325
931.207	3032
931.311	3005
931.415	2975
931.519	2819
931.623	2853
