Data from test_V78500241_571.txt Node
Date: Fri Mar 25 16:19:09 CST 2022
User: usil
Spectrometer: V785-0024
Trigger mode: 0
Integration Time (sec): 4.000000E-1
Scans to average: 1
Nonlinearity correction enabled: false
Boxcar width: 0
Storing dark spectrum: false
XAxis mode: Wavelengths
Number of Pixels in Spectrum: 1024
>>>>>Begin Spectral Data<<<<<
801.071	2891
801.214	2914
801.356	2868
801.499	2891
801.641	2853
801.783	2906
801.926	3066
802.068	2952
802.211	2952
802.353	3039
802.496	2948
802.638	2982
802.78	2998
802.923	3047
803.065	2990
803.208	2891
803.35	2937
803.492	2910
803.635	2910
803.777	2754
803.919	2804
804.061	3188
804.204	2941
804.346	2883
804.488	2819
804.63	2998
804.773	2880
804.915	2929
805.057	3055
805.199	2899
805.341	2956
805.483	3005
805.626	3013
805.768	2906
805.91	3039
806.052	3081
806.194	3039
806.336	3180
806.478	2998
806.62	2952
806.762	2963
806.904	3024
807.046	3165
807.188	2948
807.33	2902
807.472	2979
807.614	2899
807.756	2971
807.898	2899
808.04	2922
808.182	2952
808.324	2929
808.465	2876
808.607	2891
808.749	2785
808.891	2838
809.033	2967
809.174	2956
809.316	2864
809.458	2880
809.6	2796
809.741	2754
809.883	2769
810.025	2876
810.166	2853
810.308	2838
810.45	2849
810.591	2781
810.733	2777
810.875	2807
811.016	2773
811.158	2762
811.299	2785
811.441	2933
811.582	2872
811.724	2811
811.865	2853
812.007	2883
812.148	2861
812.29	2853
812.431	2876
812.573	2902
812.714	2918
812.855	2967
812.997	3036
813.138	3112
813.279	3032
813.421	2990
813.562	2929
813.703	2819
813.845	2899
813.986	2735
814.127	2739
814.268	2830
814.41	2823
814.551	2819
814.692	2861
814.833	2804
814.974	2872
815.115	2922
815.256	2823
815.397	2785
815.539	2864
815.68	2769
815.821	2815
815.962	2948
816.103	2960
816.244	2819
816.385	2864
816.526	2956
816.666	2929
816.807	2785
816.948	2868
817.089	2891
817.23	2876
817.371	2766
817.512	2781
817.653	2857
817.793	2872
817.934	2876
818.075	2971
818.216	2971
818.356	2979
818.497	2895
818.638	2777
818.778	2800
818.919	2762
819.06	2750
819.2	2887
819.341	2792
819.481	2819
819.622	2910
819.762	3108
819.903	3024
820.043	2922
820.184	2864
820.324	2902
820.465	2952
820.605	3001
820.746	2994
820.886	2887
821.026	3108
821.167	3161
821.307	3260
821.447	3264
821.588	3199
821.728	3173
821.868	3203
822.008	3024
822.149	3199
822.289	3161
822.429	3085
822.569	3066
822.709	3157
822.849	3058
822.99	3066
823.13	3100
823.27	3211
823.41	3070
823.55	3154
823.69	3135
823.83	3135
823.97	3077
824.11	3043
824.25	2956
824.389	3024
824.529	3081
824.669	2990
824.809	3154
824.949	3241
825.089	3176
825.228	3157
825.368	3009
825.508	2963
825.648	2952
825.787	3024
825.927	3001
826.067	2982
826.206	2937
826.346	3051
826.485	3051
826.625	3112
826.765	3253
826.904	3226
827.044	3001
827.183	2975
827.323	2868
827.462	3013
827.601	2925
827.741	2960
827.88	2948
828.02	2899
828.159	2967
828.298	3036
828.437	3100
828.577	3077
828.716	3268
828.855	3074
828.994	2960
829.134	2880
829.273	2906
829.412	2963
829.551	2864
829.69	2941
829.829	3017
829.968	3146
830.107	2998
830.246	3077
830.385	2960
830.524	2933
830.663	2815
830.802	2777
830.941	2655
831.08	2697
831.219	2785
831.357	2800
831.496	2994
831.635	2773
831.774	2682
831.913	2667
832.051	2575
832.19	2617
832.329	2701
832.467	2587
832.606	2499
832.744	2610
832.883	2587
833.022	2617
833.16	2663
833.299	2705
833.437	2731
833.576	2739
833.714	2777
833.852	2769
833.991	2796
834.129	2868
834.267	2880
834.406	2807
834.544	2925
834.682	2937
834.821	2914
834.959	3142
835.097	2944
835.235	3066
835.373	3043
835.511	3051
835.65	2986
835.788	2982
835.926	2868
836.064	2864
836.202	2883
836.34	3127
836.478	3146
836.615	3100
836.753	3180
836.891	3230
837.029	3214
837.167	3123
837.305	3081
837.443	3104
837.58	3020
837.718	3173
837.856	3062
837.993	3077
838.131	3169
838.269	3142
838.406	3116
838.544	3127
838.681	2941
838.819	2929
838.956	2830
839.094	2834
839.231	2960
839.369	3081
839.506	3412
839.643	3233
839.781	3051
839.918	3005
840.055	3070
840.193	3062
840.33	3058
840.467	3157
840.604	3211
840.742	3447
840.879	3097
841.016	3085
841.153	3154
841.29	3355
841.427	3310
841.564	3321
841.701	3329
841.838	3214
841.975	3203
842.112	3233
842.249	3062
842.385	3058
842.522	3275
842.659	3142
842.796	3131
842.933	3108
843.069	3055
843.206	3051
843.343	3211
843.479	3138
843.616	3161
843.752	2891
843.889	2880
844.025	3142
844.162	2902
844.298	3116
844.435	2963
844.571	2929
844.708	3097
844.844	3211
844.98	3245
845.117	3237
845.253	3089
845.389	3020
845.525	3165
845.661	3135
845.798	3017
845.934	3119
846.07	3047
846.206	3230
846.342	3367
846.478	3268
846.614	3074
846.75	3093
846.886	3024
847.022	3279
847.158	3138
847.294	3260
847.429	3294
847.565	3203
847.701	3530
847.837	3020
847.972	3009
848.108	3195
848.244	3154
848.379	2979
848.515	2967
848.65	2963
848.786	3017
848.921	3009
849.057	3112
849.192	3173
849.328	3093
849.463	3142
849.598	3112
849.734	3062
849.869	3009
850.004	2948
850.14	3005
850.275	2941
850.41	2842
850.545	2918
850.68	2956
850.815	3005
850.95	2998
851.085	3199
851.22	3123
851.355	3070
851.49	3024
851.625	3058
851.76	3051
851.895	2963
852.03	2982
852.165	3039
852.299	3131
852.434	3207
852.569	3176
852.703	3169
852.838	3272
852.973	3363
853.107	3310
853.242	3180
853.376	3119
853.511	2986
853.645	3074
853.78	3279
853.914	3131
854.048	3119
854.183	3127
854.317	3184
854.451	3317
854.585	3165
854.72	3127
854.854	3218
854.988	3093
855.122	3123
855.256	3028
855.39	3142
855.524	3268
855.658	3211
855.792	3188
855.926	3222
856.06	3264
856.194	3260
856.327	3184
856.461	3104
856.595	3070
856.729	3116
856.862	3233
856.996	3142
857.13	3218
857.263	3279
857.397	3298
857.53	3180
857.664	3237
857.797	3287
857.931	3283
858.064	3188
858.197	3241
858.331	3142
858.464	3161
858.597	3024
858.731	3150
858.864	3169
858.997	3093
859.13	3184
859.263	3195
859.396	3253
859.529	3104
859.662	3100
859.795	3058
859.928	3165
860.061	3294
860.194	3321
860.327	3154
860.46	3142
860.592	3287
860.725	3287
860.858	3275
860.99	3142
861.123	3112
861.256	3089
861.388	3169
861.521	3747
861.653	3024
861.786	3039
861.918	3017
862.05	3089
862.183	3108
862.315	3222
862.447	3218
862.58	3138
862.712	2944
862.844	2887
862.976	3066
863.108	3039
863.24	3450
863.372	2895
863.504	3020
863.636	2963
863.768	3077
863.9	3009
864.032	2922
864.164	2967
864.296	3062
864.428	3116
864.559	3116
864.691	3127
864.823	3104
864.954	3074
865.086	3058
865.217	3005
865.349	2979
865.48	3009
865.612	3013
865.743	3176
865.875	3005
866.006	2994
866.137	2982
866.269	2952
866.4	2952
866.531	2929
866.662	2937
866.793	2933
866.924	2937
867.055	2960
867.186	2975
867.317	2902
867.448	2864
867.579	2872
867.71	2887
867.841	2872
867.972	2914
868.103	2910
868.233	2887
868.364	2918
868.495	2929
868.625	3093
868.756	3161
868.886	2986
869.017	3055
869.147	3157
869.278	3176
869.408	3039
869.539	3032
869.669	3085
869.799	3081
869.929	3150
870.06	3108
870.19	3359
870.32	3317
870.45	3275
870.58	3386
870.71	3477
870.84	3435
870.97	3275
871.1	3226
871.23	3549
871.36	3454
871.489	3397
871.619	3473
871.749	3416
871.879	3485
872.008	3526
872.138	3386
872.267	3283
872.397	3135
872.526	3150
872.656	3039
872.785	3104
872.915	3249
873.044	3344
873.173	3260
873.303	3245
873.432	3249
873.561	3256
873.69	3161
873.819	3169
873.948	3218
874.077	3097
874.206	3055
874.335	3108
874.464	3237
874.593	3367
874.722	3256
874.851	3386
874.979	3332
875.108	3336
875.237	3173
875.365	3169
875.494	3195
875.623	3272
875.751	3104
875.88	3138
876.008	3233
876.136	3233
876.265	3397
876.393	3511
876.521	3462
876.65	3412
876.778	3355
876.906	3268
877.034	3222
877.162	3230
877.29	3195
877.418	3264
877.546	3241
877.674	3283
877.802	3195
877.93	3245
878.058	3165
878.185	3123
878.313	3195
878.441	3245
878.568	3116
878.696	3188
878.824	3256
878.951	3306
879.079	3477
879.206	3625
879.333	3462
879.461	3348
879.588	3412
879.715	3511
879.842	3663
879.97	3389
880.097	3176
880.224	3142
880.351	3203
880.478	3214
880.605	3211
880.732	3199
880.859	3507
880.986	3313
881.112	3378
881.239	3249
881.366	3123
881.493	3051
881.619	3036
881.746	3051
881.872	3097
881.999	3135
882.125	3188
882.252	3260
882.378	3283
882.505	3431
882.631	3321
882.757	3173
882.883	3230
883.01	3222
883.136	3184
883.262	3104
883.388	3173
883.514	3332
883.64	3412
883.766	3317
883.892	3188
884.018	3256
884.143	3458
884.269	3587
884.395	3245
884.52	3165
884.646	3165
884.772	3161
884.897	3097
885.023	3245
885.148	3317
885.274	3477
885.399	3344
885.524	3294
885.65	3275
885.775	3317
885.9	3313
886.025	3424
886.15	3370
886.275	3310
886.4	3237
886.525	3279
886.65	3294
886.775	3294
886.9	3526
887.025	3660
887.149	3416
887.274	3275
887.399	3192
887.523	3188
887.648	3184
887.773	3184
887.897	3370
888.021	3435
888.146	3306
888.27	3435
888.395	3542
888.519	3481
888.643	3488
888.767	3500
888.891	3336
889.015	3245
889.139	3287
889.263	3256
889.387	3458
889.511	3549
889.635	3393
889.759	3313
889.883	3310
890.006	3412
890.13	3511
890.254	3310
890.377	3340
890.501	3222
890.624	3173
890.748	3329
890.871	3173
890.995	3085
891.118	3097
891.241	3157
891.364	3211
891.488	3302
891.611	3222
891.734	3233
891.857	3306
891.98	3275
892.103	3363
892.226	3313
892.349	3214
892.471	3146
892.594	3218
892.717	3256
892.839	3256
892.962	3310
893.085	3359
893.207	3374
893.33	3154
893.452	3260
893.575	3279
893.697	3294
893.819	3473
893.941	3523
894.064	3450
894.186	3256
894.308	3310
894.43	3454
894.552	3568
894.674	3481
894.796	3264
894.918	3329
895.04	3287
895.161	3420
895.283	3393
895.405	3313
895.526	3378
895.648	3481
895.769	3435
895.891	3458
896.012	3488
896.134	3500
896.255	3412
896.376	3382
896.498	3363
896.619	3462
896.74	3382
896.861	3386
896.982	3740
897.103	3846
897.224	3595
897.345	3557
897.466	3447
897.587	3481
897.708	3572
897.828	3534
897.949	3439
898.07	3336
898.19	3397
898.311	3625
898.431	3428
898.552	3511
898.672	3568
898.792	3564
898.913	3538
899.033	3412
899.153	3302
899.273	3211
899.393	3268
899.513	3355
899.633	3378
899.753	3340
899.873	3317
899.993	3409
900.113	3321
900.232	3340
900.352	3344
900.472	3298
900.591	3211
900.711	3313
900.83	3214
900.95	3435
901.069	3496
901.189	3363
901.308	3203
901.427	3131
901.546	3214
901.665	3272
901.784	3340
901.904	3195
902.023	3161
902.141	3017
902.26	3020
902.379	3161
902.498	3104
902.617	3043
902.735	3233
902.854	3272
902.973	3226
903.091	3077
903.21	3062
903.328	3184
903.446	3089
903.565	3108
903.683	3268
903.801	3127
903.919	3283
904.038	3313
904.156	3222
904.274	3325
904.392	3291
904.51	3332
904.627	3351
904.745	3523
904.863	3526
904.981	3268
905.098	3195
905.216	3279
905.334	3317
905.451	3340
905.569	3351
905.686	3454
905.803	3492
905.921	3359
906.038	3481
906.155	3370
906.272	3294
906.389	3382
906.506	3245
906.623	3283
906.74	3313
906.857	3245
906.974	3329
907.091	3469
907.208	3622
907.324	3511
907.441	3462
907.557	3256
907.674	3294
907.79	3268
907.907	3283
908.023	3420
908.139	3412
908.256	3378
908.372	3374
908.488	3405
908.604	3317
908.72	3272
908.836	3336
908.952	3321
909.068	3378
909.184	3538
909.3	3420
909.415	3549
909.531	3538
909.647	3325
909.762	3336
909.878	3302
909.993	3393
910.108	3351
910.224	3386
910.339	3424
910.454	3378
910.57	3374
910.685	3313
910.8	3610
910.915	3553
911.03	3485
911.145	3313
911.259	3317
911.374	3344
911.489	3283
911.604	3253
911.718	3165
911.833	3150
911.947	3062
912.062	3036
912.176	3192
912.291	3199
912.405	3272
912.519	3504
912.633	3507
912.748	3359
912.862	3310
912.976	3241
913.09	3093
913.204	3214
913.318	3226
913.431	3416
913.545	3351
913.659	3507
913.772	3306
913.886	3264
914	3245
914.113	3359
914.226	3443
914.34	3412
914.453	3222
914.566	3431
914.68	3283
914.793	3367
914.906	3180
915.019	3154
915.132	3123
915.245	3207
915.358	3226
915.47	3283
915.583	3287
915.696	3310
915.809	3458
915.921	3504
916.034	3287
916.146	3272
916.259	3260
916.371	3439
916.483	3389
916.595	3302
916.708	3344
916.82	3374
916.932	3340
917.044	3401
917.156	3401
917.268	3310
917.38	3359
917.491	3336
917.603	3428
917.715	3515
917.826	3488
917.938	3424
918.049	3329
918.161	3454
918.272	3595
918.384	3614
918.495	3511
918.606	3355
918.717	3329
918.828	3378
918.939	3450
919.05	3302
919.161	3386
919.272	3226
919.383	3306
919.494	3515
919.604	3694
919.715	3504
919.826	3428
919.936	3511
920.047	3599
920.157	3576
920.267	3808
920.378	3633
920.488	3564
920.598	3781
920.708	3979
920.818	3842
920.928	3861
921.038	4044
921.148	4063
921.258	3732
921.368	3656
921.477	3625
921.587	3534
921.697	3496
921.806	3675
921.916	3564
922.025	3389
922.134	3378
922.244	3310
922.353	3454
922.462	3279
922.571	3272
922.68	3112
922.789	3085
922.898	3138
923.007	3127
923.116	3249
923.224	3207
923.333	3245
923.442	3104
923.55	3165
923.659	3154
923.767	3241
923.876	3142
923.984	3241
924.092	3165
924.201	3256
924.309	3233
924.417	3302
924.525	3218
924.633	3222
924.741	4078
924.849	3077
924.956	3294
925.064	3108
925.172	3097
925.279	3112
925.387	3218
925.494	3218
925.602	3367
925.709	3355
925.816	3203
925.924	3291
926.031	3412
926.138	3389
926.245	3367
926.352	3291
926.459	3450
926.566	3492
926.673	3332
926.779	3272
926.886	3268
926.993	3192
927.099	3157
927.206	3184
927.312	3169
927.419	3283
927.525	3214
927.631	3298
927.737	3176
927.843	3116
927.95	3074
928.056	3173
928.162	3199
928.267	3272
928.373	3797
928.479	3370
928.585	3089
928.69	3245
928.796	3287
928.901	3184
929.007	3077
929.112	3222
929.218	3233
929.323	3169
929.428	3195
929.533	3302
929.638	3142
929.743	3176
929.848	3329
929.953	3294
930.058	3207
930.163	3020
930.267	3074
930.372	3230
930.477	3104
930.581	3363
930.685	3203
930.79	3119
930.894	3119
930.998	3138
931.103	3329
931.207	3039
931.311	2937
931.415	2967
931.519	2826
931.623	2853
