Data from test_V78500241_364.txt Node
Date: Fri Mar 25 16:17:43 CST 2022
User: usil
Spectrometer: V785-0024
Trigger mode: 0
Integration Time (sec): 4.000000E-1
Scans to average: 1
Nonlinearity correction enabled: false
Boxcar width: 0
Storing dark spectrum: false
XAxis mode: Wavelengths
Number of Pixels in Spectrum: 1024
>>>>>Begin Spectral Data<<<<<
801.071	2925
801.214	2990
801.356	2922
801.499	2914
801.641	2868
801.783	2948
801.926	3020
802.068	3013
802.211	2990
802.353	3055
802.496	2979
802.638	3017
802.78	3066
802.923	3036
803.065	3005
803.208	2895
803.35	2967
803.492	2922
803.635	2933
803.777	2750
803.919	2834
804.061	3188
804.204	2948
804.346	2956
804.488	2838
804.63	2990
804.773	2876
804.915	2929
805.057	3123
805.199	2956
805.341	2975
805.483	3051
805.626	3001
805.768	2986
805.91	3104
806.052	3116
806.194	3062
806.336	3233
806.478	3024
806.62	2956
806.762	2994
806.904	3043
807.046	3226
807.188	2967
807.33	2925
807.472	2986
807.614	2887
807.756	2979
807.898	2933
808.04	2929
808.182	2990
808.324	2952
808.465	2899
808.607	2872
808.749	2792
808.891	2842
809.033	2963
809.174	2948
809.316	2857
809.458	2876
809.6	2781
809.741	2781
809.883	2766
810.025	2849
810.166	2872
810.308	2826
810.45	2864
810.591	2769
810.733	2766
810.875	2849
811.016	2781
811.158	2777
811.299	2826
811.441	2910
811.582	2838
811.724	2845
811.865	2838
812.007	2918
812.148	2880
812.29	2868
812.431	2864
812.573	2941
812.714	2982
812.855	3058
812.997	3058
813.138	3074
813.279	2986
813.421	2975
813.562	2956
813.703	2853
813.845	2918
813.986	2796
814.127	2735
814.268	2838
814.41	2857
814.551	2811
814.692	2876
814.833	2807
814.974	2929
815.115	2986
815.256	2811
815.397	2796
815.539	2872
815.68	2769
815.821	2804
815.962	2963
816.103	2922
816.244	2883
816.385	2895
816.526	2960
816.666	2933
816.807	2766
816.948	2910
817.089	2895
817.23	2838
817.371	2777
817.512	2815
817.653	2861
817.793	2792
817.934	2883
818.075	2986
818.216	3028
818.356	3043
818.497	2861
818.638	2796
818.778	2830
818.919	2815
819.06	2762
819.2	2883
819.341	2823
819.481	2811
819.622	2914
819.762	3093
819.903	3043
820.043	2906
820.184	2910
820.324	2906
820.465	3020
820.605	3017
820.746	3024
820.886	2944
821.026	3138
821.167	3180
821.307	3253
821.447	3291
821.588	3283
821.728	3173
821.868	3214
822.008	3093
822.149	3150
822.289	3245
822.429	3146
822.569	3074
822.709	3226
822.849	3036
822.99	3093
823.13	3184
823.27	3195
823.41	3112
823.55	3165
823.69	3161
823.83	3199
823.97	3119
824.11	3001
824.25	2971
824.389	3077
824.529	3112
824.669	3081
824.809	3195
824.949	3214
825.089	3233
825.228	3192
825.368	3009
825.508	2960
825.648	2994
825.787	3028
825.927	3001
826.067	2971
826.206	2998
826.346	3028
826.485	3093
826.625	3070
826.765	3272
826.904	3203
827.044	2986
827.183	2922
827.323	2834
827.462	3020
827.601	2929
827.741	2944
827.88	2922
828.02	2842
828.159	2975
828.298	3070
828.437	3127
828.577	3036
828.716	3264
828.855	3058
828.994	2891
829.134	2887
829.273	2914
829.412	2853
829.551	2849
829.69	2891
829.829	3013
829.968	3119
830.107	3028
830.246	2998
830.385	2933
830.524	2864
830.663	2826
830.802	2750
830.941	2670
831.08	2693
831.219	2785
831.357	2739
831.496	2956
831.635	2735
831.774	2670
831.913	2678
832.051	2549
832.19	2598
832.329	2697
832.467	2511
832.606	2457
832.744	2583
832.883	2590
833.022	2598
833.16	2674
833.299	2682
833.437	2686
833.576	2697
833.714	2788
833.852	2743
833.991	2788
834.129	2876
834.267	2830
834.406	2788
834.544	2868
834.682	2914
834.821	2849
834.959	3066
835.097	2883
835.235	3024
835.373	3028
835.511	3055
835.65	2944
835.788	2998
835.926	2857
836.064	2792
836.202	2861
836.34	3093
836.478	3173
836.615	3017
836.753	3085
836.891	3192
837.029	3169
837.167	3112
837.305	3089
837.443	3036
837.58	2982
837.718	3108
837.856	3074
837.993	3066
838.131	3131
838.269	3093
838.406	3081
838.544	3085
838.681	2914
838.819	2902
838.956	2807
839.094	2830
839.231	2902
839.369	3028
839.506	3405
839.643	3222
839.781	3001
839.918	2952
840.055	3051
840.193	3043
840.33	3066
840.467	3119
840.604	3146
840.742	3412
840.879	3051
841.016	3039
841.153	3116
841.29	3313
841.427	3298
841.564	3260
841.701	3321
841.838	3222
841.975	3180
842.112	3173
842.249	3058
842.385	3043
842.522	3218
842.659	3081
842.796	3047
842.933	3085
843.069	3058
843.206	3009
843.343	3180
843.479	3062
843.616	3119
843.752	2887
843.889	2899
844.025	3100
844.162	2842
844.298	3058
844.435	2925
844.571	2925
844.708	3085
844.844	3180
844.98	3233
845.117	3207
845.253	3017
845.389	2975
845.525	3131
845.661	3108
845.798	2979
845.934	3131
846.07	3051
846.206	3253
846.342	3317
846.478	3165
846.614	3081
846.75	3093
846.886	3024
847.022	3222
847.158	3108
847.294	3207
847.429	3226
847.565	3211
847.701	3496
847.837	3009
847.972	2990
848.108	3203
848.244	3100
848.379	2960
848.515	2963
848.65	2937
848.786	2975
848.921	2990
849.057	3085
849.192	3173
849.328	3032
849.463	3100
849.598	3093
849.734	3028
849.869	2986
850.004	2891
850.14	2960
850.275	2918
850.41	2834
850.545	2872
850.68	2895
850.815	2956
850.95	2960
851.085	3184
851.22	3116
851.355	3032
851.49	3001
851.625	2986
851.76	3024
851.895	2937
852.03	2933
852.165	3047
852.299	3123
852.434	3131
852.569	3142
852.703	3169
852.838	3249
852.973	3294
853.107	3321
853.242	3112
853.376	3077
853.511	2982
853.645	3032
853.78	3237
853.914	3119
854.048	3123
854.183	3089
854.317	3127
854.451	3313
854.585	3070
854.72	3047
854.854	3184
854.988	3017
855.122	3085
855.256	2956
855.39	3089
855.524	3203
855.658	3173
855.792	3157
855.926	3211
856.06	3214
856.194	3237
856.327	3169
856.461	3081
856.595	3062
856.729	3112
856.862	3211
856.996	3142
857.13	3176
857.263	3214
857.397	3264
857.53	3104
857.664	3169
857.797	3230
857.931	3272
858.064	3173
858.197	3233
858.331	3131
858.464	3127
858.597	2956
858.731	3157
858.864	3119
858.997	3047
859.13	3157
859.263	3184
859.396	3176
859.529	3089
859.662	3070
859.795	3005
859.928	3127
860.061	3272
860.194	3283
860.327	3123
860.46	3108
860.592	3230
860.725	3237
860.858	3211
860.99	3093
861.123	3058
861.256	3047
861.388	3104
861.521	3857
861.653	2994
861.786	2986
861.918	3001
862.05	3066
862.183	3085
862.315	3180
862.447	3207
862.58	3077
862.712	2963
862.844	2906
862.976	3009
863.108	2998
863.24	3439
863.372	2899
863.504	2925
863.636	2941
863.768	3070
863.9	2963
864.032	2925
864.164	2929
864.296	3013
864.428	3070
864.559	3043
864.691	3081
864.823	3058
864.954	3062
865.086	3024
865.217	2994
865.349	2929
865.48	2982
865.612	3013
865.743	3165
865.875	3001
866.006	2941
866.137	2963
866.269	2944
866.4	2914
866.531	2906
866.662	2906
866.793	2929
866.924	2887
867.055	2986
867.186	2944
867.317	2876
867.448	2857
867.579	2826
867.71	2838
867.841	2826
867.972	2876
868.103	2895
868.233	2891
868.364	2857
868.495	2902
868.625	3036
868.756	3135
868.886	2994
869.017	3017
869.147	3157
869.278	3131
869.408	3009
869.539	3005
869.669	3123
869.799	3017
869.929	3138
870.06	3157
870.19	3321
870.32	3302
870.45	3272
870.58	3370
870.71	3454
870.84	3439
870.97	3287
871.1	3230
871.23	3466
871.36	3454
871.489	3386
871.619	3367
871.749	3428
871.879	3439
872.008	3485
872.138	3359
872.267	3241
872.397	3097
872.526	3070
872.656	2998
872.785	3100
872.915	3268
873.044	3294
873.173	3256
873.303	3233
873.432	3245
873.561	3226
873.69	3169
873.819	3188
873.948	3188
874.077	3093
874.206	3024
874.335	3081
874.464	3195
874.593	3367
874.722	3207
874.851	3420
874.979	3329
875.108	3298
875.237	3173
875.365	3157
875.494	3150
875.623	3230
875.751	3089
875.88	3085
876.008	3142
876.136	3211
876.265	3382
876.393	3519
876.521	3424
876.65	3386
876.778	3325
876.906	3203
877.034	3188
877.162	3233
877.29	3157
877.418	3256
877.546	3230
877.674	3214
877.802	3245
877.93	3253
878.058	3157
878.185	3093
878.313	3173
878.441	3207
878.568	3085
878.696	3157
878.824	3245
878.951	3264
879.079	3447
879.206	3618
879.333	3485
879.461	3325
879.588	3389
879.715	3488
879.842	3603
879.97	3386
880.097	3165
880.224	3142
880.351	3138
880.478	3230
880.605	3203
880.732	3173
880.859	3504
880.986	3241
881.112	3313
881.239	3165
881.366	3097
881.493	3036
881.619	3024
881.746	3077
881.872	3077
881.999	3081
882.125	3138
882.252	3218
882.378	3272
882.505	3431
882.631	3272
882.757	3157
882.883	3230
883.01	3195
883.136	3127
883.262	3089
883.388	3119
883.514	3302
883.64	3393
883.766	3272
883.892	3207
884.018	3222
884.143	3393
884.269	3519
884.395	3199
884.52	3165
884.646	3157
884.772	3142
884.897	3077
885.023	3192
885.148	3329
885.274	3374
885.399	3348
885.524	3306
885.65	3237
885.775	3313
885.9	3298
886.025	3447
886.15	3321
886.275	3317
886.4	3275
886.525	3325
886.65	3310
886.775	3298
886.9	3469
887.025	3656
887.149	3382
887.274	3233
887.399	3184
887.523	3180
887.648	3188
887.773	3157
887.897	3370
888.021	3412
888.146	3279
888.27	3401
888.395	3515
888.519	3428
888.643	3439
888.767	3477
888.891	3294
889.015	3214
889.139	3313
889.263	3253
889.387	3428
889.511	3500
889.635	3420
889.759	3264
889.883	3275
890.006	3389
890.13	3492
890.254	3294
890.377	3332
890.501	3199
890.624	3116
890.748	3294
890.871	3211
890.995	3116
891.118	3062
891.241	3180
891.364	3237
891.488	3329
891.611	3138
891.734	3222
891.857	3287
891.98	3230
892.103	3344
892.226	3256
892.349	3222
892.471	3112
892.594	3272
892.717	3279
892.839	3272
892.962	3306
893.085	3359
893.207	3275
893.33	3184
893.452	3195
893.575	3283
893.697	3222
893.819	3393
893.941	3492
894.064	3466
894.186	3283
894.308	3260
894.43	3443
894.552	3572
894.674	3428
894.796	3298
894.918	3302
895.04	3272
895.161	3424
895.283	3393
895.405	3291
895.526	3363
895.648	3473
895.769	3462
895.891	3466
896.012	3481
896.134	3454
896.255	3382
896.376	3393
896.498	3355
896.619	3416
896.74	3374
896.861	3443
896.982	3663
897.103	3861
897.224	3618
897.345	3553
897.466	3462
897.587	3553
897.708	3625
897.828	3519
897.949	3454
898.07	3355
898.19	3409
898.311	3580
898.431	3416
898.552	3492
898.672	3591
898.792	3530
898.913	3526
899.033	3454
899.153	3294
899.273	3192
899.393	3302
899.513	3294
899.633	3332
899.753	3321
899.873	3298
899.993	3389
900.113	3340
900.232	3424
900.352	3310
900.472	3256
900.591	3203
900.711	3287
900.83	3211
900.95	3386
901.069	3466
901.189	3355
901.308	3203
901.427	3123
901.546	3180
901.665	3294
901.784	3340
901.904	3180
902.023	3176
902.141	3036
902.26	2990
902.379	3150
902.498	3058
902.617	3062
902.735	3176
902.854	3253
902.973	3211
903.091	3047
903.21	3047
903.328	3146
903.446	3112
903.565	3104
903.683	3207
903.801	3100
903.919	3264
904.038	3275
904.156	3154
904.274	3283
904.392	3249
904.51	3317
904.627	3348
904.745	3443
904.863	3454
904.981	3260
905.098	3173
905.216	3264
905.334	3275
905.451	3275
905.569	3310
905.686	3420
905.803	3428
905.921	3279
906.038	3409
906.155	3351
906.272	3275
906.389	3336
906.506	3176
906.623	3222
906.74	3249
906.857	3211
906.974	3249
907.091	3469
907.208	3542
907.324	3488
907.441	3359
907.557	3207
907.674	3207
907.79	3211
907.907	3283
908.023	3374
908.139	3386
908.256	3336
908.372	3367
908.488	3355
908.604	3230
908.72	3230
908.836	3268
908.952	3325
909.068	3325
909.184	3477
909.3	3416
909.415	3534
909.531	3458
909.647	3275
909.762	3306
909.878	3279
909.993	3298
910.108	3348
910.224	3317
910.339	3435
910.454	3317
910.57	3321
910.685	3214
910.8	3610
910.915	3515
911.03	3397
911.145	3313
911.259	3226
911.374	3302
911.489	3256
911.604	3237
911.718	3116
911.833	3150
911.947	3039
912.062	2998
912.176	3192
912.291	3184
912.405	3211
912.519	3389
912.633	3435
912.748	3302
912.862	3287
912.976	3154
913.09	3077
913.204	3169
913.318	3230
913.431	3287
913.545	3336
913.659	3405
913.772	3351
913.886	3207
914	3211
914.113	3355
914.226	3393
914.34	3359
914.453	3241
914.566	3401
914.68	3275
914.793	3336
914.906	3127
915.019	3127
915.132	3039
915.245	3188
915.358	3188
915.47	3253
915.583	3241
915.696	3275
915.809	3393
915.921	3420
916.034	3211
916.146	3230
916.259	3241
916.371	3386
916.483	3389
916.595	3249
916.708	3378
916.82	3317
916.932	3310
917.044	3332
917.156	3340
917.268	3218
917.38	3310
917.491	3291
917.603	3401
917.715	3450
917.826	3443
917.938	3359
918.049	3310
918.161	3420
918.272	3561
918.384	3572
918.495	3469
918.606	3336
918.717	3237
918.828	3374
918.939	3416
919.05	3321
919.161	3363
919.272	3180
919.383	3306
919.494	3519
919.604	3663
919.715	3469
919.826	3416
919.936	3420
920.047	3599
920.157	3549
920.267	3793
920.378	3610
920.488	3553
920.598	3774
920.708	3991
920.818	3846
920.928	3800
921.038	4021
921.148	4032
921.258	3717
921.368	3656
921.477	3568
921.587	3530
921.697	3485
921.806	3633
921.916	3519
922.025	3340
922.134	3374
922.244	3291
922.353	3401
922.462	3264
922.571	3241
922.68	3104
922.789	3070
922.898	3116
923.007	3104
923.116	3222
923.224	3150
923.333	3211
923.442	3123
923.55	3123
923.659	3108
923.767	3222
923.876	3112
923.984	3275
924.092	3135
924.201	3180
924.309	3188
924.417	3207
924.525	3222
924.633	3226
924.741	4166
924.849	3062
924.956	3298
925.064	3093
925.172	3043
925.279	3100
925.387	3188
925.494	3203
925.602	3359
925.709	3313
925.816	3199
925.924	3287
926.031	3393
926.138	3329
926.245	3363
926.352	3291
926.459	3401
926.566	3462
926.673	3291
926.779	3241
926.886	3268
926.993	3180
927.099	3146
927.206	3123
927.312	3104
927.419	3256
927.525	3138
927.631	3260
927.737	3108
927.843	3119
927.95	3032
928.056	3150
928.162	3207
928.267	3211
928.373	3876
928.479	3279
928.585	3066
928.69	3195
928.796	3256
928.901	3161
929.007	3047
929.112	3218
929.218	3192
929.323	3165
929.428	3119
929.533	3325
929.638	3097
929.743	3165
929.848	3245
929.953	3237
930.058	3131
930.163	2990
930.267	3020
930.372	3180
930.477	3005
930.581	3313
930.685	3222
930.79	3051
930.894	3116
930.998	3104
931.103	3253
931.207	2941
931.311	2986
931.415	2941
931.519	2766
931.623	2781
