Data from test_V78500241_994.txt Node
Date: Fri Mar 25 16:22:05 CST 2022
User: usil
Spectrometer: V785-0024
Trigger mode: 0
Integration Time (sec): 4.000000E-1
Scans to average: 1
Nonlinearity correction enabled: false
Boxcar width: 0
Storing dark spectrum: false
XAxis mode: Wavelengths
Number of Pixels in Spectrum: 1024
>>>>>Begin Spectral Data<<<<<
801.071	2956
801.214	2994
801.356	2899
801.499	2922
801.641	2906
801.783	2994
801.926	3066
802.068	3020
802.211	3032
802.353	3058
802.496	2979
802.638	3024
802.78	3085
802.923	3131
803.065	3039
803.208	2952
803.35	2933
803.492	2963
803.635	2979
803.777	2750
803.919	2880
804.061	3268
804.204	3001
804.346	2933
804.488	2887
804.63	3020
804.773	2899
804.915	2960
805.057	3100
805.199	2952
805.341	2994
805.483	3077
805.626	3036
805.768	2956
805.91	3089
806.052	3127
806.194	3070
806.336	3256
806.478	3058
806.62	2963
806.762	3024
806.904	3055
807.046	3154
807.188	3013
807.33	2982
807.472	3028
807.614	2929
807.756	3001
807.898	2937
808.04	2880
808.182	2982
808.324	3005
808.465	2918
808.607	2922
808.749	2830
808.891	2902
809.033	3032
809.174	2979
809.316	2902
809.458	2937
809.6	2792
809.741	2800
809.883	2777
810.025	2864
810.166	2902
810.308	2868
810.45	2861
810.591	2788
810.733	2796
810.875	2864
811.016	2796
811.158	2796
811.299	2823
811.441	2979
811.582	2895
811.724	2819
811.865	2819
812.007	2960
812.148	2876
812.29	2857
812.431	2933
812.573	2944
812.714	2982
812.855	3070
812.997	3077
813.138	3154
813.279	3047
813.421	2975
813.562	2956
813.703	2906
813.845	2906
813.986	2834
814.127	2746
814.268	2861
814.41	2880
814.551	2811
814.692	2906
814.833	2838
814.974	2906
815.115	2963
815.256	2891
815.397	2823
815.539	2902
815.68	2807
815.821	2785
815.962	2975
816.103	2960
816.244	2887
816.385	2861
816.526	2971
816.666	2952
816.807	2746
816.948	2872
817.089	2933
817.23	2887
817.371	2762
817.512	2826
817.653	2910
817.793	2845
817.934	2922
818.075	2979
818.216	3036
818.356	3055
818.497	2925
818.638	2804
818.778	2849
818.919	2842
819.06	2792
819.2	2891
819.341	2800
819.481	2811
819.622	2982
819.762	3138
819.903	3058
820.043	2937
820.184	2906
820.324	2883
820.465	3032
820.605	3032
820.746	3074
820.886	2948
821.026	3093
821.167	3142
821.307	3256
821.447	3321
821.588	3268
821.728	3230
821.868	3214
822.008	3070
822.149	3237
822.289	3253
822.429	3142
822.569	3123
822.709	3195
822.849	3066
822.99	3081
823.13	3176
823.27	3218
823.41	3127
823.55	3142
823.69	3138
823.83	3195
823.97	3100
824.11	3005
824.25	2982
824.389	3089
824.529	3169
824.669	3123
824.809	3173
824.949	3283
825.089	3230
825.228	3135
825.368	3009
825.508	2982
825.648	3009
825.787	3058
825.927	3017
826.067	3001
826.206	2990
826.346	3051
826.485	3081
826.625	3085
826.765	3298
826.904	3222
827.044	2967
827.183	2933
827.323	2887
827.462	3005
827.601	2933
827.741	2948
827.88	3001
828.02	2819
828.159	2998
828.298	3043
828.437	3119
828.577	3066
828.716	3294
828.855	3112
828.994	2937
829.134	2883
829.273	2899
829.412	2853
829.551	2902
829.69	2937
829.829	3013
829.968	3119
830.107	3020
830.246	3070
830.385	2922
830.524	2899
830.663	2838
830.802	2773
830.941	2693
831.08	2697
831.219	2807
831.357	2754
831.496	2952
831.635	2750
831.774	2648
831.913	2686
832.051	2545
832.19	2629
832.329	2693
832.467	2541
832.606	2507
832.744	2598
832.883	2606
833.022	2610
833.16	2667
833.299	2727
833.437	2689
833.576	2716
833.714	2708
833.852	2788
833.991	2800
834.129	2842
834.267	2838
834.406	2785
834.544	2902
834.682	2914
834.821	2899
834.959	3066
835.097	2914
835.235	3047
835.373	3017
835.511	3043
835.65	2963
835.788	2963
835.926	2826
836.064	2845
836.202	2872
836.34	3112
836.478	3169
836.615	3066
836.753	3116
836.891	3199
837.029	3142
837.167	3123
837.305	3036
837.443	3081
837.58	2948
837.718	3146
837.856	3039
837.993	3028
838.131	3135
838.269	3146
838.406	3081
838.544	3119
838.681	2967
838.819	2925
838.956	2819
839.094	2834
839.231	2956
839.369	3066
839.506	3401
839.643	3203
839.781	2986
839.918	2963
840.055	3070
840.193	3058
840.33	3024
840.467	3104
840.604	3173
840.742	3435
840.879	3043
841.016	3062
841.153	3119
841.29	3370
841.427	3310
841.564	3287
841.701	3348
841.838	3230
841.975	3199
842.112	3199
842.249	3108
842.385	3032
842.522	3275
842.659	3077
842.796	3058
842.933	3116
843.069	3058
843.206	3039
843.343	3218
843.479	3150
843.616	3165
843.752	2933
843.889	2853
844.025	3062
844.162	2925
844.298	3058
844.435	2944
844.571	2918
844.708	3112
844.844	3184
844.98	3195
845.117	3199
845.253	3070
845.389	3028
845.525	3085
845.661	3089
845.798	3055
845.934	3127
846.07	3066
846.206	3268
846.342	3329
846.478	3264
846.614	3112
846.75	3055
846.886	3024
847.022	3230
847.158	3154
847.294	3173
847.429	3249
847.565	3218
847.701	3473
847.837	3043
847.972	3001
848.108	3169
848.244	3184
848.379	2994
848.515	2925
848.65	2902
848.786	2963
848.921	2975
849.057	3097
849.192	3150
849.328	3074
849.463	3116
849.598	3085
849.734	3055
849.869	2982
850.004	2891
850.14	2982
850.275	2937
850.41	2834
850.545	2895
850.68	2941
850.815	3013
850.95	2960
851.085	3188
851.22	3074
851.355	3047
851.49	3024
851.625	2982
851.76	3013
851.895	2971
852.03	2914
852.165	3039
852.299	3135
852.434	3207
852.569	3127
852.703	3184
852.838	3275
852.973	3386
853.107	3359
853.242	3173
853.376	3074
853.511	2937
853.645	3039
853.78	3241
853.914	3142
854.048	3097
854.183	3085
854.317	3169
854.451	3321
854.585	3165
854.72	3066
854.854	3188
854.988	3070
855.122	3085
855.256	2990
855.39	3119
855.524	3256
855.658	3195
855.792	3154
855.926	3165
856.06	3211
856.194	3275
856.327	3138
856.461	3123
856.595	3085
856.729	3097
856.862	3199
856.996	3116
857.13	3180
857.263	3256
857.397	3260
857.53	3116
857.664	3207
857.797	3222
857.931	3279
858.064	3184
858.197	3241
858.331	3150
858.464	3097
858.597	2998
858.731	3116
858.864	3180
858.997	3093
859.13	3150
859.263	3157
859.396	3211
859.529	3081
859.662	3100
859.795	3051
859.928	3108
860.061	3291
860.194	3279
860.327	3127
860.46	3089
860.592	3294
860.725	3249
860.858	3222
860.99	3119
861.123	3085
861.256	3055
861.388	3131
861.521	3854
861.653	3013
861.786	2990
861.918	2998
862.05	3055
862.183	3119
862.315	3138
862.447	3169
862.58	3116
862.712	2952
862.844	2872
862.976	3024
863.108	3039
863.24	3435
863.372	2880
863.504	2986
863.636	2963
863.768	3013
863.9	2967
864.032	2906
864.164	2937
864.296	3005
864.428	3100
864.559	3116
864.691	3047
864.823	3062
864.954	3070
865.086	3032
865.217	2998
865.349	2960
865.48	3020
865.612	3017
865.743	3146
865.875	2982
866.006	2960
866.137	2982
866.269	2941
866.4	2979
866.531	2956
866.662	2910
866.793	2929
866.924	2910
867.055	2998
867.186	2929
867.317	2864
867.448	2849
867.579	2876
867.71	2864
867.841	2826
867.972	2933
868.103	2902
868.233	2906
868.364	2857
868.495	2868
868.625	3081
868.756	3176
868.886	3028
869.017	2990
869.147	3161
869.278	3173
869.408	3097
869.539	3047
869.669	3081
869.799	3074
869.929	3127
870.06	3150
870.19	3313
870.32	3306
870.45	3340
870.58	3291
870.71	3412
870.84	3466
870.97	3291
871.1	3218
871.23	3477
871.36	3469
871.489	3355
871.619	3359
871.749	3405
871.879	3447
872.008	3496
872.138	3351
872.267	3260
872.397	3184
872.526	3131
872.656	2998
872.785	3116
872.915	3233
873.044	3294
873.173	3207
873.303	3233
873.432	3222
873.561	3253
873.69	3138
873.819	3123
873.948	3192
874.077	3112
874.206	3062
874.335	3104
874.464	3203
874.593	3336
874.722	3268
874.851	3382
874.979	3363
875.108	3283
875.237	3214
875.365	3176
875.494	3199
875.623	3245
875.751	3058
875.88	3108
876.008	3161
876.136	3268
876.265	3386
876.393	3515
876.521	3420
876.65	3405
876.778	3325
876.906	3245
877.034	3199
877.162	3245
877.29	3176
877.418	3260
877.546	3249
877.674	3222
877.802	3256
877.93	3218
878.058	3161
878.185	3112
878.313	3176
878.441	3218
878.568	3089
878.696	3154
878.824	3237
878.951	3291
879.079	3420
879.206	3629
879.333	3435
879.461	3363
879.588	3310
879.715	3469
879.842	3603
879.97	3332
880.097	3169
880.224	3104
880.351	3192
880.478	3195
880.605	3237
880.732	3195
880.859	3519
880.986	3321
881.112	3355
881.239	3195
881.366	3097
881.493	3039
881.619	3039
881.746	3089
881.872	3039
881.999	3116
882.125	3169
882.252	3249
882.378	3275
882.505	3447
882.631	3294
882.757	3154
882.883	3218
883.01	3268
883.136	3173
883.262	3104
883.388	3135
883.514	3336
883.64	3386
883.766	3317
883.892	3161
884.018	3233
884.143	3409
884.269	3519
884.395	3218
884.52	3188
884.646	3180
884.772	3108
884.897	3112
885.023	3222
885.148	3336
885.274	3378
885.399	3374
885.524	3268
885.65	3268
885.775	3291
885.9	3291
886.025	3485
886.15	3382
886.275	3306
886.4	3249
886.525	3306
886.65	3275
886.775	3294
886.9	3496
887.025	3663
887.149	3389
887.274	3249
887.399	3203
887.523	3249
887.648	3173
887.773	3199
887.897	3412
888.021	3332
888.146	3310
888.27	3443
888.395	3507
888.519	3420
888.643	3477
888.767	3435
888.891	3329
889.015	3291
889.139	3321
889.263	3230
889.387	3450
889.511	3507
889.635	3435
889.759	3249
889.883	3272
890.006	3363
890.13	3485
890.254	3237
890.377	3317
890.501	3192
890.624	3199
890.748	3310
890.871	3184
890.995	3135
891.118	3043
891.241	3184
891.364	3184
891.488	3275
891.611	3176
891.734	3256
891.857	3332
891.98	3207
892.103	3329
892.226	3287
892.349	3222
892.471	3127
892.594	3241
892.717	3264
892.839	3230
892.962	3294
893.085	3336
893.207	3302
893.33	3165
893.452	3207
893.575	3321
893.697	3241
893.819	3485
893.941	3507
894.064	3469
894.186	3268
894.308	3306
894.43	3458
894.552	3561
894.674	3462
894.796	3268
894.918	3336
895.04	3291
895.161	3450
895.283	3389
895.405	3310
895.526	3355
895.648	3389
895.769	3435
895.891	3447
896.012	3477
896.134	3435
896.255	3450
896.376	3397
896.498	3363
896.619	3405
896.74	3389
896.861	3393
896.982	3690
897.103	3827
897.224	3622
897.345	3530
897.466	3412
897.587	3507
897.708	3656
897.828	3576
897.949	3401
898.07	3355
898.19	3416
898.311	3557
898.431	3439
898.552	3504
898.672	3587
898.792	3587
898.913	3553
899.033	3389
899.153	3272
899.273	3195
899.393	3268
899.513	3302
899.633	3302
899.753	3306
899.873	3321
899.993	3393
900.113	3355
900.232	3355
900.352	3298
900.472	3279
900.591	3188
900.711	3260
900.83	3226
900.95	3374
901.069	3447
901.189	3344
901.308	3165
901.427	3112
901.546	3203
901.665	3310
901.784	3287
901.904	3211
902.023	3112
902.141	3047
902.26	2967
902.379	3127
902.498	3051
902.617	3051
902.735	3207
902.854	3211
902.973	3203
903.091	3043
903.21	3032
903.328	3146
903.446	3150
903.565	3070
903.683	3211
903.801	3116
903.919	3249
904.038	3283
904.156	3150
904.274	3272
904.392	3245
904.51	3317
904.627	3336
904.745	3450
904.863	3485
904.981	3272
905.098	3165
905.216	3203
905.334	3313
905.451	3294
905.569	3302
905.686	3412
905.803	3431
905.921	3272
906.038	3450
906.155	3367
906.272	3264
906.389	3351
906.506	3222
906.623	3253
906.74	3233
906.857	3180
906.974	3237
907.091	3466
907.208	3538
907.324	3458
907.441	3374
907.557	3249
907.674	3222
907.79	3184
907.907	3245
908.023	3431
908.139	3378
908.256	3317
908.372	3340
908.488	3344
908.604	3241
908.72	3260
908.836	3287
908.952	3264
909.068	3306
909.184	3439
909.3	3386
909.415	3504
909.531	3469
909.647	3241
909.762	3275
909.878	3245
909.993	3382
910.108	3359
910.224	3348
910.339	3397
910.454	3317
910.57	3294
910.685	3203
910.8	3637
910.915	3523
911.03	3435
911.145	3260
911.259	3241
911.374	3329
911.489	3260
911.604	3218
911.718	3123
911.833	3131
911.947	3024
912.062	2944
912.176	3146
912.291	3207
912.405	3214
912.519	3424
912.633	3420
912.748	3332
912.862	3245
912.976	3138
913.09	3036
913.204	3146
913.318	3188
913.431	3374
913.545	3336
913.659	3439
913.772	3310
913.886	3207
914	3192
914.113	3344
914.226	3420
914.34	3336
914.453	3199
914.566	3386
914.68	3272
914.793	3306
914.906	3150
915.019	3123
915.132	3051
915.245	3165
915.358	3207
915.47	3203
915.583	3272
915.696	3302
915.809	3405
915.921	3393
916.034	3275
916.146	3275
916.259	3192
916.371	3378
916.483	3367
916.595	3291
916.708	3359
916.82	3340
916.932	3336
917.044	3348
917.156	3378
917.268	3222
917.38	3321
917.491	3279
917.603	3332
917.715	3435
917.826	3469
917.938	3348
918.049	3233
918.161	3488
918.272	3572
918.384	3545
918.495	3507
918.606	3348
918.717	3264
918.828	3378
918.939	3416
919.05	3291
919.161	3367
919.272	3165
919.383	3287
919.494	3519
919.604	3667
919.715	3466
919.826	3401
919.936	3500
920.047	3610
920.157	3538
920.267	3728
920.378	3603
920.488	3564
920.598	3785
920.708	3972
920.818	3812
920.928	3831
921.038	4025
921.148	3987
921.258	3705
921.368	3591
921.477	3568
921.587	3542
921.697	3424
921.806	3603
921.916	3507
922.025	3359
922.134	3374
922.244	3321
922.353	3447
922.462	3237
922.571	3211
922.68	3089
922.789	3051
922.898	3097
923.007	3066
923.116	3192
923.224	3138
923.333	3161
923.442	3104
923.55	3070
923.659	3100
923.767	3199
923.876	3127
923.984	3268
924.092	3093
924.201	3188
924.309	3192
924.417	3283
924.525	3169
924.633	3245
924.741	4185
924.849	3047
924.956	3313
925.064	3085
925.172	3028
925.279	3108
925.387	3184
925.494	3165
925.602	3348
925.709	3294
925.816	3211
925.924	3287
926.031	3393
926.138	3306
926.245	3351
926.352	3283
926.459	3378
926.566	3454
926.673	3332
926.779	3275
926.886	3241
926.993	3131
927.099	3131
927.206	3089
927.312	3142
927.419	3222
927.525	3203
927.631	3279
927.737	3123
927.843	3085
927.95	3036
928.056	3123
928.162	3142
928.267	3268
928.373	3816
928.479	3294
928.585	3062
928.69	3188
928.796	3264
928.901	3146
929.007	3036
929.112	3199
929.218	3199
929.323	3104
929.428	3154
929.533	3313
929.638	3146
929.743	3161
929.848	3260
929.953	3222
930.058	3108
930.163	2982
930.267	3020
930.372	3188
930.477	3055
930.581	3298
930.685	3146
930.79	3058
930.894	3077
930.998	3116
931.103	3298
931.207	2975
931.311	2925
931.415	2895
931.519	2731
931.623	2811
