Data from test_V78500241_906.txt Node
Date: Fri Mar 25 16:21:28 CST 2022
User: usil
Spectrometer: V785-0024
Trigger mode: 0
Integration Time (sec): 4.000000E-1
Scans to average: 1
Nonlinearity correction enabled: false
Boxcar width: 0
Storing dark spectrum: false
XAxis mode: Wavelengths
Number of Pixels in Spectrum: 1024
>>>>>Begin Spectral Data<<<<<
801.071	2948
801.214	2963
801.356	2872
801.499	2910
801.641	2868
801.783	2941
801.926	3077
802.068	2971
802.211	2971
802.353	3055
802.496	2948
802.638	3039
802.78	3070
802.923	3142
803.065	2990
803.208	2922
803.35	2952
803.492	2963
803.635	2933
803.777	2796
803.919	2868
804.061	3226
804.204	2944
804.346	2922
804.488	2876
804.63	3009
804.773	2872
804.915	2925
805.057	3089
805.199	2922
805.341	2971
805.483	3055
805.626	2986
805.768	2960
805.91	3081
806.052	3142
806.194	3051
806.336	3214
806.478	3009
806.62	2982
806.762	2963
806.904	3085
807.046	3184
807.188	2960
807.33	2902
807.472	2998
807.614	2887
807.756	2986
807.898	2933
808.04	2925
808.182	2982
808.324	2967
808.465	2933
808.607	2891
808.749	2800
808.891	2838
809.033	2963
809.174	2975
809.316	2891
809.458	2914
809.6	2785
809.741	2788
809.883	2796
810.025	2838
810.166	2842
810.308	2834
810.45	2880
810.591	2750
810.733	2788
810.875	2826
811.016	2785
811.158	2781
811.299	2804
811.441	2933
811.582	2891
811.724	2823
811.865	2845
812.007	2899
812.148	2883
812.29	2902
812.431	2857
812.573	2914
812.714	2960
812.855	2998
812.997	3017
813.138	3138
813.279	2975
813.421	2986
813.562	3001
813.703	2853
813.845	2899
813.986	2773
814.127	2754
814.268	2792
814.41	2819
814.551	2819
814.692	2868
814.833	2834
814.974	2918
815.115	2967
815.256	2788
815.397	2792
815.539	2868
815.68	2807
815.821	2804
815.962	2914
816.103	2941
816.244	2925
816.385	2868
816.526	2990
816.666	2918
816.807	2773
816.948	2899
817.089	2899
817.23	2872
817.371	2769
817.512	2777
817.653	2811
817.793	2823
817.934	2880
818.075	2952
818.216	2979
818.356	3032
818.497	2883
818.638	2769
818.778	2823
818.919	2811
819.06	2750
819.2	2857
819.341	2792
819.481	2796
819.622	2906
819.762	3108
819.903	3032
820.043	2906
820.184	2902
820.324	2883
820.465	2967
820.605	2956
820.746	2998
820.886	2929
821.026	3070
821.167	3146
821.307	3218
821.447	3272
821.588	3214
821.728	3188
821.868	3203
822.008	3066
822.149	3157
822.289	3176
822.429	3100
822.569	3089
822.709	3184
822.849	3017
822.99	3081
823.13	3138
823.27	3211
823.41	3077
823.55	3135
823.69	3104
823.83	3207
823.97	3093
824.11	3028
824.25	3001
824.389	3058
824.529	3089
824.669	3066
824.809	3150
824.949	3233
825.089	3214
825.228	3203
825.368	2986
825.508	2967
825.648	2876
825.787	2960
825.927	2994
826.067	2998
826.206	2979
826.346	3058
826.485	3055
826.625	3085
826.765	3237
826.904	3233
827.044	2971
827.183	2956
827.323	2853
827.462	2971
827.601	2925
827.741	2910
827.88	2933
828.02	2845
828.159	2982
828.298	3024
828.437	3131
828.577	3077
828.716	3241
828.855	3100
828.994	2910
829.134	2887
829.273	2960
829.412	2872
829.551	2861
829.69	2918
829.829	2990
829.968	3184
830.107	3066
830.246	3058
830.385	2952
830.524	2891
830.663	2838
830.802	2762
830.941	2670
831.08	2678
831.219	2796
831.357	2796
831.496	2967
831.635	2750
831.774	2674
831.913	2682
832.051	2583
832.19	2621
832.329	2708
832.467	2556
832.606	2499
832.744	2606
832.883	2629
833.022	2606
833.16	2693
833.299	2727
833.437	2705
833.576	2750
833.714	2766
833.852	2766
833.991	2826
834.129	2872
834.267	2868
834.406	2842
834.544	2895
834.682	2887
834.821	2956
834.959	3108
835.097	2948
835.235	3123
835.373	3017
835.511	3070
835.65	2998
835.788	2982
835.926	2883
836.064	2834
836.202	2906
836.34	3150
836.478	3207
836.615	3100
836.753	3184
836.891	3260
837.029	3192
837.167	3123
837.305	3112
837.443	3089
837.58	2986
837.718	3165
837.856	3116
837.993	3077
838.131	3169
838.269	3123
838.406	3154
838.544	3138
838.681	2979
838.819	2963
838.956	2838
839.094	2826
839.231	2937
839.369	3020
839.506	3409
839.643	3249
839.781	3051
839.918	2986
840.055	3058
840.193	3051
840.33	3070
840.467	3138
840.604	3195
840.742	3462
840.879	3070
841.016	3047
841.153	3108
841.29	3336
841.427	3325
841.564	3313
841.701	3291
841.838	3279
841.975	3207
842.112	3226
842.249	3081
842.385	3108
842.522	3325
842.659	3100
842.796	3108
842.933	3150
843.069	3066
843.206	3089
843.343	3214
843.479	3104
843.616	3173
843.752	2937
843.889	2937
844.025	3123
844.162	2910
844.298	3108
844.435	2990
844.571	2933
844.708	3093
844.844	3230
844.98	3260
845.117	3211
845.253	3100
845.389	3070
845.525	3081
845.661	3104
845.798	3062
845.934	3138
846.07	3074
846.206	3245
846.342	3348
846.478	3241
846.614	3104
846.75	3077
846.886	3081
847.022	3275
847.158	3176
847.294	3203
847.429	3256
847.565	3233
847.701	3519
847.837	3070
847.972	3020
848.108	3146
848.244	3150
848.379	3001
848.515	2975
848.65	2994
848.786	2982
848.921	3077
849.057	3150
849.192	3157
849.328	3112
849.463	3135
849.598	3081
849.734	3062
849.869	3001
850.004	2963
850.14	3009
850.275	2929
850.41	2876
850.545	2902
850.68	2971
850.815	2975
850.95	3013
851.085	3218
851.22	3116
851.355	3051
851.49	2971
851.625	3009
851.76	2998
851.895	2963
852.03	2975
852.165	3062
852.299	3131
852.434	3173
852.569	3165
852.703	3180
852.838	3287
852.973	3374
853.107	3355
853.242	3199
853.376	3116
853.511	2994
853.645	3024
853.78	3256
853.914	3127
854.048	3116
854.183	3138
854.317	3176
854.451	3298
854.585	3142
854.72	3131
854.854	3226
854.988	3066
855.122	3123
855.256	3009
855.39	3100
855.524	3283
855.658	3218
855.792	3203
855.926	3253
856.06	3241
856.194	3256
856.327	3230
856.461	3097
856.595	3131
856.729	3123
856.862	3222
856.996	3207
857.13	3233
857.263	3230
857.397	3294
857.53	3165
857.664	3218
857.797	3264
857.931	3253
858.064	3207
858.197	3256
858.331	3165
858.464	3135
858.597	3028
858.731	3135
858.864	3146
858.997	3119
859.13	3203
859.263	3211
859.396	3249
859.529	3123
859.662	3100
859.795	3089
859.928	3146
860.061	3283
860.194	3283
860.327	3116
860.46	3157
860.592	3249
860.725	3283
860.858	3245
860.99	3157
861.123	3085
861.256	3074
861.388	3157
861.521	3831
861.653	3058
861.786	2994
861.918	3017
862.05	3077
862.183	3131
862.315	3211
862.447	3214
862.58	3123
862.712	3020
862.844	2922
862.976	3039
863.108	2990
863.24	3325
863.372	2929
863.504	2982
863.636	2960
863.768	3047
863.9	3043
864.032	2937
864.164	2971
864.296	3039
864.428	3104
864.559	3108
864.691	3123
864.823	3100
864.954	3024
865.086	3070
865.217	3020
865.349	2998
865.48	3032
865.612	3047
865.743	3161
865.875	3001
866.006	2967
866.137	3001
866.269	2982
866.4	2971
866.531	2956
866.662	2948
866.793	2887
866.924	2922
867.055	2994
867.186	2990
867.317	2876
867.448	2823
867.579	2880
867.71	2864
867.841	2861
867.972	2929
868.103	2922
868.233	2891
868.364	2883
868.495	2902
868.625	3081
868.756	3230
868.886	2944
869.017	3032
869.147	3203
869.278	3161
869.408	3108
869.539	3089
869.669	3104
869.799	3058
869.929	3161
870.06	3112
870.19	3363
870.32	3313
870.45	3325
870.58	3367
870.71	3473
870.84	3485
870.97	3298
871.1	3230
871.23	3504
871.36	3435
871.489	3397
871.619	3435
871.749	3420
871.879	3431
872.008	3515
872.138	3424
872.267	3287
872.397	3157
872.526	3173
872.656	3024
872.785	3135
872.915	3260
873.044	3306
873.173	3283
873.303	3279
873.432	3256
873.561	3264
873.69	3127
873.819	3173
873.948	3222
874.077	3112
874.206	3020
874.335	3066
874.464	3226
874.593	3386
874.722	3245
874.851	3469
874.979	3370
875.108	3321
875.237	3218
875.365	3207
875.494	3203
875.623	3291
875.751	3097
875.88	3119
876.008	3188
876.136	3264
876.265	3443
876.393	3549
876.521	3443
876.65	3409
876.778	3332
876.906	3264
877.034	3214
877.162	3233
877.29	3176
877.418	3268
877.546	3249
877.674	3279
877.802	3253
877.93	3226
878.058	3161
878.185	3123
878.313	3214
878.441	3218
878.568	3055
878.696	3184
878.824	3272
878.951	3344
879.079	3458
879.206	3625
879.333	3466
879.461	3351
879.588	3374
879.715	3542
879.842	3603
879.97	3409
880.097	3214
880.224	3127
880.351	3222
880.478	3268
880.605	3237
880.732	3207
880.859	3511
880.986	3317
881.112	3348
881.239	3203
881.366	3131
881.493	3081
881.619	3047
881.746	3074
881.872	3131
881.999	3131
882.125	3150
882.252	3272
882.378	3317
882.505	3458
882.631	3310
882.757	3154
882.883	3245
883.01	3241
883.136	3161
883.262	3131
883.388	3097
883.514	3306
883.64	3401
883.766	3329
883.892	3218
884.018	3260
884.143	3431
884.269	3568
884.395	3214
884.52	3184
884.646	3218
884.772	3131
884.897	3097
885.023	3245
885.148	3370
885.274	3424
885.399	3397
885.524	3321
885.65	3245
885.775	3294
885.9	3298
886.025	3469
886.15	3374
886.275	3340
886.4	3260
886.525	3329
886.65	3272
886.775	3264
886.9	3515
887.025	3667
887.149	3416
887.274	3260
887.399	3203
887.523	3226
887.648	3211
887.773	3249
887.897	3386
888.021	3424
888.146	3302
888.27	3473
888.395	3553
888.519	3447
888.643	3485
888.767	3492
888.891	3306
889.015	3256
889.139	3306
889.263	3237
889.387	3374
889.511	3549
889.635	3469
889.759	3291
889.883	3306
890.006	3416
890.13	3504
890.254	3283
890.377	3378
890.501	3237
890.624	3237
890.748	3325
890.871	3241
890.995	3119
891.118	3081
891.241	3214
891.364	3218
891.488	3329
891.611	3184
891.734	3237
891.857	3294
891.98	3268
892.103	3336
892.226	3306
892.349	3203
892.471	3116
892.594	3272
892.717	3332
892.839	3283
892.962	3313
893.085	3370
893.207	3294
893.33	3161
893.452	3203
893.575	3348
893.697	3268
893.819	3462
893.941	3515
894.064	3450
894.186	3287
894.308	3272
894.43	3473
894.552	3534
894.674	3473
894.796	3283
894.918	3321
895.04	3298
895.161	3462
895.283	3336
895.405	3294
895.526	3344
895.648	3439
895.769	3431
895.891	3485
896.012	3492
896.134	3454
896.255	3386
896.376	3374
896.498	3363
896.619	3397
896.74	3370
896.861	3420
896.982	3663
897.103	3819
897.224	3591
897.345	3515
897.466	3416
897.587	3519
897.708	3671
897.828	3580
897.949	3481
898.07	3313
898.19	3397
898.311	3625
898.431	3504
898.552	3492
898.672	3610
898.792	3584
898.913	3534
899.033	3458
899.153	3325
899.273	3226
899.393	3256
899.513	3313
899.633	3321
899.753	3416
899.873	3306
899.993	3393
900.113	3374
900.232	3370
900.352	3363
900.472	3298
900.591	3180
900.711	3306
900.83	3249
900.95	3412
901.069	3492
901.189	3351
901.308	3157
901.427	3173
901.546	3192
901.665	3302
901.784	3344
901.904	3214
902.023	3157
902.141	3028
902.26	3001
902.379	3142
902.498	3066
902.617	3062
902.735	3207
902.854	3230
902.973	3176
903.091	3089
903.21	3081
903.328	3161
903.446	3131
903.565	3131
903.683	3222
903.801	3108
903.919	3264
904.038	3275
904.156	3173
904.274	3321
904.392	3230
904.51	3310
904.627	3370
904.745	3447
904.863	3511
904.981	3287
905.098	3195
905.216	3283
905.334	3310
905.451	3294
905.569	3321
905.686	3367
905.803	3458
905.921	3287
906.038	3443
906.155	3359
906.272	3294
906.389	3344
906.506	3245
906.623	3287
906.74	3317
906.857	3256
906.974	3260
907.091	3458
907.208	3584
907.324	3458
907.441	3416
907.557	3256
907.674	3256
907.79	3203
907.907	3287
908.023	3359
908.139	3416
908.256	3279
908.372	3374
908.488	3389
908.604	3226
908.72	3222
908.836	3306
908.952	3294
909.068	3332
909.184	3481
909.3	3409
909.415	3507
909.531	3496
909.647	3275
909.762	3313
909.878	3302
909.993	3370
910.108	3348
910.224	3359
910.339	3416
910.454	3359
910.57	3287
910.685	3241
910.8	3622
910.915	3553
911.03	3473
911.145	3256
911.259	3340
911.374	3325
911.489	3260
911.604	3245
911.718	3131
911.833	3173
911.947	3028
912.062	3017
912.176	3176
912.291	3188
912.405	3192
912.519	3431
912.633	3511
912.748	3336
912.862	3268
912.976	3157
913.09	3085
913.204	3127
913.318	3195
913.431	3351
913.545	3336
913.659	3409
913.772	3355
913.886	3226
914	3203
914.113	3386
914.226	3397
914.34	3378
914.453	3214
914.566	3412
914.68	3306
914.793	3317
914.906	3146
915.019	3093
915.132	3077
915.245	3207
915.358	3237
915.47	3272
915.583	3275
915.696	3298
915.809	3405
915.921	3431
916.034	3203
916.146	3260
916.259	3256
916.371	3435
916.483	3336
916.595	3283
916.708	3336
916.82	3355
916.932	3351
917.044	3359
917.156	3370
917.268	3256
917.38	3298
917.491	3329
917.603	3382
917.715	3469
917.826	3458
917.938	3340
918.049	3245
918.161	3454
918.272	3599
918.384	3580
918.495	3477
918.606	3359
918.717	3287
918.828	3382
918.939	3389
919.05	3306
919.161	3382
919.272	3165
919.383	3310
919.494	3488
919.604	3728
919.715	3469
919.826	3412
919.936	3481
920.047	3599
920.157	3538
920.267	3747
920.378	3545
920.488	3591
920.598	3778
920.708	3987
920.818	3816
920.928	3850
921.038	4010
921.148	4002
921.258	3740
921.368	3618
921.477	3557
921.587	3538
921.697	3473
921.806	3648
921.916	3519
922.025	3370
922.134	3359
922.244	3332
922.353	3443
922.462	3241
922.571	3245
922.68	3112
922.789	3066
922.898	3127
923.007	3127
923.116	3192
923.224	3176
923.333	3195
923.442	3123
923.55	3123
923.659	3127
923.767	3195
923.876	3127
923.984	3249
924.092	3116
924.201	3211
924.309	3222
924.417	3214
924.525	3188
924.633	3214
924.741	4116
924.849	3066
924.956	3298
925.064	3100
925.172	3039
925.279	3097
925.387	3230
925.494	3176
925.602	3348
925.709	3329
925.816	3203
925.924	3253
926.031	3412
926.138	3321
926.245	3374
926.352	3249
926.459	3405
926.566	3454
926.673	3340
926.779	3230
926.886	3233
926.993	3169
927.099	3135
927.206	3112
927.312	3112
927.419	3214
927.525	3230
927.631	3260
927.737	3135
927.843	3138
927.95	2998
928.056	3116
928.162	3161
928.267	3226
928.373	3831
928.479	3359
928.585	3001
928.69	3237
928.796	3287
928.901	3195
929.007	3039
929.112	3230
929.218	3199
929.323	3180
929.428	3150
929.533	3317
929.638	3116
929.743	3176
929.848	3275
929.953	3180
930.058	3123
930.163	3001
930.267	3001
930.372	3176
930.477	3062
930.581	3329
930.685	3176
930.79	3074
930.894	3097
930.998	3089
931.103	3260
931.207	2960
931.311	2948
931.415	2914
931.519	2746
931.623	2849
