Data from test_V78500241_1472.txt Node
Date: Fri Mar 25 16:25:24 CST 2022
User: usil
Spectrometer: V785-0024
Trigger mode: 0
Integration Time (sec): 4.000000E-1
Scans to average: 1
Nonlinearity correction enabled: false
Boxcar width: 0
Storing dark spectrum: false
XAxis mode: Wavelengths
Number of Pixels in Spectrum: 1024
>>>>>Begin Spectral Data<<<<<
801.071	2891
801.214	2963
801.356	2857
801.499	2914
801.641	2868
801.783	2918
801.926	3074
802.068	3009
802.211	3009
802.353	3055
802.496	2922
802.638	3005
802.78	3028
802.923	3070
803.065	2986
803.208	2826
803.35	2929
803.492	2880
803.635	2944
803.777	2743
803.919	2853
804.061	3203
804.204	2971
804.346	2887
804.488	2857
804.63	3005
804.773	2887
804.915	2910
805.057	3089
805.199	2979
805.341	2975
805.483	3039
805.626	3001
805.768	2944
805.91	3093
806.052	3081
806.194	3020
806.336	3245
806.478	3024
806.62	2952
806.762	2963
806.904	3077
807.046	3188
807.188	3039
807.33	2895
807.472	3020
807.614	2933
807.756	2998
807.898	2925
808.04	2914
808.182	2998
808.324	2944
808.465	2906
808.607	2906
808.749	2811
808.891	2853
809.033	2986
809.174	2960
809.316	2880
809.458	2902
809.6	2762
809.741	2781
809.883	2769
810.025	2861
810.166	2830
810.308	2826
810.45	2861
810.591	2762
810.733	2746
810.875	2834
811.016	2766
811.158	2727
811.299	2819
811.441	2937
811.582	2891
811.724	2807
811.865	2830
812.007	2948
812.148	2910
812.29	2815
812.431	2902
812.573	2941
812.714	2990
812.855	3039
812.997	3062
813.138	3138
813.279	3070
813.421	3005
813.562	2998
813.703	2906
813.845	2899
813.986	2804
814.127	2743
814.268	2838
814.41	2853
814.551	2819
814.692	2861
814.833	2834
814.974	2872
815.115	2971
815.256	2819
815.397	2811
815.539	2842
815.68	2823
815.821	2800
815.962	2956
816.103	2914
816.244	2899
816.385	2857
816.526	2956
816.666	2899
816.807	2758
816.948	2914
817.089	2910
817.23	2876
817.371	2807
817.512	2826
817.653	2830
817.793	2857
817.934	2891
818.075	3013
818.216	2990
818.356	3020
818.497	2872
818.638	2800
818.778	2788
818.919	2830
819.06	2769
819.2	2876
819.341	2785
819.481	2800
819.622	2952
819.762	3081
819.903	3009
820.043	2933
820.184	2880
820.324	2883
820.465	3028
820.605	3020
820.746	3020
820.886	2971
821.026	3104
821.167	3161
821.307	3256
821.447	3283
821.588	3222
821.728	3245
821.868	3203
822.008	3036
822.149	3169
822.289	3230
822.429	3097
822.569	3066
822.709	3173
822.849	3009
822.99	3081
823.13	3173
823.27	3195
823.41	3131
823.55	3161
823.69	3131
823.83	3142
823.97	3097
824.11	2994
824.25	3001
824.389	3070
824.529	3138
824.669	3089
824.809	3214
824.949	3264
825.089	3211
825.228	3165
825.368	3009
825.508	2990
825.648	2990
825.787	3013
825.927	3032
826.067	2998
826.206	2944
826.346	3036
826.485	3051
826.625	3097
826.765	3264
826.904	3192
827.044	2971
827.183	2941
827.323	2830
827.462	3020
827.601	2906
827.741	2963
827.88	2956
828.02	2864
828.159	3017
828.298	3062
828.437	3112
828.577	3093
828.716	3253
828.855	3058
828.994	2929
829.134	2891
829.273	2918
829.412	2868
829.551	2853
829.69	2899
829.829	2933
829.968	3108
830.107	3032
830.246	3039
830.385	2918
830.524	2872
830.663	2796
830.802	2743
830.941	2667
831.08	2655
831.219	2785
831.357	2754
831.496	2948
831.635	2678
831.774	2655
831.913	2674
832.051	2533
832.19	2602
832.329	2686
832.467	2530
832.606	2503
832.744	2602
832.883	2552
833.022	2537
833.16	2651
833.299	2659
833.437	2678
833.576	2731
833.714	2735
833.852	2739
833.991	2796
834.129	2842
834.267	2819
834.406	2792
834.544	2823
834.682	2845
834.821	2845
834.959	3081
835.097	2876
835.235	3062
835.373	2994
835.511	3013
835.65	2944
835.788	2979
835.926	2823
836.064	2800
836.202	2838
836.34	3104
836.478	3154
836.615	3074
836.753	3116
836.891	3233
837.029	3165
837.167	3108
837.305	3097
837.443	3036
837.58	2922
837.718	3112
837.856	3097
837.993	2994
838.131	3138
838.269	3135
838.406	3108
838.544	3066
838.681	2918
838.819	2906
838.956	2826
839.094	2819
839.231	2925
839.369	3070
839.506	3393
839.643	3192
839.781	3017
839.918	2963
840.055	3058
840.193	3036
840.33	3051
840.467	3077
840.604	3131
840.742	3416
840.879	3043
841.016	3017
841.153	3131
841.29	3351
841.427	3272
841.564	3241
841.701	3253
841.838	3214
841.975	3192
842.112	3211
842.249	3043
842.385	3036
842.522	3272
842.659	3055
842.796	3051
842.933	3119
843.069	3047
843.206	3009
843.343	3188
843.479	3131
843.616	3176
843.752	2887
843.889	2891
844.025	3100
844.162	2906
844.298	3043
844.435	2956
844.571	2906
844.708	3081
844.844	3184
844.98	3237
845.117	3165
845.253	3047
845.389	2990
845.525	3070
845.661	3097
845.798	2994
845.934	3146
846.07	3051
846.206	3230
846.342	3306
846.478	3218
846.614	3066
846.75	3032
846.886	3028
847.022	3211
847.158	3119
847.294	3188
847.429	3230
847.565	3192
847.701	3485
847.837	3032
847.972	2998
848.108	3138
848.244	3154
848.379	2941
848.515	2922
848.65	2925
848.786	2994
848.921	3024
849.057	3157
849.192	3157
849.328	3119
849.463	3138
849.598	3036
849.734	3005
849.869	2971
850.004	2891
850.14	2960
850.275	2876
850.41	2849
850.545	2906
850.68	2899
850.815	2948
850.95	2960
851.085	3180
851.22	3097
851.355	3009
851.49	2986
851.625	3013
851.76	3001
851.895	2929
852.03	2887
852.165	3036
852.299	3135
852.434	3150
852.569	3157
852.703	3161
852.838	3237
852.973	3332
853.107	3321
853.242	3142
853.376	3108
853.511	3001
853.645	3032
853.78	3207
853.914	3119
854.048	3157
854.183	3104
854.317	3146
854.451	3279
854.585	3116
854.72	3081
854.854	3188
854.988	3066
855.122	3036
855.256	2979
855.39	3123
855.524	3249
855.658	3207
855.792	3195
855.926	3192
856.06	3218
856.194	3245
856.327	3142
856.461	3074
856.595	3055
856.729	3066
856.862	3222
856.996	3188
857.13	3150
857.263	3218
857.397	3275
857.53	3150
857.664	3199
857.797	3256
857.931	3245
858.064	3157
858.197	3211
858.331	3119
858.464	3089
858.597	2998
858.731	3108
858.864	3089
858.997	3039
859.13	3154
859.263	3169
859.396	3203
859.529	3108
859.662	3100
859.795	3062
859.928	3150
860.061	3245
860.194	3298
860.327	3116
860.46	3085
860.592	3287
860.725	3211
860.858	3253
860.99	3070
861.123	3043
861.256	3047
861.388	3199
861.521	3876
861.653	3005
861.786	2990
861.918	2998
862.05	3047
862.183	3127
862.315	3150
862.447	3184
862.58	3097
862.712	2956
862.844	2861
862.976	3005
863.108	3020
863.24	3321
863.372	2876
863.504	2971
863.636	2944
863.768	3032
863.9	3009
864.032	2906
864.164	2937
864.296	2982
864.428	3131
864.559	3089
864.691	3097
864.823	3051
864.954	3028
865.086	3017
865.217	3017
865.349	2922
865.48	2937
865.612	3028
865.743	3154
865.875	2986
866.006	2956
866.137	3009
866.269	2956
866.4	2963
866.531	2902
866.662	2883
866.793	2895
866.924	2876
867.055	2960
867.186	2933
867.317	2876
867.448	2864
867.579	2823
867.71	2845
867.841	2830
867.972	2929
868.103	2868
868.233	2895
868.364	2861
868.495	2857
868.625	3085
868.756	3165
868.886	2994
869.017	3036
869.147	3184
869.278	3161
869.408	3104
869.539	2990
869.669	3070
869.799	3039
869.929	3173
870.06	3104
870.19	3325
870.32	3272
870.45	3291
870.58	3355
870.71	3420
870.84	3447
870.97	3317
871.1	3214
871.23	3504
871.36	3428
871.489	3325
871.619	3397
871.749	3382
871.879	3443
872.008	3454
872.138	3359
872.267	3268
872.397	3173
872.526	3093
872.656	3039
872.785	3112
872.915	3233
873.044	3306
873.173	3180
873.303	3260
873.432	3211
873.561	3245
873.69	3119
873.819	3154
873.948	3188
874.077	3093
874.206	3043
874.335	3085
874.464	3192
874.593	3317
874.722	3287
874.851	3355
874.979	3332
875.108	3306
875.237	3207
875.365	3199
875.494	3131
875.623	3256
875.751	3081
875.88	3074
876.008	3180
876.136	3218
876.265	3378
876.393	3507
876.521	3458
876.65	3420
876.778	3370
876.906	3241
877.034	3199
877.162	3188
877.29	3180
877.418	3268
877.546	3237
877.674	3241
877.802	3233
877.93	3241
878.058	3176
878.185	3089
878.313	3222
878.441	3195
878.568	3074
878.696	3138
878.824	3233
878.951	3294
879.079	3454
879.206	3633
879.333	3428
879.461	3321
879.588	3389
879.715	3515
879.842	3584
879.97	3397
880.097	3180
880.224	3127
880.351	3188
880.478	3207
880.605	3192
880.732	3169
880.859	3424
880.986	3298
881.112	3302
881.239	3195
881.366	3055
881.493	3047
881.619	3017
881.746	3055
881.872	3089
881.999	3070
882.125	3123
882.252	3253
882.378	3268
882.505	3443
882.631	3253
882.757	3150
882.883	3207
883.01	3237
883.136	3100
883.262	3085
883.388	3081
883.514	3332
883.64	3363
883.766	3283
883.892	3154
884.018	3245
884.143	3450
884.269	3553
884.395	3173
884.52	3127
884.646	3165
884.772	3112
884.897	3131
885.023	3222
885.148	3325
885.274	3435
885.399	3409
885.524	3256
885.65	3287
885.775	3287
885.9	3264
886.025	3450
886.15	3359
886.275	3306
886.4	3222
886.525	3317
886.65	3294
886.775	3302
886.9	3496
887.025	3644
887.149	3424
887.274	3230
887.399	3173
887.523	3237
887.648	3146
887.773	3207
887.897	3359
888.021	3412
888.146	3283
888.27	3458
888.395	3545
888.519	3454
888.643	3439
888.767	3500
888.891	3294
889.015	3233
889.139	3317
889.263	3218
889.387	3428
889.511	3511
889.635	3450
889.759	3310
889.883	3256
890.006	3374
890.13	3504
890.254	3253
890.377	3340
890.501	3207
890.624	3203
890.748	3253
890.871	3161
890.995	3127
891.118	3043
891.241	3157
891.364	3230
891.488	3306
891.611	3195
891.734	3272
891.857	3317
891.98	3218
892.103	3344
892.226	3310
892.349	3188
892.471	3116
892.594	3237
892.717	3291
892.839	3249
892.962	3275
893.085	3329
893.207	3253
893.33	3119
893.452	3237
893.575	3348
893.697	3245
893.819	3462
893.941	3511
894.064	3466
894.186	3294
894.308	3275
894.43	3439
894.552	3568
894.674	3492
894.796	3298
894.918	3294
895.04	3272
895.161	3401
895.283	3374
895.405	3321
895.526	3378
895.648	3405
895.769	3450
895.891	3466
896.012	3462
896.134	3473
896.255	3386
896.376	3348
896.498	3344
896.619	3439
896.74	3325
896.861	3382
896.982	3690
897.103	3861
897.224	3606
897.345	3519
897.466	3428
897.587	3511
897.708	3629
897.828	3584
897.949	3454
898.07	3313
898.19	3409
898.311	3549
898.431	3458
898.552	3507
898.672	3587
898.792	3568
898.913	3515
899.033	3412
899.153	3298
899.273	3237
899.393	3294
899.513	3294
899.633	3332
899.753	3317
899.873	3275
899.993	3336
900.113	3351
900.232	3382
900.352	3306
900.472	3249
900.591	3203
900.711	3325
900.83	3272
900.95	3428
901.069	3515
901.189	3340
901.308	3157
901.427	3119
901.546	3180
901.665	3249
901.784	3306
901.904	3199
902.023	3127
902.141	3017
902.26	3013
902.379	3127
902.498	3097
902.617	3093
902.735	3180
902.854	3264
902.973	3199
903.091	3017
903.21	3058
903.328	3123
903.446	3097
903.565	3093
903.683	3207
903.801	3169
903.919	3226
904.038	3291
904.156	3195
904.274	3272
904.392	3214
904.51	3283
904.627	3336
904.745	3443
904.863	3481
904.981	3253
905.098	3176
905.216	3260
905.334	3294
905.451	3325
905.569	3298
905.686	3450
905.803	3416
905.921	3272
906.038	3443
906.155	3329
906.272	3291
906.389	3355
906.506	3233
906.623	3195
906.74	3287
906.857	3184
906.974	3241
907.091	3405
907.208	3530
907.324	3447
907.441	3363
907.557	3203
907.674	3249
907.79	3214
907.907	3264
908.023	3367
908.139	3389
908.256	3302
908.372	3348
908.488	3321
908.604	3241
908.72	3230
908.836	3279
908.952	3260
909.068	3313
909.184	3447
909.3	3359
909.415	3481
909.531	3477
909.647	3268
909.762	3302
909.878	3233
909.993	3332
910.108	3321
910.224	3348
910.339	3370
910.454	3325
910.57	3260
910.685	3237
910.8	3591
910.915	3530
911.03	3443
911.145	3283
911.259	3272
911.374	3283
911.489	3226
911.604	3214
911.718	3146
911.833	3150
911.947	3020
912.062	2979
912.176	3165
912.291	3173
912.405	3207
912.519	3397
912.633	3447
912.748	3340
912.862	3253
912.976	3138
913.09	3039
913.204	3165
913.318	3214
913.431	3332
913.545	3287
913.659	3409
913.772	3321
913.886	3218
914	3237
914.113	3348
914.226	3428
914.34	3378
914.453	3203
914.566	3409
914.68	3264
914.793	3291
914.906	3180
915.019	3081
915.132	3108
915.245	3154
915.358	3195
915.47	3211
915.583	3260
915.696	3249
915.809	3370
915.921	3416
916.034	3272
916.146	3256
916.259	3233
916.371	3420
916.483	3332
916.595	3268
916.708	3363
916.82	3351
916.932	3313
917.044	3367
917.156	3348
917.268	3272
917.38	3272
917.491	3245
917.603	3370
917.715	3458
917.826	3443
917.938	3367
918.049	3283
918.161	3389
918.272	3561
918.384	3557
918.495	3469
918.606	3325
918.717	3260
918.828	3389
918.939	3428
919.05	3321
919.161	3367
919.272	3184
919.383	3298
919.494	3458
919.604	3648
919.715	3530
919.826	3420
919.936	3458
920.047	3618
920.157	3549
920.267	3770
920.378	3603
920.488	3587
920.598	3751
920.708	3956
920.818	3819
920.928	3884
921.038	4025
921.148	4002
921.258	3705
921.368	3625
921.477	3599
921.587	3542
921.697	3458
921.806	3603
921.916	3500
922.025	3310
922.134	3348
922.244	3363
922.353	3409
922.462	3268
922.571	3211
922.68	3085
922.789	3066
922.898	3104
923.007	3089
923.116	3222
923.224	3214
923.333	3176
923.442	3093
923.55	3074
923.659	3150
923.767	3173
923.876	3123
923.984	3222
924.092	3093
924.201	3184
924.309	3203
924.417	3245
924.525	3195
924.633	3218
924.741	4211
924.849	3013
924.956	3268
925.064	3085
925.172	3062
925.279	3070
925.387	3188
925.494	3203
925.602	3325
925.709	3313
925.816	3214
925.924	3260
926.031	3351
926.138	3306
926.245	3344
926.352	3233
926.459	3420
926.566	3473
926.673	3329
926.779	3211
926.886	3256
926.993	3169
927.099	3116
927.206	3093
927.312	3093
927.419	3218
927.525	3195
927.631	3287
927.737	3127
927.843	3131
927.95	3013
928.056	3093
928.162	3184
928.267	3256
928.373	3793
928.479	3344
928.585	3039
928.69	3207
928.796	3268
928.901	3142
929.007	2998
929.112	3165
929.218	3138
929.323	3157
929.428	3123
929.533	3291
929.638	3119
929.743	3146
929.848	3237
929.953	3203
930.058	3116
930.163	2975
930.267	3039
930.372	3203
930.477	3009
930.581	3321
930.685	3180
930.79	3066
930.894	3108
930.998	3116
931.103	3302
931.207	2967
931.311	2960
931.415	2929
931.519	2750
931.623	2826
