Data from test_V78500241_1466.txt Node
Date: Fri Mar 25 16:25:21 CST 2022
User: usil
Spectrometer: V785-0024
Trigger mode: 0
Integration Time (sec): 4.000000E-1
Scans to average: 1
Nonlinearity correction enabled: false
Boxcar width: 0
Storing dark spectrum: false
XAxis mode: Wavelengths
Number of Pixels in Spectrum: 1024
>>>>>Begin Spectral Data<<<<<
801.071	2914
801.214	2925
801.356	2876
801.499	2899
801.641	2899
801.783	2937
801.926	3055
802.068	2990
802.211	3005
802.353	3028
802.496	2933
802.638	3001
802.78	3009
802.923	3104
803.065	3001
803.208	2925
803.35	2902
803.492	2929
803.635	2933
803.777	2743
803.919	2861
804.061	3184
804.204	2971
804.346	2937
804.488	2872
804.63	2963
804.773	2864
804.915	2906
805.057	3081
805.199	2933
805.341	2975
805.483	3058
805.626	2998
805.768	2941
805.91	3089
806.052	3097
806.194	3032
806.336	3256
806.478	3005
806.62	2952
806.762	2979
806.904	3020
807.046	3154
807.188	2994
807.33	2925
807.472	2979
807.614	2910
807.756	3009
807.898	2910
808.04	2899
808.182	3005
808.324	2933
808.465	2891
808.607	2834
808.749	2800
808.891	2815
809.033	2982
809.174	2971
809.316	2876
809.458	2914
809.6	2743
809.741	2735
809.883	2769
810.025	2838
810.166	2838
810.308	2823
810.45	2864
810.591	2762
810.733	2773
810.875	2819
811.016	2762
811.158	2739
811.299	2819
811.441	2902
811.582	2880
811.724	2773
811.865	2800
812.007	2941
812.148	2891
812.29	2826
812.431	2887
812.573	2960
812.714	2967
812.855	3024
812.997	3009
813.138	3108
813.279	2982
813.421	2986
813.562	2952
813.703	2819
813.845	2922
813.986	2788
814.127	2727
814.268	2800
814.41	2796
814.551	2830
814.692	2872
814.833	2807
814.974	2880
815.115	2933
815.256	2815
815.397	2792
815.539	2868
815.68	2807
815.821	2804
815.962	2944
816.103	2914
816.244	2895
816.385	2861
816.526	2929
816.666	2895
816.807	2743
816.948	2842
817.089	2906
817.23	2861
817.371	2746
817.512	2777
817.653	2804
817.793	2823
817.934	2857
818.075	2952
818.216	2990
818.356	3001
818.497	2887
818.638	2750
818.778	2815
818.919	2781
819.06	2773
819.2	2899
819.341	2788
819.481	2788
819.622	2914
819.762	3077
819.903	3058
820.043	2918
820.184	2883
820.324	2887
820.465	2986
820.605	2986
820.746	3005
820.886	2933
821.026	3081
821.167	3127
821.307	3245
821.447	3260
821.588	3253
821.728	3222
821.868	3199
822.008	3066
822.149	3169
822.289	3203
822.429	3055
822.569	3074
822.709	3180
822.849	3043
822.99	3043
823.13	3154
823.27	3192
823.41	3070
823.55	3070
823.69	3123
823.83	3184
823.97	3077
824.11	2990
824.25	2963
824.389	3043
824.529	3104
824.669	3066
824.809	3211
824.949	3249
825.089	3165
825.228	3154
825.368	2990
825.508	2918
825.648	2967
825.787	3001
825.927	3009
826.067	2986
826.206	3009
826.346	3028
826.485	3055
826.625	3089
826.765	3214
826.904	3188
827.044	2952
827.183	2914
827.323	2864
827.462	2975
827.601	2906
827.741	2891
827.88	2948
828.02	2842
828.159	2979
828.298	3047
828.437	3142
828.577	3055
828.716	3268
828.855	3066
828.994	2864
829.134	2883
829.273	2948
829.412	2880
829.551	2819
829.69	2891
829.829	2967
829.968	3116
830.107	3020
830.246	3009
830.385	2952
830.524	2883
830.663	2834
830.802	2769
830.941	2663
831.08	2674
831.219	2781
831.357	2762
831.496	2944
831.635	2731
831.774	2632
831.913	2640
832.051	2545
832.19	2564
832.329	2655
832.467	2526
832.606	2499
832.744	2587
832.883	2587
833.022	2617
833.16	2667
833.299	2670
833.437	2712
833.576	2689
833.714	2701
833.852	2735
833.991	2746
834.129	2842
834.267	2804
834.406	2807
834.544	2853
834.682	2853
834.821	2861
834.959	3036
835.097	2891
835.235	3077
835.373	2994
835.511	2990
835.65	2967
835.788	2929
835.926	2792
836.064	2800
836.202	2845
836.34	3081
836.478	3154
836.615	3032
836.753	3123
836.891	3214
837.029	3154
837.167	3097
837.305	3074
837.443	3020
837.58	2948
837.718	3070
837.856	3036
837.993	3039
838.131	3131
838.269	3119
838.406	3108
838.544	3081
838.681	2960
838.819	2918
838.956	2785
839.094	2804
839.231	2906
839.369	2982
839.506	3340
839.643	3188
839.781	3028
839.918	2960
840.055	3036
840.193	3047
840.33	3066
840.467	3051
840.604	3188
840.742	3397
840.879	3051
841.016	3047
841.153	3093
841.29	3332
841.427	3291
841.564	3264
841.701	3332
841.838	3173
841.975	3169
842.112	3218
842.249	3093
842.385	3017
842.522	3233
842.659	3100
842.796	3097
842.933	3089
843.069	3020
843.206	3032
843.343	3199
843.479	3074
843.616	3150
843.752	2902
843.889	2845
844.025	3074
844.162	2861
844.298	3077
844.435	2982
844.571	2922
844.708	3097
844.844	3184
844.98	3214
845.117	3142
845.253	3032
845.389	2967
845.525	3119
845.661	3119
845.798	3001
845.934	3123
846.07	3005
846.206	3203
846.342	3351
846.478	3211
846.614	3085
846.75	3066
846.886	3001
847.022	3233
847.158	3119
847.294	3165
847.429	3230
847.565	3241
847.701	3462
847.837	3009
847.972	2986
848.108	3131
848.244	3142
848.379	2986
848.515	2922
848.65	2899
848.786	2979
848.921	2963
849.057	3112
849.192	3146
849.328	3070
849.463	3112
849.598	3047
849.734	3055
849.869	2967
850.004	2883
850.14	2986
850.275	2883
850.41	2838
850.545	2872
850.68	2937
850.815	2933
850.95	2941
851.085	3184
851.22	3089
851.355	3024
851.49	3001
851.625	2960
851.76	2982
851.895	2929
852.03	2891
852.165	2975
852.299	3142
852.434	3173
852.569	3184
852.703	3142
852.838	3226
852.973	3332
853.107	3313
853.242	3150
853.376	3074
853.511	3001
853.645	3043
853.78	3203
853.914	3116
854.048	3043
854.183	3077
854.317	3135
854.451	3291
854.585	3150
854.72	3043
854.854	3173
854.988	3085
855.122	3093
855.256	2979
855.39	3104
855.524	3230
855.658	3157
855.792	3169
855.926	3199
856.06	3256
856.194	3226
856.327	3135
856.461	3085
856.595	3097
856.729	3085
856.862	3192
856.996	3100
857.13	3184
857.263	3199
857.397	3306
857.53	3112
857.664	3165
857.797	3214
857.931	3218
858.064	3127
858.197	3192
858.331	3112
858.464	3066
858.597	3017
858.731	3116
858.864	3062
858.997	3077
859.13	3138
859.263	3135
859.396	3207
859.529	3070
859.662	3089
859.795	3077
859.928	3123
860.061	3253
860.194	3272
860.327	3119
860.46	3074
860.592	3241
860.725	3218
860.858	3230
860.99	3077
861.123	3055
861.256	3077
861.388	3127
861.521	3846
861.653	3032
861.786	2975
861.918	2971
862.05	3036
862.183	3081
862.315	3131
862.447	3207
862.58	3070
862.712	2948
862.844	2861
862.976	3001
863.108	3032
863.24	3279
863.372	2857
863.504	2929
863.636	2933
863.768	3005
863.9	2960
864.032	2864
864.164	2933
864.296	3001
864.428	3074
864.559	3070
864.691	3062
864.823	3062
864.954	3005
865.086	3047
865.217	2982
865.349	2937
865.48	2963
865.612	3001
865.743	3142
865.875	2979
866.006	2975
866.137	2922
866.269	2937
866.4	2925
866.531	2918
866.662	2861
866.793	2906
866.924	2853
867.055	2922
867.186	2883
867.317	2868
867.448	2845
867.579	2845
867.71	2834
867.841	2811
867.972	2902
868.103	2914
868.233	2845
868.364	2902
868.495	2876
868.625	3058
868.756	3161
868.886	2933
869.017	3005
869.147	3173
869.278	3154
869.408	3062
869.539	2998
869.669	3074
869.799	3005
869.929	3157
870.06	3085
870.19	3283
870.32	3245
870.45	3283
870.58	3382
870.71	3397
870.84	3473
870.97	3264
871.1	3211
871.23	3428
871.36	3416
871.489	3329
871.619	3348
871.749	3405
871.879	3454
872.008	3477
872.138	3355
872.267	3233
872.397	3157
872.526	3081
872.656	3013
872.785	3112
872.915	3222
873.044	3272
873.173	3211
873.303	3241
873.432	3230
873.561	3207
873.69	3173
873.819	3165
873.948	3169
874.077	3104
874.206	3028
874.335	3104
874.464	3195
874.593	3306
874.722	3218
874.851	3397
874.979	3317
875.108	3306
875.237	3195
875.365	3161
875.494	3154
875.623	3237
875.751	3062
875.88	3119
876.008	3169
876.136	3222
876.265	3348
876.393	3469
876.521	3416
876.65	3351
876.778	3329
876.906	3245
877.034	3176
877.162	3226
877.29	3154
877.418	3275
877.546	3226
877.674	3253
877.802	3253
877.93	3211
878.058	3127
878.185	3100
878.313	3203
878.441	3169
878.568	3070
878.696	3135
878.824	3264
878.951	3287
879.079	3428
879.206	3603
879.333	3389
879.461	3287
879.588	3332
879.715	3477
879.842	3595
879.97	3367
880.097	3127
880.224	3112
880.351	3165
880.478	3176
880.605	3184
880.732	3192
880.859	3507
880.986	3264
881.112	3329
881.239	3214
881.366	3055
881.493	3024
881.619	3028
881.746	3077
881.872	3074
881.999	3112
882.125	3150
882.252	3199
882.378	3272
882.505	3378
882.631	3298
882.757	3161
882.883	3207
883.01	3226
883.136	3116
883.262	3070
883.388	3131
883.514	3264
883.64	3367
883.766	3283
883.892	3150
884.018	3214
884.143	3367
884.269	3473
884.395	3184
884.52	3127
884.646	3188
884.772	3112
884.897	3108
885.023	3192
885.148	3363
885.274	3416
885.399	3389
885.524	3272
885.65	3256
885.775	3291
885.9	3291
886.025	3412
886.15	3374
886.275	3287
886.4	3233
886.525	3287
886.65	3291
886.775	3287
886.9	3500
887.025	3641
887.149	3389
887.274	3279
887.399	3214
887.523	3207
887.648	3192
887.773	3222
887.897	3359
888.021	3405
888.146	3317
888.27	3435
888.395	3561
888.519	3462
888.643	3462
888.767	3492
888.891	3306
889.015	3283
889.139	3310
889.263	3287
889.387	3439
889.511	3545
889.635	3462
889.759	3306
889.883	3336
890.006	3428
890.13	3515
890.254	3313
890.377	3370
890.501	3211
890.624	3192
890.748	3310
890.871	3195
890.995	3142
891.118	3119
891.241	3226
891.364	3222
891.488	3389
891.611	3180
891.734	3233
891.857	3306
891.98	3279
892.103	3355
892.226	3332
892.349	3283
892.471	3180
892.594	3249
892.717	3340
892.839	3306
892.962	3325
893.085	3393
893.207	3363
893.33	3161
893.452	3264
893.575	3348
893.697	3298
893.819	3534
893.941	3542
894.064	3519
894.186	3256
894.308	3291
894.43	3466
894.552	3549
894.674	3469
894.796	3313
894.918	3321
895.04	3321
895.161	3412
895.283	3405
895.405	3344
895.526	3428
895.648	3473
895.769	3450
895.891	3454
896.012	3519
896.134	3504
896.255	3477
896.376	3393
896.498	3443
896.619	3412
896.74	3409
896.861	3469
896.982	3747
897.103	3854
897.224	3633
897.345	3572
897.466	3473
897.587	3507
897.708	3625
897.828	3557
897.949	3500
898.07	3378
898.19	3447
898.311	3622
898.431	3526
898.552	3534
898.672	3610
898.792	3580
898.913	3492
899.033	3420
899.153	3344
899.273	3233
899.393	3382
899.513	3348
899.633	3336
899.753	3370
899.873	3302
899.993	3378
900.113	3363
900.232	3431
900.352	3348
900.472	3321
900.591	3230
900.711	3291
900.83	3287
900.95	3435
901.069	3511
901.189	3363
901.308	3169
901.427	3135
901.546	3176
901.665	3294
901.784	3401
901.904	3233
902.023	3180
902.141	3047
902.26	3047
902.379	3165
902.498	3119
902.617	3081
902.735	3245
902.854	3214
902.973	3226
903.091	3081
903.21	3070
903.328	3116
903.446	3161
903.565	3104
903.683	3188
903.801	3150
903.919	3279
904.038	3336
904.156	3173
904.274	3302
904.392	3272
904.51	3317
904.627	3336
904.745	3450
904.863	3530
904.981	3294
905.098	3233
905.216	3245
905.334	3294
905.451	3321
905.569	3355
905.686	3469
905.803	3450
905.921	3291
906.038	3485
906.155	3370
906.272	3344
906.389	3329
906.506	3275
906.623	3272
906.74	3272
906.857	3218
906.974	3283
907.091	3450
907.208	3603
907.324	3545
907.441	3393
907.557	3268
907.674	3279
907.79	3233
907.907	3306
908.023	3420
908.139	3382
908.256	3370
908.372	3401
908.488	3428
908.604	3313
908.72	3241
908.836	3340
908.952	3317
909.068	3348
909.184	3507
909.3	3416
909.415	3507
909.531	3488
909.647	3283
909.762	3283
909.878	3237
909.993	3355
910.108	3374
910.224	3348
910.339	3443
910.454	3336
910.57	3283
910.685	3245
910.8	3614
910.915	3591
911.03	3477
911.145	3302
911.259	3336
911.374	3325
911.489	3253
911.604	3241
911.718	3146
911.833	3173
911.947	3146
912.062	3058
912.176	3226
912.291	3211
912.405	3245
912.519	3496
912.633	3485
912.748	3348
912.862	3321
912.976	3176
913.09	3089
913.204	3169
913.318	3260
913.431	3344
913.545	3382
913.659	3416
913.772	3367
913.886	3253
914	3218
914.113	3386
914.226	3435
914.34	3374
914.453	3233
914.566	3401
914.68	3313
914.793	3351
914.906	3207
915.019	3150
915.132	3074
915.245	3199
915.358	3199
915.47	3256
915.583	3279
915.696	3325
915.809	3443
915.921	3485
916.034	3249
916.146	3272
916.259	3256
916.371	3378
916.483	3405
916.595	3298
916.708	3382
916.82	3382
916.932	3370
917.044	3382
917.156	3355
917.268	3272
917.38	3344
917.491	3317
917.603	3405
917.715	3466
917.826	3500
917.938	3382
918.049	3329
918.161	3435
918.272	3610
918.384	3576
918.495	3519
918.606	3374
918.717	3325
918.828	3405
918.939	3409
919.05	3355
919.161	3382
919.272	3199
919.383	3359
919.494	3572
919.604	3698
919.715	3488
919.826	3454
919.936	3481
920.047	3622
920.157	3568
920.267	3766
920.378	3591
920.488	3606
920.598	3797
920.708	3991
920.818	3857
920.928	3861
921.038	4010
921.148	4013
921.258	3724
921.368	3641
921.477	3576
921.587	3557
921.697	3534
921.806	3614
921.916	3488
922.025	3363
922.134	3386
922.244	3344
922.353	3443
922.462	3302
922.571	3272
922.68	3119
922.789	3116
922.898	3180
923.007	3100
923.116	3222
923.224	3230
923.333	3222
923.442	3108
923.55	3131
923.659	3169
923.767	3253
923.876	3146
923.984	3237
924.092	3146
924.201	3253
924.309	3207
924.417	3302
924.525	3195
924.633	3264
924.741	4181
924.849	3081
924.956	3268
925.064	3097
925.172	3062
925.279	3146
925.387	3218
925.494	3230
925.602	3359
925.709	3325
925.816	3195
925.924	3332
926.031	3412
926.138	3359
926.245	3420
926.352	3253
926.459	3443
926.566	3492
926.673	3351
926.779	3237
926.886	3272
926.993	3173
927.099	3157
927.206	3116
927.312	3154
927.419	3249
927.525	3218
927.631	3332
927.737	3192
927.843	3066
927.95	3013
928.056	3180
928.162	3203
928.267	3275
928.373	3762
928.479	3329
928.585	3077
928.69	3237
928.796	3306
928.901	3199
929.007	3081
929.112	3233
929.218	3203
929.323	3180
929.428	3203
929.533	3359
929.638	3150
929.743	3211
929.848	3287
929.953	3222
930.058	3188
930.163	3009
930.267	3093
930.372	3195
930.477	3020
930.581	3363
930.685	3188
930.79	3066
930.894	3138
930.998	3127
931.103	3321
931.207	2956
931.311	2982
931.415	2929
931.519	2830
931.623	2796
