Data from test_V78500241_868.txt Node
Date: Fri Mar 25 16:21:12 CST 2022
User: usil
Spectrometer: V785-0024
Trigger mode: 0
Integration Time (sec): 4.000000E-1
Scans to average: 1
Nonlinearity correction enabled: false
Boxcar width: 0
Storing dark spectrum: false
XAxis mode: Wavelengths
Number of Pixels in Spectrum: 1024
>>>>>Begin Spectral Data<<<<<
801.071	2948
801.214	2971
801.356	2887
801.499	2925
801.641	2845
801.783	2914
801.926	3085
802.068	3005
802.211	3055
802.353	3058
802.496	3005
802.638	3013
802.78	3058
802.923	3085
803.065	3013
803.208	2872
803.35	2941
803.492	2971
803.635	2902
803.777	2785
803.919	2872
804.061	3188
804.204	2937
804.346	2948
804.488	2838
804.63	2986
804.773	2918
804.915	2937
805.057	3112
805.199	2937
805.341	2982
805.483	3051
805.626	3047
805.768	2982
805.91	3116
806.052	3119
806.194	3058
806.336	3226
806.478	3051
806.62	2967
806.762	3013
806.904	3100
807.046	3142
807.188	2998
807.33	2956
807.472	2994
807.614	2906
807.756	3062
807.898	2956
808.04	2918
808.182	2982
808.324	2971
808.465	2906
808.607	2883
808.749	2788
808.891	2876
809.033	2975
809.174	2982
809.316	2922
809.458	2910
809.6	2792
809.741	2830
809.883	2792
810.025	2845
810.166	2929
810.308	2826
810.45	2876
810.591	2800
810.733	2807
810.875	2819
811.016	2781
811.158	2724
811.299	2815
811.441	2952
811.582	2918
811.724	2830
811.865	2849
812.007	2910
812.148	2906
812.29	2857
812.431	2891
812.573	2952
812.714	3036
812.855	3051
812.997	3093
813.138	3131
813.279	3047
813.421	2963
813.562	2937
813.703	2868
813.845	2891
813.986	2807
814.127	2731
814.268	2804
814.41	2834
814.551	2815
814.692	2861
814.833	2857
814.974	2902
815.115	2986
815.256	2830
815.397	2842
815.539	2849
815.68	2796
815.821	2807
815.962	2941
816.103	2952
816.244	2925
816.385	2849
816.526	3009
816.666	2887
816.807	2758
816.948	2910
817.089	2937
817.23	2883
817.371	2807
817.512	2804
817.653	2849
817.793	2861
817.934	2891
818.075	2948
818.216	2998
818.356	3043
818.497	2872
818.638	2777
818.778	2830
818.919	2796
819.06	2777
819.2	2872
819.341	2826
819.481	2804
819.622	2975
819.762	3123
819.903	3043
820.043	2948
820.184	2910
820.324	2922
820.465	3036
820.605	2994
820.746	3039
820.886	2963
821.026	3108
821.167	3165
821.307	3256
821.447	3298
821.588	3279
821.728	3207
821.868	3192
822.008	3093
822.149	3195
822.289	3233
822.429	3085
822.569	3070
822.709	3161
822.849	3047
822.99	3028
823.13	3180
823.27	3173
823.41	3081
823.55	3199
823.69	3127
823.83	3199
823.97	3127
824.11	3017
824.25	3009
824.389	3077
824.529	3100
824.669	3066
824.809	3192
824.949	3245
825.089	3256
825.228	3138
825.368	3013
825.508	2998
825.648	2960
825.787	3055
825.927	2998
826.067	2990
826.206	2937
826.346	3062
826.485	3089
826.625	3112
826.765	3268
826.904	3188
827.044	3039
827.183	2929
827.323	2838
827.462	2952
827.601	2914
827.741	2937
827.88	2982
828.02	2887
828.159	2975
828.298	3036
828.437	3131
828.577	3066
828.716	3237
828.855	3093
828.994	2933
829.134	2906
829.273	2933
829.412	2868
829.551	2883
829.69	2864
829.829	2975
829.968	3161
830.107	3017
830.246	3039
830.385	2918
830.524	2899
830.663	2826
830.802	2735
830.941	2636
831.08	2629
831.219	2750
831.357	2777
831.496	2982
831.635	2743
831.774	2655
831.913	2667
832.051	2579
832.19	2602
832.329	2743
832.467	2545
832.606	2503
832.744	2602
832.883	2610
833.022	2564
833.16	2648
833.299	2674
833.437	2689
833.576	2724
833.714	2754
833.852	2743
833.991	2773
834.129	2842
834.267	2823
834.406	2781
834.544	2845
834.682	2895
834.821	2853
834.959	3062
835.097	2891
835.235	3047
835.373	3001
835.511	3062
835.65	2994
835.788	2922
835.926	2849
836.064	2807
836.202	2819
836.34	3112
836.478	3169
836.615	3043
836.753	3123
836.891	3192
837.029	3176
837.167	3119
837.305	3066
837.443	3036
837.58	2963
837.718	3127
837.856	3070
837.993	3020
838.131	3135
838.269	3097
838.406	3100
838.544	3112
838.681	2975
838.819	2937
838.956	2800
839.094	2842
839.231	2937
839.369	3009
839.506	3370
839.643	3188
839.781	3036
839.918	2990
840.055	3055
840.193	3036
840.33	3093
840.467	3119
840.604	3165
840.742	3405
840.879	3055
841.016	3058
841.153	3108
841.29	3389
841.427	3291
841.564	3233
841.701	3287
841.838	3222
841.975	3161
842.112	3249
842.249	3047
842.385	3058
842.522	3291
842.659	3047
842.796	3047
842.933	3138
843.069	3062
843.206	3074
843.343	3173
843.479	3112
843.616	3146
843.752	2891
843.889	2872
844.025	3070
844.162	2864
844.298	3093
844.435	2941
844.571	2933
844.708	3070
844.844	3203
844.98	3222
845.117	3173
845.253	3077
845.389	3005
845.525	3093
845.661	3085
845.798	3017
845.934	3161
846.07	3055
846.206	3207
846.342	3332
846.478	3253
846.614	3135
846.75	3062
846.886	3058
847.022	3199
847.158	3146
847.294	3230
847.429	3256
847.565	3207
847.701	3450
847.837	3047
847.972	3005
848.108	3157
848.244	3146
848.379	3005
848.515	2937
848.65	2918
848.786	2975
848.921	3005
849.057	3116
849.192	3154
849.328	3047
849.463	3127
849.598	3062
849.734	3028
849.869	2982
850.004	2902
850.14	2975
850.275	2933
850.41	2853
850.545	2868
850.68	2902
850.815	2975
850.95	2948
851.085	3195
851.22	3131
851.355	3020
851.49	2982
851.625	3001
851.76	3009
851.895	2952
852.03	2910
852.165	3017
852.299	3138
852.434	3173
852.569	3150
852.703	3138
852.838	3260
852.973	3367
853.107	3291
853.242	3131
853.376	3089
853.511	2967
853.645	3032
853.78	3226
853.914	3154
854.048	3097
854.183	3081
854.317	3146
854.451	3256
854.585	3150
854.72	3100
854.854	3214
854.988	3043
855.122	3089
855.256	2967
855.39	3104
855.524	3214
855.658	3211
855.792	3142
855.926	3180
856.06	3180
856.194	3256
856.327	3127
856.461	3077
856.595	3043
856.729	3085
856.862	3184
856.996	3169
857.13	3184
857.263	3169
857.397	3275
857.53	3127
857.664	3188
857.797	3245
857.931	3207
858.064	3123
858.197	3184
858.331	3146
858.464	3100
858.597	2975
858.731	3138
858.864	3112
858.997	3104
859.13	3135
859.263	3138
859.396	3157
859.529	3077
859.662	3085
859.795	2994
859.928	3142
860.061	3253
860.194	3268
860.327	3150
860.46	3070
860.592	3218
860.725	3241
860.858	3256
860.99	3112
861.123	3039
861.256	3017
861.388	3131
861.521	3831
861.653	3028
861.786	2982
861.918	2967
862.05	3032
862.183	3123
862.315	3154
862.447	3211
862.58	3077
862.712	2944
862.844	2891
862.976	3013
863.108	2944
863.24	3351
863.372	2887
863.504	2963
863.636	2937
863.768	2982
863.9	2960
864.032	2910
864.164	2952
864.296	3020
864.428	3066
864.559	3100
864.691	3062
864.823	3058
864.954	3066
865.086	3066
865.217	2998
865.349	2956
865.48	2960
865.612	3062
865.743	3161
865.875	2979
866.006	2929
866.137	2975
866.269	2933
866.4	2952
866.531	2914
866.662	2857
866.793	2906
866.924	2933
867.055	2979
867.186	2906
867.317	2864
867.448	2883
867.579	2826
867.71	2857
867.841	2823
867.972	2899
868.103	2941
868.233	2880
868.364	2864
868.495	2899
868.625	3062
868.756	3169
868.886	2941
869.017	3020
869.147	3161
869.278	3157
869.408	3024
869.539	3005
869.669	3104
869.799	3081
869.929	3119
870.06	3116
870.19	3340
870.32	3260
870.45	3313
870.58	3382
870.71	3431
870.84	3462
870.97	3264
871.1	3222
871.23	3485
871.36	3447
871.489	3359
871.619	3393
871.749	3416
871.879	3473
872.008	3507
872.138	3367
872.267	3245
872.397	3173
872.526	3104
872.656	3009
872.785	3097
872.915	3233
873.044	3351
873.173	3188
873.303	3211
873.432	3241
873.561	3245
873.69	3161
873.819	3150
873.948	3195
874.077	3077
874.206	3047
874.335	3074
874.464	3203
874.593	3332
874.722	3192
874.851	3374
874.979	3336
875.108	3313
875.237	3199
875.365	3138
875.494	3142
875.623	3291
875.751	3093
875.88	3108
876.008	3184
876.136	3233
876.265	3367
876.393	3473
876.521	3447
876.65	3382
876.778	3344
876.906	3237
877.034	3218
877.162	3249
877.29	3180
877.418	3241
877.546	3226
877.674	3230
877.802	3256
877.93	3222
878.058	3142
878.185	3074
878.313	3192
878.441	3199
878.568	3062
878.696	3188
878.824	3253
878.951	3332
879.079	3412
879.206	3614
879.333	3485
879.461	3321
879.588	3344
879.715	3473
879.842	3595
879.97	3397
880.097	3161
880.224	3127
880.351	3195
880.478	3173
880.605	3165
880.732	3218
880.859	3481
880.986	3279
881.112	3355
881.239	3214
881.366	3108
881.493	3009
881.619	2979
881.746	3032
881.872	3077
881.999	3100
882.125	3116
882.252	3237
882.378	3272
882.505	3412
882.631	3279
882.757	3112
882.883	3233
883.01	3195
883.136	3165
883.262	3062
883.388	3116
883.514	3302
883.64	3363
883.766	3283
883.892	3161
884.018	3260
884.143	3386
884.269	3504
884.395	3226
884.52	3131
884.646	3146
884.772	3119
884.897	3108
885.023	3195
885.148	3317
885.274	3389
885.399	3359
885.524	3291
885.65	3260
885.775	3329
885.9	3275
886.025	3401
886.15	3348
886.275	3272
886.4	3214
886.525	3302
886.65	3272
886.775	3279
886.9	3488
887.025	3637
887.149	3348
887.274	3249
887.399	3192
887.523	3214
887.648	3180
887.773	3176
887.897	3348
888.021	3401
888.146	3268
888.27	3450
888.395	3534
888.519	3443
888.643	3454
888.767	3481
888.891	3302
889.015	3222
889.139	3321
889.263	3241
889.387	3405
889.511	3564
889.635	3428
889.759	3279
889.883	3279
890.006	3374
890.13	3469
890.254	3264
890.377	3336
890.501	3211
890.624	3173
890.748	3287
890.871	3180
890.995	3138
891.118	3043
891.241	3176
891.364	3245
891.488	3313
891.611	3188
891.734	3207
891.857	3237
891.98	3256
892.103	3332
892.226	3317
892.349	3207
892.471	3123
892.594	3226
892.717	3275
892.839	3241
892.962	3272
893.085	3355
893.207	3260
893.33	3192
893.452	3184
893.575	3363
893.697	3226
893.819	3458
893.941	3485
894.064	3431
894.186	3275
894.308	3256
894.43	3454
894.552	3542
894.674	3454
894.796	3275
894.918	3302
895.04	3291
895.161	3458
895.283	3393
895.405	3321
895.526	3348
895.648	3412
895.769	3386
895.891	3462
896.012	3466
896.134	3454
896.255	3401
896.376	3389
896.498	3355
896.619	3420
896.74	3374
896.861	3416
896.982	3686
897.103	3861
897.224	3584
897.345	3496
897.466	3466
897.587	3523
897.708	3603
897.828	3561
897.949	3393
898.07	3344
898.19	3439
898.311	3587
898.431	3439
898.552	3515
898.672	3545
898.792	3572
898.913	3507
899.033	3409
899.153	3302
899.273	3184
899.393	3317
899.513	3306
899.633	3332
899.753	3325
899.873	3344
899.993	3336
900.113	3275
900.232	3401
900.352	3367
900.472	3279
900.591	3214
900.711	3279
900.83	3260
900.95	3416
901.069	3519
901.189	3336
901.308	3184
901.427	3112
901.546	3222
901.665	3241
901.784	3325
901.904	3169
902.023	3154
902.141	3028
902.26	2994
902.379	3112
902.498	3085
902.617	3066
902.735	3176
902.854	3218
902.973	3180
903.091	3066
903.21	3051
903.328	3161
903.446	3100
903.565	3116
903.683	3218
903.801	3093
903.919	3237
904.038	3291
904.156	3142
904.274	3294
904.392	3275
904.51	3291
904.627	3317
904.745	3435
904.863	3492
904.981	3272
905.098	3165
905.216	3233
905.334	3283
905.451	3298
905.569	3302
905.686	3416
905.803	3466
905.921	3287
906.038	3416
906.155	3359
906.272	3268
906.389	3344
906.506	3237
906.623	3253
906.74	3302
906.857	3226
906.974	3260
907.091	3443
907.208	3568
907.324	3447
907.441	3397
907.557	3260
907.674	3230
907.79	3218
907.907	3283
908.023	3397
908.139	3370
908.256	3317
908.372	3363
908.488	3336
908.604	3249
908.72	3218
908.836	3298
908.952	3256
909.068	3374
909.184	3488
909.3	3378
909.415	3466
909.531	3458
909.647	3253
909.762	3260
909.878	3275
909.993	3313
910.108	3306
910.224	3332
910.339	3431
910.454	3321
910.57	3306
910.685	3226
910.8	3549
910.915	3526
911.03	3439
911.145	3287
911.259	3272
911.374	3306
911.489	3283
911.604	3245
911.718	3093
911.833	3146
911.947	3028
912.062	2971
912.176	3131
912.291	3188
912.405	3245
912.519	3435
912.633	3443
912.748	3260
912.862	3222
912.976	3184
913.09	3055
913.204	3173
913.318	3203
913.431	3325
913.545	3340
913.659	3405
913.772	3332
913.886	3245
914	3199
914.113	3367
914.226	3420
914.34	3370
914.453	3188
914.566	3397
914.68	3302
914.793	3321
914.906	3116
915.019	3089
915.132	3062
915.245	3195
915.358	3199
915.47	3260
915.583	3249
915.696	3283
915.809	3458
915.921	3416
916.034	3264
916.146	3226
916.259	3207
916.371	3389
916.483	3348
916.595	3306
916.708	3344
916.82	3340
916.932	3344
917.044	3351
917.156	3370
917.268	3241
917.38	3313
917.491	3306
917.603	3389
917.715	3443
917.826	3454
917.938	3374
918.049	3260
918.161	3428
918.272	3618
918.384	3549
918.495	3485
918.606	3336
918.717	3268
918.828	3370
918.939	3416
919.05	3359
919.161	3374
919.272	3173
919.383	3298
919.494	3496
919.604	3701
919.715	3538
919.826	3424
919.936	3462
920.047	3603
920.157	3549
920.267	3732
920.378	3625
920.488	3568
920.598	3793
920.708	3937
920.818	3797
920.928	3857
921.038	4017
921.148	4002
921.258	3724
921.368	3618
921.477	3564
921.587	3553
921.697	3458
921.806	3652
921.916	3534
922.025	3370
922.134	3336
922.244	3283
922.353	3397
922.462	3264
922.571	3214
922.68	3062
922.789	3127
922.898	3161
923.007	3085
923.116	3192
923.224	3176
923.333	3207
923.442	3100
923.55	3055
923.659	3150
923.767	3226
923.876	3127
923.984	3211
924.092	3123
924.201	3173
924.309	3253
924.417	3245
924.525	3214
924.633	3230
924.741	4162
924.849	3070
924.956	3279
925.064	3089
925.172	3005
925.279	3108
925.387	3161
925.494	3230
925.602	3340
925.709	3287
925.816	3180
925.924	3294
926.031	3359
926.138	3332
926.245	3374
926.352	3222
926.459	3401
926.566	3481
926.673	3348
926.779	3241
926.886	3253
926.993	3154
927.099	3135
927.206	3135
927.312	3116
927.419	3237
927.525	3207
927.631	3275
927.737	3116
927.843	3161
927.95	2998
928.056	3157
928.162	3180
928.267	3253
928.373	3781
928.479	3294
928.585	3036
928.69	3230
928.796	3306
928.901	3157
929.007	3051
929.112	3233
929.218	3211
929.323	3146
929.428	3165
929.533	3310
929.638	3142
929.743	3146
929.848	3298
929.953	3218
930.058	3214
930.163	2982
930.267	3074
930.372	3154
930.477	3051
930.581	3348
930.685	3222
930.79	3081
930.894	3112
930.998	3093
931.103	3268
931.207	2933
931.311	2952
931.415	2883
931.519	2766
931.623	2796
