Data from test_V78500241_2054.txt Node
Date: Fri Mar 25 16:29:25 CST 2022
User: usil
Spectrometer: V785-0024
Trigger mode: 0
Integration Time (sec): 4.000000E-1
Scans to average: 1
Nonlinearity correction enabled: false
Boxcar width: 0
Storing dark spectrum: false
XAxis mode: Wavelengths
Number of Pixels in Spectrum: 1024
>>>>>Begin Spectral Data<<<<<
801.071	2918
801.214	2944
801.356	2902
801.499	2887
801.641	2864
801.783	2929
801.926	3001
802.068	2956
802.211	2975
802.353	3020
802.496	2967
802.638	3005
802.78	3043
802.923	3055
803.065	3024
803.208	2906
803.35	2906
803.492	2952
803.635	2922
803.777	2777
803.919	2868
804.061	3176
804.204	2925
804.346	2914
804.488	2857
804.63	2975
804.773	2914
804.915	2887
805.057	3097
805.199	2922
805.341	2963
805.483	3032
805.626	2986
805.768	2952
805.91	3074
806.052	3085
806.194	3024
806.336	3233
806.478	3043
806.62	2982
806.762	2986
806.904	3081
807.046	3169
807.188	2979
807.33	2895
807.472	3036
807.614	2906
807.756	2990
807.898	2914
808.04	2891
808.182	2922
808.324	2925
808.465	2902
808.607	2853
808.749	2804
808.891	2853
809.033	2967
809.174	2994
809.316	2895
809.458	2880
809.6	2777
809.741	2746
809.883	2754
810.025	2857
810.166	2830
810.308	2864
810.45	2845
810.591	2777
810.733	2750
810.875	2834
811.016	2781
811.158	2750
811.299	2796
811.441	2910
811.582	2918
811.724	2830
811.865	2842
812.007	2918
812.148	2872
812.29	2815
812.431	2910
812.573	2933
812.714	2944
812.855	3020
812.997	3017
813.138	3131
813.279	3001
813.421	2998
813.562	2963
813.703	2895
813.845	2925
813.986	2807
814.127	2720
814.268	2819
814.41	2834
814.551	2834
814.692	2880
814.833	2838
814.974	2906
815.115	2948
815.256	2849
815.397	2800
815.539	2883
815.68	2785
815.821	2785
815.962	2925
816.103	2933
816.244	2906
816.385	2842
816.526	2971
816.666	2929
816.807	2735
816.948	2914
817.089	2880
817.23	2838
817.371	2807
817.512	2800
817.653	2819
817.793	2826
817.934	2880
818.075	2967
818.216	2967
818.356	3005
818.497	2876
818.638	2758
818.778	2842
818.919	2819
819.06	2758
819.2	2902
819.341	2800
819.481	2826
819.622	2910
819.762	3104
819.903	3036
820.043	2910
820.184	2880
820.324	2906
820.465	3032
820.605	3005
820.746	3028
820.886	2929
821.026	3085
821.167	3176
821.307	3241
821.447	3302
821.588	3241
821.728	3211
821.868	3188
822.008	3070
822.149	3138
822.289	3245
822.429	3100
822.569	3081
822.709	3180
822.849	3005
822.99	3116
823.13	3211
823.27	3241
823.41	3055
823.55	3116
823.69	3142
823.83	3207
823.97	3081
824.11	3001
824.25	2990
824.389	3074
824.529	3119
824.669	3070
824.809	3207
824.949	3226
825.089	3218
825.228	3150
825.368	2990
825.508	2948
825.648	2998
825.787	3001
825.927	3001
826.067	2975
826.206	2937
826.346	3055
826.485	3070
826.625	3119
826.765	3211
826.904	3218
827.044	2975
827.183	2906
827.323	2861
827.462	3005
827.601	2922
827.741	2914
827.88	2914
828.02	2838
828.159	2986
828.298	3028
828.437	3104
828.577	3043
828.716	3233
828.855	3036
828.994	2899
829.134	2910
829.273	2929
829.412	2868
829.551	2868
829.69	2910
829.829	2971
829.968	3100
830.107	3009
830.246	3009
830.385	2895
830.524	2845
830.663	2788
830.802	2746
830.941	2644
831.08	2625
831.219	2750
831.357	2777
831.496	2929
831.635	2693
831.774	2629
831.913	2651
832.051	2530
832.19	2556
832.329	2716
832.467	2560
832.606	2457
832.744	2564
832.883	2579
833.022	2556
833.16	2648
833.299	2659
833.437	2655
833.576	2678
833.714	2720
833.852	2766
833.991	2735
834.129	2864
834.267	2834
834.406	2815
834.544	2887
834.682	2887
834.821	2880
834.959	3039
835.097	2895
835.235	3043
835.373	2990
835.511	3013
835.65	2971
835.788	2975
835.926	2830
836.064	2796
836.202	2849
836.34	3097
836.478	3127
836.615	3043
836.753	3138
836.891	3226
837.029	3146
837.167	3131
837.305	3036
837.443	3032
837.58	2975
837.718	3100
837.856	3020
837.993	3062
838.131	3119
838.269	3093
838.406	3097
838.544	3108
838.681	2979
838.819	2895
838.956	2842
839.094	2838
839.231	2899
839.369	2998
839.506	3363
839.643	3230
839.781	3005
839.918	2956
840.055	3032
840.193	3036
840.33	3081
840.467	3077
840.604	3154
840.742	3386
840.879	3055
841.016	3062
841.153	3097
841.29	3332
841.427	3298
841.564	3264
841.701	3264
841.838	3241
841.975	3138
842.112	3161
842.249	3100
842.385	3043
842.522	3272
842.659	3055
842.796	3051
842.933	3119
843.069	3013
843.206	3097
843.343	3188
843.479	3127
843.616	3127
843.752	2895
843.889	2872
844.025	3062
844.162	2857
844.298	3062
844.435	2979
844.571	2925
844.708	3036
844.844	3203
844.98	3218
845.117	3195
845.253	3039
845.389	3017
845.525	3116
845.661	3089
845.798	3013
845.934	3127
846.07	3077
846.206	3226
846.342	3302
846.478	3237
846.614	3093
846.75	3001
846.886	3013
847.022	3173
847.158	3135
847.294	3184
847.429	3245
847.565	3161
847.701	3458
847.837	3039
847.972	2986
848.108	3157
848.244	3154
848.379	2990
848.515	2922
848.65	2918
848.786	2933
848.921	3032
849.057	3116
849.192	3131
849.328	3089
849.463	3085
849.598	3055
849.734	3032
849.869	2971
850.004	2948
850.14	2937
850.275	2967
850.41	2834
850.545	2872
850.68	2944
850.815	2937
850.95	2971
851.085	3154
851.22	3085
851.355	3055
851.49	2948
851.625	3017
851.76	2998
851.895	2952
852.03	2895
852.165	3024
852.299	3104
852.434	3203
852.569	3146
852.703	3150
852.838	3245
852.973	3336
853.107	3313
853.242	3146
853.376	3112
853.511	2960
853.645	3036
853.78	3222
853.914	3119
854.048	3097
854.183	3097
854.317	3119
854.451	3287
854.585	3131
854.72	3074
854.854	3192
854.988	3028
855.122	3081
855.256	2944
855.39	3142
855.524	3233
855.658	3154
855.792	3154
855.926	3169
856.06	3176
856.194	3230
856.327	3138
856.461	3039
856.595	3055
856.729	3074
856.862	3222
856.996	3146
857.13	3154
857.263	3222
857.397	3283
857.53	3116
857.664	3180
857.797	3214
857.931	3275
858.064	3119
858.197	3203
858.331	3131
858.464	3089
858.597	2979
858.731	3104
858.864	3146
858.997	3081
859.13	3127
859.263	3138
859.396	3195
859.529	3062
859.662	3074
859.795	3043
859.928	3127
860.061	3275
860.194	3294
860.327	3116
860.46	3119
860.592	3222
860.725	3226
860.858	3241
860.99	3085
861.123	3058
861.256	3066
861.388	3146
861.521	3873
861.653	3005
861.786	3009
861.918	3001
862.05	3058
862.183	3077
862.315	3150
862.447	3184
862.58	3070
862.712	2925
862.844	2857
862.976	3032
863.108	2979
863.24	3329
863.372	2857
863.504	2971
863.636	2960
863.768	3024
863.9	2952
864.032	2902
864.164	2933
864.296	2982
864.428	3074
864.559	3081
864.691	3062
864.823	3058
864.954	3032
865.086	3005
865.217	2971
865.349	2994
865.48	2986
865.612	3020
865.743	3184
865.875	2979
866.006	2933
866.137	2918
866.269	2910
866.4	2952
866.531	2914
866.662	2880
866.793	2895
866.924	2906
867.055	2910
867.186	2929
867.317	2880
867.448	2853
867.579	2849
867.71	2834
867.841	2769
867.972	2902
868.103	2918
868.233	2876
868.364	2887
868.495	2922
868.625	3074
868.756	3146
868.886	2975
869.017	3020
869.147	3154
869.278	3195
869.408	3036
869.539	3043
869.669	3077
869.799	3047
869.929	3119
870.06	3123
870.19	3287
870.32	3310
870.45	3291
870.58	3409
870.71	3431
870.84	3477
870.97	3329
871.1	3214
871.23	3485
871.36	3450
871.489	3332
871.619	3382
871.749	3462
871.879	3428
872.008	3488
872.138	3313
872.267	3275
872.397	3135
872.526	3093
872.656	3005
872.785	3081
872.915	3218
873.044	3313
873.173	3207
873.303	3233
873.432	3222
873.561	3211
873.69	3173
873.819	3127
873.948	3211
874.077	3093
874.206	3039
874.335	3108
874.464	3207
874.593	3325
874.722	3245
874.851	3386
874.979	3332
875.108	3294
875.237	3150
875.365	3180
875.494	3161
875.623	3249
875.751	3093
875.88	3081
876.008	3184
876.136	3199
876.265	3374
876.393	3473
876.521	3405
876.65	3393
876.778	3302
876.906	3230
877.034	3218
877.162	3256
877.29	3157
877.418	3298
877.546	3245
877.674	3256
877.802	3245
877.93	3241
878.058	3146
878.185	3097
878.313	3226
878.441	3218
878.568	3104
878.696	3146
878.824	3253
878.951	3291
879.079	3412
879.206	3584
879.333	3420
879.461	3317
879.588	3332
879.715	3454
879.842	3580
879.97	3351
880.097	3161
880.224	3100
880.351	3218
880.478	3218
880.605	3192
880.732	3188
880.859	3515
880.986	3294
881.112	3332
881.239	3195
881.366	3108
881.493	3020
881.619	3017
881.746	3081
881.872	3066
881.999	3066
882.125	3180
882.252	3211
882.378	3298
882.505	3466
882.631	3264
882.757	3146
882.883	3207
883.01	3207
883.136	3150
883.262	3093
883.388	3150
883.514	3306
883.64	3359
883.766	3325
883.892	3188
884.018	3241
884.143	3389
884.269	3545
884.395	3176
884.52	3127
884.646	3192
884.772	3089
884.897	3112
885.023	3199
885.148	3313
885.274	3378
885.399	3359
885.524	3287
885.65	3249
885.775	3287
885.9	3268
886.025	3401
886.15	3332
886.275	3294
886.4	3253
886.525	3302
886.65	3298
886.775	3245
886.9	3458
887.025	3641
887.149	3374
887.274	3233
887.399	3173
887.523	3230
887.648	3165
887.773	3211
887.897	3340
888.021	3386
888.146	3275
888.27	3435
888.395	3545
888.519	3439
888.643	3431
888.767	3473
888.891	3313
889.015	3233
889.139	3283
889.263	3249
889.387	3412
889.511	3519
889.635	3439
889.759	3283
889.883	3294
890.006	3355
890.13	3393
890.254	3313
890.377	3313
890.501	3195
890.624	3195
890.748	3351
890.871	3154
890.995	3074
891.118	3051
891.241	3173
891.364	3214
891.488	3298
891.611	3180
891.734	3241
891.857	3249
891.98	3237
892.103	3291
892.226	3272
892.349	3203
892.471	3119
892.594	3203
892.717	3264
892.839	3283
892.962	3275
893.085	3336
893.207	3268
893.33	3161
893.452	3226
893.575	3332
893.697	3253
893.819	3439
893.941	3466
894.064	3435
894.186	3245
894.308	3233
894.43	3439
894.552	3549
894.674	3469
894.796	3272
894.918	3287
895.04	3294
895.161	3435
895.283	3370
895.405	3302
895.526	3370
895.648	3439
895.769	3447
895.891	3466
896.012	3500
896.134	3447
896.255	3397
896.376	3401
896.498	3310
896.619	3424
896.74	3378
896.861	3389
896.982	3648
897.103	3800
897.224	3576
897.345	3511
897.466	3458
897.587	3450
897.708	3599
897.828	3523
897.949	3386
898.07	3313
898.19	3382
898.311	3591
898.431	3431
898.552	3519
898.672	3625
898.792	3553
898.913	3519
899.033	3374
899.153	3291
899.273	3237
899.393	3222
899.513	3332
899.633	3264
899.753	3340
899.873	3283
899.993	3321
900.113	3302
900.232	3405
900.352	3310
900.472	3253
900.591	3233
900.711	3279
900.83	3237
900.95	3431
901.069	3507
901.189	3332
901.308	3199
901.427	3142
901.546	3180
901.665	3298
901.784	3310
901.904	3195
902.023	3154
902.141	3028
902.26	2979
902.379	3131
902.498	3070
902.617	3047
902.735	3184
902.854	3237
902.973	3188
903.091	3051
903.21	3089
903.328	3131
903.446	3100
903.565	3108
903.683	3188
903.801	3097
903.919	3256
904.038	3245
904.156	3150
904.274	3313
904.392	3233
904.51	3287
904.627	3302
904.745	3367
904.863	3466
904.981	3226
905.098	3192
905.216	3218
905.334	3264
905.451	3272
905.569	3325
905.686	3405
905.803	3401
905.921	3291
906.038	3409
906.155	3382
906.272	3298
906.389	3348
906.506	3260
906.623	3253
906.74	3260
906.857	3165
906.974	3233
907.091	3424
907.208	3534
907.324	3428
907.441	3374
907.557	3195
907.674	3195
907.79	3165
907.907	3294
908.023	3355
908.139	3378
908.256	3321
908.372	3382
908.488	3329
908.604	3272
908.72	3237
908.836	3256
908.952	3279
909.068	3367
909.184	3504
909.3	3386
909.415	3473
909.531	3469
909.647	3249
909.762	3275
909.878	3237
909.993	3351
910.108	3317
910.224	3332
910.339	3397
910.454	3340
910.57	3283
910.685	3233
910.8	3629
910.915	3545
911.03	3420
911.145	3245
911.259	3256
911.374	3355
911.489	3226
911.604	3249
911.718	3146
911.833	3127
911.947	2982
912.062	2994
912.176	3184
912.291	3169
912.405	3245
912.519	3393
912.633	3473
912.748	3332
912.862	3279
912.976	3157
913.09	3055
913.204	3135
913.318	3211
913.431	3355
913.545	3313
913.659	3420
913.772	3317
913.886	3245
914	3184
914.113	3291
914.226	3443
914.34	3370
914.453	3218
914.566	3416
914.68	3298
914.793	3329
914.906	3138
915.019	3081
915.132	3070
915.245	3195
915.358	3222
915.47	3203
915.583	3256
915.696	3348
915.809	3409
915.921	3405
916.034	3233
916.146	3260
916.259	3272
916.371	3348
916.483	3386
916.595	3306
916.708	3321
916.82	3325
916.932	3340
917.044	3340
917.156	3340
917.268	3226
917.38	3317
917.491	3291
917.603	3359
917.715	3454
917.826	3450
917.938	3405
918.049	3268
918.161	3428
918.272	3549
918.384	3568
918.495	3511
918.606	3310
918.717	3332
918.828	3370
918.939	3389
919.05	3272
919.161	3378
919.272	3211
919.383	3294
919.494	3515
919.604	3629
919.715	3526
919.826	3370
919.936	3454
920.047	3610
920.157	3561
920.267	3736
920.378	3591
920.488	3599
920.598	3793
920.708	3975
920.818	3804
920.928	3842
921.038	4010
921.148	4025
921.258	3690
921.368	3648
921.477	3549
921.587	3519
921.697	3443
921.806	3629
921.916	3515
922.025	3389
922.134	3367
922.244	3321
922.353	3439
922.462	3287
922.571	3256
922.68	3100
922.789	3058
922.898	3116
923.007	3062
923.116	3195
923.224	3169
923.333	3203
923.442	3077
923.55	3123
923.659	3142
923.767	3233
923.876	3066
923.984	3249
924.092	3074
924.201	3195
924.309	3195
924.417	3253
924.525	3165
924.633	3184
924.741	4185
924.849	3020
924.956	3249
925.064	3119
925.172	3036
925.279	3070
925.387	3184
925.494	3211
925.602	3367
925.709	3332
925.816	3161
925.924	3260
926.031	3405
926.138	3306
926.245	3370
926.352	3241
926.459	3412
926.566	3469
926.673	3340
926.779	3245
926.886	3188
926.993	3195
927.099	3135
927.206	3116
927.312	3085
927.419	3256
927.525	3161
927.631	3256
927.737	3127
927.843	3077
927.95	3039
928.056	3161
928.162	3180
928.267	3260
928.373	3831
928.479	3306
928.585	3081
928.69	3226
928.796	3313
928.901	3199
929.007	3028
929.112	3218
929.218	3146
929.323	3116
929.428	3112
929.533	3283
929.638	3097
929.743	3161
929.848	3233
929.953	3195
930.058	3146
930.163	2979
930.267	3062
930.372	3188
930.477	3036
930.581	3336
930.685	3184
930.79	3081
930.894	3112
930.998	3074
931.103	3298
931.207	2956
931.311	2937
931.415	2941
931.519	2807
931.623	2815
