Data from test_V78500241_256.txt Node
Date: Fri Mar 25 16:16:58 CST 2022
User: usil
Spectrometer: V785-0024
Trigger mode: 0
Integration Time (sec): 4.000000E-1
Scans to average: 1
Nonlinearity correction enabled: false
Boxcar width: 0
Storing dark spectrum: false
XAxis mode: Wavelengths
Number of Pixels in Spectrum: 1024
>>>>>Begin Spectral Data<<<<<
801.071	2956
801.214	2952
801.356	2880
801.499	2918
801.641	2952
801.783	2925
801.926	3100
802.068	3001
802.211	3017
802.353	3104
802.496	2994
802.638	3051
802.78	3074
802.923	3112
803.065	3024
803.208	2944
803.35	2956
803.492	2925
803.635	2952
803.777	2769
803.919	2891
804.061	3192
804.204	3005
804.346	2922
804.488	2830
804.63	3009
804.773	2895
804.915	2971
805.057	3062
805.199	2986
805.341	3001
805.483	3028
805.626	2998
805.768	2979
805.91	3081
806.052	3150
806.194	3089
806.336	3245
806.478	3043
806.62	2944
806.762	3017
806.904	3119
807.046	3173
807.188	3001
807.33	2937
807.472	3024
807.614	2925
807.756	3013
807.898	2929
808.04	2914
808.182	3032
808.324	2975
808.465	2952
808.607	2883
808.749	2807
808.891	2861
809.033	2998
809.174	2967
809.316	2918
809.458	2899
809.6	2823
809.741	2800
809.883	2800
810.025	2891
810.166	2883
810.308	2849
810.45	2868
810.591	2796
810.733	2815
810.875	2819
811.016	2773
811.158	2792
811.299	2815
811.441	2948
811.582	2922
811.724	2815
811.865	2868
812.007	2914
812.148	2883
812.29	2872
812.431	2895
812.573	2933
812.714	3020
812.855	3074
812.997	3093
813.138	3161
813.279	3020
813.421	2971
813.562	3009
813.703	2883
813.845	2906
813.986	2777
814.127	2739
814.268	2838
814.41	2830
814.551	2807
814.692	2891
814.833	2838
814.974	2937
815.115	2982
815.256	2849
815.397	2788
815.539	2864
815.68	2766
815.821	2807
815.962	2925
816.103	2918
816.244	2918
816.385	2899
816.526	2971
816.666	2925
816.807	2766
816.948	2876
817.089	2929
817.23	2857
817.371	2777
817.512	2815
817.653	2887
817.793	2838
817.934	2899
818.075	2948
818.216	3001
818.356	3039
818.497	2929
818.638	2800
818.778	2849
818.919	2815
819.06	2762
819.2	2906
819.341	2815
819.481	2815
819.622	2944
819.762	3081
819.903	3081
820.043	2918
820.184	2891
820.324	2918
820.465	3055
820.605	2986
820.746	3043
820.886	2910
821.026	3135
821.167	3138
821.307	3275
821.447	3283
821.588	3241
821.728	3192
821.868	3192
822.008	3108
822.149	3188
822.289	3264
822.429	3108
822.569	3112
822.709	3173
822.849	3047
822.99	3055
823.13	3161
823.27	3245
823.41	3112
823.55	3142
823.69	3165
823.83	3199
823.97	3112
824.11	3013
824.25	3005
824.389	3074
824.529	3157
824.669	3058
824.809	3199
824.949	3268
825.089	3203
825.228	3142
825.368	3062
825.508	2990
825.648	2971
825.787	3047
825.927	3009
826.067	2967
826.206	2975
826.346	3017
826.485	3085
826.625	3097
826.765	3279
826.904	3237
827.044	3005
827.183	2941
827.323	2883
827.462	3009
827.601	2918
827.741	2971
827.88	2994
828.02	2872
828.159	2960
828.298	3047
828.437	3085
828.577	3070
828.716	3249
828.855	3138
828.994	2914
829.134	2887
829.273	2929
829.412	2880
829.551	2883
829.69	2933
829.829	2971
829.968	3123
830.107	3005
830.246	3032
830.385	2922
830.524	2853
830.663	2823
830.802	2754
830.941	2636
831.08	2667
831.219	2746
831.357	2758
831.496	2967
831.635	2727
831.774	2670
831.913	2651
832.051	2598
832.19	2606
832.329	2689
832.467	2545
832.606	2446
832.744	2571
832.883	2556
833.022	2621
833.16	2640
833.299	2705
833.437	2705
833.576	2720
833.714	2750
833.852	2720
833.991	2807
834.129	2895
834.267	2842
834.406	2800
834.544	2910
834.682	2872
834.821	2887
834.959	3051
835.097	2891
835.235	3066
835.373	2979
835.511	3047
835.65	2967
835.788	2982
835.926	2849
836.064	2815
836.202	2872
836.34	3100
836.478	3161
836.615	3097
836.753	3142
836.891	3253
837.029	3180
837.167	3131
837.305	3104
837.443	3085
837.58	2933
837.718	3150
837.856	3047
837.993	3081
838.131	3150
838.269	3138
838.406	3116
838.544	3081
838.681	2960
838.819	2918
838.956	2811
839.094	2845
839.231	2929
839.369	3051
839.506	3393
839.643	3214
839.781	3036
839.918	2963
840.055	3051
840.193	3085
840.33	3047
840.467	3135
840.604	3154
840.742	3439
840.879	3043
841.016	3093
841.153	3150
841.29	3344
841.427	3321
841.564	3279
841.701	3294
841.838	3188
841.975	3214
842.112	3241
842.249	3112
842.385	3024
842.522	3275
842.659	3112
842.796	3051
842.933	3119
843.069	3051
843.206	3070
843.343	3203
843.479	3123
843.616	3112
843.752	2918
843.889	2910
844.025	3066
844.162	2895
844.298	3055
844.435	2956
844.571	2910
844.708	3070
844.844	3226
844.98	3211
845.117	3203
845.253	3074
845.389	3036
845.525	3089
845.661	3112
845.798	3020
845.934	3119
846.07	3097
846.206	3222
846.342	3332
846.478	3203
846.614	3142
846.75	3032
846.886	3036
847.022	3294
847.158	3123
847.294	3184
847.429	3253
847.565	3226
847.701	3496
847.837	3028
847.972	3020
848.108	3154
848.244	3146
848.379	2952
848.515	2979
848.65	2937
848.786	2975
848.921	3001
849.057	3119
849.192	3150
849.328	3070
849.463	3077
849.598	3077
849.734	3036
849.869	2982
850.004	2918
850.14	2941
850.275	2902
850.41	2834
850.545	2883
850.68	2925
850.815	2967
850.95	2971
851.085	3207
851.22	3074
851.355	3043
851.49	2975
851.625	2994
851.76	3020
851.895	2937
852.03	2933
852.165	3013
852.299	3104
852.434	3207
852.569	3135
852.703	3154
852.838	3249
852.973	3355
853.107	3298
853.242	3150
853.376	3093
853.511	2948
853.645	3024
853.78	3218
853.914	3135
854.048	3108
854.183	3116
854.317	3142
854.451	3256
854.585	3104
854.72	3051
854.854	3199
854.988	3047
855.122	3093
855.256	2982
855.39	3097
855.524	3272
855.658	3188
855.792	3142
855.926	3214
856.06	3207
856.194	3253
856.327	3180
856.461	3116
856.595	3116
856.729	3062
856.862	3218
856.996	3135
857.13	3222
857.263	3233
857.397	3321
857.53	3097
857.664	3203
857.797	3241
857.931	3268
858.064	3157
858.197	3222
858.331	3138
858.464	3089
858.597	2998
858.731	3104
858.864	3131
858.997	3135
859.13	3176
859.263	3157
859.396	3207
859.529	3081
859.662	3081
859.795	3043
859.928	3119
860.061	3291
860.194	3279
860.327	3135
860.46	3089
860.592	3260
860.725	3264
860.858	3268
860.99	3097
861.123	3062
861.256	3058
861.388	3127
861.521	3876
861.653	3020
861.786	3005
861.918	3009
862.05	3089
862.183	3089
862.315	3161
862.447	3199
862.58	3070
862.712	2937
862.844	2899
862.976	2982
863.108	2998
863.24	3325
863.372	2887
863.504	2994
863.636	2982
863.768	3005
863.9	2975
864.032	2929
864.164	2933
864.296	2994
864.428	3085
864.559	3100
864.691	3085
864.823	3047
864.954	3009
865.086	3032
865.217	2994
865.349	2952
865.48	2998
865.612	3005
865.743	3108
865.875	2994
866.006	2922
866.137	2975
866.269	2925
866.4	2925
866.531	2960
866.662	2944
866.793	2887
866.924	2933
867.055	2960
867.186	2937
867.317	2887
867.448	2857
867.579	2891
867.71	2861
867.841	2819
867.972	2933
868.103	2883
868.233	2895
868.364	2823
868.495	2929
868.625	3081
868.756	3157
868.886	2948
869.017	3028
869.147	3154
869.278	3150
869.408	3043
869.539	3032
869.669	3104
869.799	3055
869.929	3154
870.06	3138
870.19	3386
870.32	3275
870.45	3291
870.58	3420
870.71	3466
870.84	3458
870.97	3313
871.1	3306
871.23	3492
871.36	3466
871.489	3378
871.619	3458
871.749	3420
871.879	3424
872.008	3504
872.138	3363
872.267	3260
872.397	3165
872.526	3100
872.656	3005
872.785	3070
872.915	3264
873.044	3310
873.173	3173
873.303	3264
873.432	3203
873.561	3218
873.69	3146
873.819	3154
873.948	3203
874.077	3123
874.206	3055
874.335	3108
874.464	3203
874.593	3374
874.722	3253
874.851	3393
874.979	3389
875.108	3294
875.237	3188
875.365	3188
875.494	3161
875.623	3256
875.751	3081
875.88	3108
876.008	3188
876.136	3230
876.265	3393
876.393	3511
876.521	3443
876.65	3378
876.778	3313
876.906	3260
877.034	3253
877.162	3218
877.29	3203
877.418	3275
877.546	3264
877.674	3256
877.802	3283
877.93	3256
878.058	3161
878.185	3123
878.313	3192
878.441	3230
878.568	3104
878.696	3146
878.824	3249
878.951	3310
879.079	3428
879.206	3591
879.333	3473
879.461	3310
879.588	3367
879.715	3469
879.842	3595
879.97	3401
880.097	3214
880.224	3142
880.351	3222
880.478	3230
880.605	3211
880.732	3199
880.859	3481
880.986	3313
881.112	3287
881.239	3230
881.366	3131
881.493	3047
881.619	3009
881.746	3062
881.872	3089
881.999	3066
882.125	3161
882.252	3241
882.378	3291
882.505	3454
882.631	3302
882.757	3157
882.883	3241
883.01	3260
883.136	3154
883.262	3093
883.388	3104
883.514	3313
883.64	3386
883.766	3321
883.892	3222
884.018	3230
884.143	3412
884.269	3553
884.395	3180
884.52	3165
884.646	3218
884.772	3173
884.897	3100
885.023	3241
885.148	3313
885.274	3412
885.399	3325
885.524	3245
885.65	3283
885.775	3344
885.9	3317
886.025	3439
886.15	3348
886.275	3283
886.4	3260
886.525	3310
886.65	3256
886.775	3264
886.9	3507
887.025	3633
887.149	3386
887.274	3241
887.399	3199
887.523	3199
887.648	3165
887.773	3180
887.897	3363
888.021	3409
888.146	3279
888.27	3405
888.395	3523
888.519	3450
888.643	3435
888.767	3469
888.891	3287
889.015	3249
889.139	3272
889.263	3264
889.387	3348
889.511	3526
889.635	3412
889.759	3268
889.883	3294
890.006	3409
890.13	3477
890.254	3264
890.377	3367
890.501	3199
890.624	3199
890.748	3283
890.871	3173
890.995	3100
891.118	3055
891.241	3211
891.364	3218
891.488	3283
891.611	3188
891.734	3226
891.857	3302
891.98	3268
892.103	3351
892.226	3294
892.349	3218
892.471	3119
892.594	3214
892.717	3321
892.839	3268
892.962	3272
893.085	3363
893.207	3264
893.33	3176
893.452	3230
893.575	3336
893.697	3253
893.819	3454
893.941	3500
894.064	3466
894.186	3245
894.308	3253
894.43	3481
894.552	3538
894.674	3439
894.796	3275
894.918	3332
895.04	3310
895.161	3454
895.283	3389
895.405	3313
895.526	3389
895.648	3428
895.769	3431
895.891	3447
896.012	3462
896.134	3462
896.255	3477
896.376	3378
896.498	3332
896.619	3462
896.74	3393
896.861	3431
896.982	3694
897.103	3804
897.224	3591
897.345	3515
897.466	3431
897.587	3477
897.708	3618
897.828	3564
897.949	3469
898.07	3340
898.19	3435
898.311	3557
898.431	3435
898.552	3492
898.672	3603
898.792	3580
898.913	3519
899.033	3409
899.153	3302
899.273	3237
899.393	3272
899.513	3291
899.633	3325
899.753	3325
899.873	3310
899.993	3363
900.113	3340
900.232	3431
900.352	3321
900.472	3268
900.591	3211
900.711	3291
900.83	3249
900.95	3431
901.069	3515
901.189	3382
901.308	3184
901.427	3146
901.546	3173
901.665	3317
901.784	3351
901.904	3233
902.023	3135
902.141	3036
902.26	3028
902.379	3161
902.498	3074
902.617	3032
902.735	3184
902.854	3207
902.973	3180
903.091	3005
903.21	3077
903.328	3165
903.446	3093
903.565	3070
903.683	3203
903.801	3089
903.919	3272
904.038	3283
904.156	3173
904.274	3302
904.392	3226
904.51	3302
904.627	3367
904.745	3473
904.863	3523
904.981	3260
905.098	3173
905.216	3249
905.334	3317
905.451	3294
905.569	3348
905.686	3420
905.803	3420
905.921	3275
906.038	3382
906.155	3336
906.272	3268
906.389	3355
906.506	3241
906.623	3260
906.74	3268
906.857	3195
906.974	3302
907.091	3462
907.208	3576
907.324	3488
907.441	3374
907.557	3264
907.674	3272
907.79	3207
907.907	3279
908.023	3428
908.139	3363
908.256	3325
908.372	3397
908.488	3378
908.604	3256
908.72	3253
908.836	3272
908.952	3291
909.068	3325
909.184	3454
909.3	3401
909.415	3534
909.531	3469
909.647	3329
909.762	3336
909.878	3272
909.993	3355
910.108	3344
910.224	3348
910.339	3428
910.454	3336
910.57	3260
910.685	3302
910.8	3568
910.915	3561
911.03	3409
911.145	3268
911.259	3310
911.374	3298
911.489	3249
911.604	3218
911.718	3104
911.833	3154
911.947	3028
912.062	3001
912.176	3192
912.291	3203
912.405	3199
912.519	3450
912.633	3481
912.748	3298
912.862	3253
912.976	3184
913.09	3085
913.204	3146
913.318	3199
913.431	3344
913.545	3348
913.659	3420
913.772	3348
913.886	3195
914	3207
914.113	3351
914.226	3416
914.34	3424
914.453	3245
914.566	3405
914.68	3268
914.793	3321
914.906	3142
915.019	3131
915.132	3055
915.245	3184
915.358	3226
915.47	3214
915.583	3237
915.696	3332
915.809	3420
915.921	3397
916.034	3249
916.146	3260
916.259	3218
916.371	3401
916.483	3382
916.595	3264
916.708	3367
916.82	3313
916.932	3355
917.044	3340
917.156	3386
917.268	3287
917.38	3294
917.491	3310
917.603	3355
917.715	3488
917.826	3454
917.938	3344
918.049	3275
918.161	3454
918.272	3587
918.384	3580
918.495	3500
918.606	3355
918.717	3256
918.828	3351
918.939	3424
919.05	3336
919.161	3378
919.272	3184
919.383	3264
919.494	3492
919.604	3717
919.715	3481
919.826	3405
919.936	3481
920.047	3561
920.157	3534
920.267	3759
920.378	3595
920.488	3599
920.598	3800
920.708	3983
920.818	3865
920.928	3823
921.038	4044
921.148	3983
921.258	3705
921.368	3618
921.477	3591
921.587	3530
921.697	3458
921.806	3622
921.916	3557
922.025	3359
922.134	3393
922.244	3321
922.353	3424
922.462	3275
922.571	3294
922.68	3116
922.789	3097
922.898	3161
923.007	3081
923.116	3272
923.224	3169
923.333	3169
923.442	3116
923.55	3077
923.659	3157
923.767	3192
923.876	3112
923.984	3279
924.092	3108
924.201	3237
924.309	3226
924.417	3264
924.525	3203
924.633	3268
924.741	4177
924.849	3077
924.956	3294
925.064	3119
925.172	3058
925.279	3131
925.387	3188
925.494	3173
925.602	3378
925.709	3325
925.816	3157
925.924	3260
926.031	3351
926.138	3306
926.245	3412
926.352	3249
926.459	3424
926.566	3488
926.673	3306
926.779	3253
926.886	3260
926.993	3150
927.099	3142
927.206	3138
927.312	3135
927.419	3249
927.525	3199
927.631	3245
927.737	3161
927.843	3142
927.95	3055
928.056	3123
928.162	3184
928.267	3249
928.373	3865
928.479	3332
928.585	3074
928.69	3226
928.796	3260
928.901	3169
929.007	3062
929.112	3218
929.218	3173
929.323	3127
929.428	3150
929.533	3306
929.638	3123
929.743	3180
929.848	3199
929.953	3218
930.058	3127
930.163	3009
930.267	3047
930.372	3207
930.477	3043
930.581	3313
930.685	3184
930.79	3055
930.894	3123
930.998	3097
931.103	3329
931.207	2986
931.311	2944
931.415	2944
931.519	2773
931.623	2807
