Data from test_V78500241_1990.txt Node
Date: Fri Mar 25 16:28:59 CST 2022
User: usil
Spectrometer: V785-0024
Trigger mode: 0
Integration Time (sec): 4.000000E-1
Scans to average: 1
Nonlinearity correction enabled: false
Boxcar width: 0
Storing dark spectrum: false
XAxis mode: Wavelengths
Number of Pixels in Spectrum: 1024
>>>>>Begin Spectral Data<<<<<
801.071	2891
801.214	2952
801.356	2864
801.499	2872
801.641	2876
801.783	2925
801.926	3043
802.068	2990
802.211	2998
802.353	3017
802.496	2971
802.638	3020
802.78	3005
802.923	3089
803.065	3009
803.208	2883
803.35	2895
803.492	2872
803.635	2933
803.777	2762
803.919	2845
804.061	3199
804.204	2914
804.346	2883
804.488	2849
804.63	2994
804.773	2842
804.915	2918
805.057	3119
805.199	2902
805.341	2971
805.483	3024
805.626	2994
805.768	2929
805.91	3093
806.052	3138
806.194	3024
806.336	3226
806.478	3024
806.62	2971
806.762	2998
806.904	3062
807.046	3180
807.188	2967
807.33	2944
807.472	2975
807.614	2910
807.756	2998
807.898	2944
808.04	2895
808.182	3005
808.324	2914
808.465	2891
808.607	2872
808.749	2796
808.891	2804
809.033	2963
809.174	2975
809.316	2864
809.458	2876
809.6	2807
809.741	2758
809.883	2758
810.025	2853
810.166	2872
810.308	2864
810.45	2883
810.591	2766
810.733	2766
810.875	2826
811.016	2739
811.158	2766
811.299	2800
811.441	2929
811.582	2887
811.724	2796
811.865	2830
812.007	2902
812.148	2864
812.29	2872
812.431	2883
812.573	2952
812.714	2937
812.855	3036
812.997	3077
813.138	3112
813.279	2998
813.421	2963
813.562	2960
813.703	2876
813.845	2887
813.986	2754
814.127	2754
814.268	2815
814.41	2826
814.551	2819
814.692	2864
814.833	2849
814.974	2857
815.115	2941
815.256	2811
815.397	2823
815.539	2861
815.68	2792
815.821	2773
815.962	2925
816.103	2895
816.244	2857
816.385	2857
816.526	2929
816.666	2941
816.807	2754
816.948	2914
817.089	2925
817.23	2868
817.371	2804
817.512	2785
817.653	2845
817.793	2830
817.934	2887
818.075	2944
818.216	2986
818.356	3001
818.497	2880
818.638	2800
818.778	2819
818.919	2773
819.06	2758
819.2	2922
819.341	2800
819.481	2823
819.622	2956
819.762	3138
819.903	3039
820.043	2925
820.184	2887
820.324	2899
820.465	3032
820.605	3024
820.746	3020
820.886	2937
821.026	3058
821.167	3165
821.307	3207
821.447	3279
821.588	3226
821.728	3237
821.868	3207
822.008	3100
822.149	3218
822.289	3199
822.429	3093
822.569	3055
822.709	3184
822.849	3028
822.99	3070
823.13	3131
823.27	3195
823.41	3070
823.55	3112
823.69	3161
823.83	3173
823.97	3089
824.11	2975
824.25	2967
824.389	3066
824.529	3100
824.669	3032
824.809	3180
824.949	3275
825.089	3188
825.228	3154
825.368	2944
825.508	2963
825.648	2952
825.787	3009
825.927	3005
826.067	2948
826.206	2956
826.346	3043
826.485	3070
826.625	3116
826.765	3245
826.904	3230
827.044	2941
827.183	2918
827.323	2830
827.462	2979
827.601	2910
827.741	2895
827.88	2960
828.02	2880
828.159	2963
828.298	3036
828.437	3116
828.577	3062
828.716	3253
828.855	3097
828.994	2929
829.134	2918
829.273	2891
829.412	2876
829.551	2845
829.69	2899
829.829	2952
829.968	3093
830.107	2979
830.246	2998
830.385	2944
830.524	2861
830.663	2823
830.802	2712
830.941	2651
831.08	2644
831.219	2777
831.357	2735
831.496	2944
831.635	2701
831.774	2644
831.913	2632
832.051	2552
832.19	2598
832.329	2663
832.467	2541
832.606	2495
832.744	2587
832.883	2560
833.022	2579
833.16	2670
833.299	2640
833.437	2655
833.576	2701
833.714	2724
833.852	2712
833.991	2766
834.129	2826
834.267	2796
834.406	2769
834.544	2864
834.682	2823
834.821	2883
834.959	3047
835.097	2899
835.235	3062
835.373	3009
835.511	2967
835.65	2960
835.788	2944
835.926	2838
836.064	2792
836.202	2857
836.34	3077
836.478	3142
836.615	3062
836.753	3119
836.891	3226
837.029	3176
837.167	3119
837.305	3036
837.443	3058
837.58	3017
837.718	3127
837.856	3055
837.993	2975
838.131	3123
838.269	3077
838.406	3097
838.544	3074
838.681	2925
838.819	2910
838.956	2792
839.094	2823
839.231	2941
839.369	2990
839.506	3351
839.643	3241
839.781	3020
839.918	2963
840.055	3009
840.193	3020
840.33	3074
840.467	3104
840.604	3157
840.742	3431
840.879	3070
841.016	3036
841.153	3089
841.29	3302
841.427	3291
841.564	3256
841.701	3287
841.838	3192
841.975	3150
842.112	3184
842.249	3104
842.385	2994
842.522	3256
842.659	3104
842.796	3062
842.933	3104
843.069	3028
843.206	3047
843.343	3176
843.479	3085
843.616	3157
843.752	2861
843.889	2815
844.025	3085
844.162	2864
844.298	3093
844.435	2933
844.571	2914
844.708	3081
844.844	3199
844.98	3230
845.117	3214
845.253	3074
845.389	3001
845.525	3085
845.661	3123
845.798	3047
845.934	3135
846.07	3043
846.206	3211
846.342	3302
846.478	3211
846.614	3135
846.75	3043
846.886	3020
847.022	3214
847.158	3154
847.294	3192
847.429	3214
847.565	3222
847.701	3420
847.837	3047
847.972	2975
848.108	3154
848.244	3131
848.379	3005
848.515	2937
848.65	2956
848.786	2956
848.921	3009
849.057	3077
849.192	3146
849.328	3020
849.463	3112
849.598	3089
849.734	3009
849.869	2956
850.004	2899
850.14	2914
850.275	2899
850.41	2861
850.545	2883
850.68	2925
850.815	2971
850.95	2960
851.085	3176
851.22	3066
851.355	3032
851.49	2979
851.625	2956
851.76	3013
851.895	2899
852.03	2887
852.165	3047
852.299	3093
852.434	3165
852.569	3123
852.703	3199
852.838	3195
852.973	3351
853.107	3325
853.242	3127
853.376	3066
853.511	2963
853.645	3013
853.78	3211
853.914	3131
854.048	3097
854.183	3058
854.317	3154
854.451	3283
854.585	3112
854.72	3081
854.854	3184
854.988	3077
855.122	3097
855.256	2963
855.39	3146
855.524	3241
855.658	3203
855.792	3138
855.926	3154
856.06	3222
856.194	3287
856.327	3127
856.461	3032
856.595	3085
856.729	3104
856.862	3233
856.996	3142
857.13	3211
857.263	3233
857.397	3279
857.53	3131
857.664	3173
857.797	3226
857.931	3207
858.064	3146
858.197	3211
858.331	3131
858.464	3093
858.597	3013
858.731	3157
858.864	3138
858.997	3081
859.13	3112
859.263	3169
859.396	3169
859.529	3070
859.662	3062
859.795	3017
859.928	3127
860.061	3260
860.194	3275
860.327	3138
860.46	3077
860.592	3207
860.725	3283
860.858	3260
860.99	3100
861.123	3039
861.256	3036
861.388	3100
861.521	3865
861.653	3028
861.786	2941
861.918	3001
862.05	3055
862.183	3039
862.315	3119
862.447	3188
862.58	3066
862.712	2929
862.844	2868
862.976	3001
863.108	3024
863.24	3428
863.372	2861
863.504	2948
863.636	2944
863.768	2998
863.9	2994
864.032	2914
864.164	2933
864.296	3043
864.428	3097
864.559	3112
864.691	3077
864.823	3085
864.954	3039
865.086	3047
865.217	3020
865.349	2937
865.48	3020
865.612	2990
865.743	3119
865.875	2952
866.006	2941
866.137	2975
866.269	2925
866.4	2933
866.531	2929
866.662	2868
866.793	2906
866.924	2880
867.055	2944
867.186	2902
867.317	2887
867.448	2819
867.579	2849
867.71	2823
867.841	2819
867.972	2906
868.103	2891
868.233	2868
868.364	2864
868.495	2929
868.625	3058
868.756	3184
868.886	2979
869.017	2994
869.147	3123
869.278	3192
869.408	3020
869.539	3028
869.669	3085
869.799	3020
869.929	3142
870.06	3104
870.19	3294
870.32	3256
870.45	3283
870.58	3412
870.71	3424
870.84	3443
870.97	3298
871.1	3222
871.23	3507
871.36	3443
871.489	3348
871.619	3355
871.749	3393
871.879	3416
872.008	3511
872.138	3306
872.267	3249
872.397	3127
872.526	3066
872.656	2956
872.785	3085
872.915	3237
873.044	3321
873.173	3237
873.303	3214
873.432	3249
873.561	3218
873.69	3123
873.819	3135
873.948	3192
874.077	3085
874.206	3039
874.335	3055
874.464	3199
874.593	3370
874.722	3222
874.851	3374
874.979	3348
875.108	3351
875.237	3195
875.365	3173
875.494	3142
875.623	3211
875.751	3077
875.88	3093
876.008	3192
876.136	3218
876.265	3397
876.393	3511
876.521	3386
876.65	3412
876.778	3317
876.906	3218
877.034	3157
877.162	3214
877.29	3176
877.418	3249
877.546	3237
877.674	3237
877.802	3230
877.93	3192
878.058	3154
878.185	3131
878.313	3226
878.441	3195
878.568	3055
878.696	3146
878.824	3226
878.951	3313
879.079	3374
879.206	3644
879.333	3431
879.461	3306
879.588	3386
879.715	3435
879.842	3591
879.97	3412
880.097	3157
880.224	3119
880.351	3214
880.478	3222
880.605	3150
880.732	3188
880.859	3488
880.986	3294
881.112	3317
881.239	3188
881.366	3093
881.493	3013
881.619	3024
881.746	3066
881.872	3085
881.999	3093
882.125	3138
882.252	3256
882.378	3302
882.505	3428
882.631	3298
882.757	3157
882.883	3188
883.01	3218
883.136	3169
883.262	3097
883.388	3081
883.514	3302
883.64	3409
883.766	3291
883.892	3154
884.018	3275
884.143	3443
884.269	3496
884.395	3214
884.52	3157
884.646	3161
884.772	3135
884.897	3112
885.023	3207
885.148	3329
885.274	3416
885.399	3367
885.524	3275
885.65	3268
885.775	3332
885.9	3294
886.025	3424
886.15	3389
886.275	3294
886.4	3249
886.525	3321
886.65	3310
886.775	3264
886.9	3462
887.025	3603
887.149	3397
887.274	3203
887.399	3233
887.523	3169
887.648	3157
887.773	3195
887.897	3374
888.021	3359
888.146	3264
888.27	3431
888.395	3519
888.519	3424
888.643	3443
888.767	3458
888.891	3287
889.015	3203
889.139	3294
889.263	3268
889.387	3435
889.511	3526
889.635	3412
889.759	3306
889.883	3313
890.006	3393
890.13	3488
890.254	3264
890.377	3348
890.501	3214
890.624	3169
890.748	3253
890.871	3173
890.995	3100
891.118	3085
891.241	3180
891.364	3253
891.488	3317
891.611	3188
891.734	3253
891.857	3325
891.98	3249
892.103	3329
892.226	3306
892.349	3203
892.471	3112
892.594	3230
892.717	3325
892.839	3306
892.962	3283
893.085	3321
893.207	3249
893.33	3161
893.452	3195
893.575	3340
893.697	3203
893.819	3447
893.941	3469
894.064	3466
894.186	3260
894.308	3298
894.43	3424
894.552	3523
894.674	3469
894.796	3237
894.918	3313
895.04	3298
895.161	3393
895.283	3367
895.405	3344
895.526	3355
895.648	3439
895.769	3420
895.891	3416
896.012	3458
896.134	3477
896.255	3397
896.376	3348
896.498	3351
896.619	3431
896.74	3344
896.861	3382
896.982	3671
897.103	3861
897.224	3610
897.345	3519
897.466	3477
897.587	3504
897.708	3648
897.828	3572
897.949	3481
898.07	3336
898.19	3424
898.311	3568
898.431	3466
898.552	3523
898.672	3568
898.792	3538
898.913	3523
899.033	3443
899.153	3287
899.273	3195
899.393	3298
899.513	3294
899.633	3321
899.753	3367
899.873	3275
899.993	3382
900.113	3329
900.232	3386
900.352	3329
900.472	3279
900.591	3192
900.711	3298
900.83	3222
900.95	3370
901.069	3477
901.189	3348
901.308	3192
901.427	3112
901.546	3199
901.665	3283
901.784	3298
901.904	3207
902.023	3142
902.141	3036
902.26	2986
902.379	3135
902.498	3081
902.617	3081
902.735	3211
902.854	3203
902.973	3207
903.091	3036
903.21	3097
903.328	3169
903.446	3104
903.565	3123
903.683	3173
903.801	3100
903.919	3222
904.038	3230
904.156	3119
904.274	3279
904.392	3249
904.51	3287
904.627	3344
904.745	3412
904.863	3458
904.981	3287
905.098	3184
905.216	3230
905.334	3283
905.451	3302
905.569	3287
905.686	3405
905.803	3447
905.921	3313
906.038	3428
906.155	3340
906.272	3287
906.389	3363
906.506	3207
906.623	3253
906.74	3253
906.857	3180
906.974	3291
907.091	3420
907.208	3564
907.324	3454
907.441	3386
907.557	3211
907.674	3275
907.79	3180
907.907	3272
908.023	3382
908.139	3370
908.256	3317
908.372	3378
908.488	3348
908.604	3256
908.72	3192
908.836	3279
908.952	3260
909.068	3329
909.184	3477
909.3	3367
909.415	3496
909.531	3458
909.647	3275
909.762	3279
909.878	3237
909.993	3348
910.108	3348
910.224	3313
910.339	3450
910.454	3363
910.57	3283
910.685	3249
910.8	3561
910.915	3519
911.03	3435
911.145	3268
911.259	3233
911.374	3340
911.489	3226
911.604	3211
911.718	3108
911.833	3150
911.947	3089
912.062	2971
912.176	3138
912.291	3211
912.405	3199
912.519	3424
912.633	3447
912.748	3298
912.862	3298
912.976	3184
913.09	3051
913.204	3173
913.318	3199
913.431	3306
913.545	3306
913.659	3420
913.772	3340
913.886	3237
914	3203
914.113	3310
914.226	3462
914.34	3332
914.453	3218
914.566	3447
914.68	3306
914.793	3329
914.906	3138
915.019	3119
915.132	3074
915.245	3211
915.358	3211
915.47	3253
915.583	3253
915.696	3291
915.809	3363
915.921	3416
916.034	3302
916.146	3283
916.259	3275
916.371	3382
916.483	3306
916.595	3260
916.708	3329
916.82	3313
916.932	3378
917.044	3351
917.156	3332
917.268	3230
917.38	3264
917.491	3283
917.603	3378
917.715	3420
917.826	3462
917.938	3370
918.049	3279
918.161	3401
918.272	3584
918.384	3568
918.495	3443
918.606	3306
918.717	3310
918.828	3317
918.939	3416
919.05	3272
919.161	3340
919.272	3169
919.383	3249
919.494	3534
919.604	3701
919.715	3485
919.826	3420
919.936	3500
920.047	3542
920.157	3523
920.267	3759
920.378	3603
920.488	3549
920.598	3804
920.708	3949
920.818	3823
920.928	3808
921.038	4040
921.148	3994
921.258	3686
921.368	3603
921.477	3534
921.587	3534
921.697	3416
921.806	3641
921.916	3500
922.025	3370
922.134	3302
922.244	3310
922.353	3473
922.462	3256
922.571	3211
922.68	3093
922.789	3085
922.898	3112
923.007	3077
923.116	3169
923.224	3180
923.333	3176
923.442	3131
923.55	3089
923.659	3180
923.767	3218
923.876	3112
923.984	3199
924.092	3104
924.201	3230
924.309	3218
924.417	3214
924.525	3157
924.633	3226
924.741	4150
924.849	3039
924.956	3256
925.064	3066
925.172	3051
925.279	3077
925.387	3184
925.494	3150
925.602	3325
925.709	3317
925.816	3195
925.924	3279
926.031	3363
926.138	3306
926.245	3359
926.352	3253
926.459	3401
926.566	3488
926.673	3310
926.779	3260
926.886	3230
926.993	3161
927.099	3154
927.206	3093
927.312	3093
927.419	3272
927.525	3199
927.631	3264
927.737	3104
927.843	3085
927.95	3017
928.056	3142
928.162	3138
928.267	3294
928.373	3857
928.479	3279
928.585	3070
928.69	3214
928.796	3291
928.901	3180
929.007	3051
929.112	3161
929.218	3195
929.323	3127
929.428	3157
929.533	3325
929.638	3150
929.743	3165
929.848	3298
929.953	3195
930.058	3108
930.163	2967
930.267	3028
930.372	3218
930.477	3062
930.581	3291
930.685	3165
930.79	3066
930.894	3131
930.998	3066
931.103	3272
931.207	2967
931.311	2910
931.415	2933
931.519	2746
931.623	2804
