Data from test_V78500241_540.txt Node
Date: Fri Mar 25 16:18:56 CST 2022
User: usil
Spectrometer: V785-0024
Trigger mode: 0
Integration Time (sec): 4.000000E-1
Scans to average: 1
Nonlinearity correction enabled: false
Boxcar width: 0
Storing dark spectrum: false
XAxis mode: Wavelengths
Number of Pixels in Spectrum: 1024
>>>>>Begin Spectral Data<<<<<
801.071	2906
801.214	2944
801.356	2849
801.499	2872
801.641	2891
801.783	2933
801.926	3017
802.068	2944
802.211	3005
802.353	3017
802.496	2948
802.638	3020
802.78	3028
802.923	3104
803.065	3013
803.208	2880
803.35	2925
803.492	2948
803.635	2914
803.777	2766
803.919	2838
804.061	3169
804.204	2922
804.346	2948
804.488	2838
804.63	2994
804.773	2891
804.915	2895
805.057	3066
805.199	2918
805.341	2971
805.483	3051
805.626	2986
805.768	2960
805.91	3089
806.052	3123
806.194	3020
806.336	3218
806.478	3032
806.62	2982
806.762	2975
806.904	3028
807.046	3157
807.188	3001
807.33	2906
807.472	2982
807.614	2937
807.756	2990
807.898	2929
808.04	2910
808.182	2952
808.324	2952
808.465	2868
808.607	2887
808.749	2766
808.891	2861
809.033	2990
809.174	2971
809.316	2914
809.458	2895
809.6	2819
809.741	2735
809.883	2743
810.025	2849
810.166	2838
810.308	2880
810.45	2880
810.591	2754
810.733	2766
810.875	2868
811.016	2766
811.158	2720
811.299	2807
811.441	2933
811.582	2887
811.724	2792
811.865	2815
812.007	2910
812.148	2872
812.29	2849
812.431	2880
812.573	2918
812.714	2944
812.855	3058
812.997	3028
813.138	3097
813.279	3024
813.421	2960
813.562	2944
813.703	2861
813.845	2914
813.986	2773
814.127	2724
814.268	2819
814.41	2804
814.551	2781
814.692	2864
814.833	2792
814.974	2914
815.115	2941
815.256	2819
815.397	2792
815.539	2887
815.68	2811
815.821	2788
815.962	2937
816.103	2906
816.244	2883
816.385	2883
816.526	2960
816.666	2910
816.807	2750
816.948	2876
817.089	2929
817.23	2845
817.371	2720
817.512	2807
817.653	2838
817.793	2811
817.934	2864
818.075	2929
818.216	2971
818.356	3020
818.497	2883
818.638	2796
818.778	2834
818.919	2815
819.06	2766
819.2	2887
819.341	2766
819.481	2819
819.622	2925
819.762	3119
819.903	3001
820.043	2922
820.184	2887
820.324	2868
820.465	3020
820.605	2986
820.746	3005
820.886	2914
821.026	3100
821.167	3138
821.307	3226
821.447	3287
821.588	3218
821.728	3233
821.868	3192
822.008	3055
822.149	3203
822.289	3237
822.429	3108
822.569	3097
822.709	3192
822.849	3032
822.99	3055
823.13	3142
823.27	3214
823.41	3085
823.55	3138
823.69	3150
823.83	3138
823.97	3081
824.11	2963
824.25	3001
824.389	3047
824.529	3108
824.669	3077
824.809	3192
824.949	3253
825.089	3192
825.228	3180
825.368	3009
825.508	2960
825.648	2971
825.787	3005
825.927	3051
826.067	2963
826.206	2937
826.346	3032
826.485	3066
826.625	3135
826.765	3256
826.904	3203
827.044	3013
827.183	2899
827.323	2868
827.462	2952
827.601	2895
827.741	2925
827.88	2933
828.02	2864
828.159	2979
828.298	3074
828.437	3135
828.577	3017
828.716	3218
828.855	3055
828.994	2914
829.134	2853
829.273	2925
829.412	2876
829.551	2857
829.69	2887
829.829	2933
829.968	3085
830.107	3013
830.246	3024
830.385	2899
830.524	2857
830.663	2804
830.802	2724
830.941	2629
831.08	2632
831.219	2754
831.357	2746
831.496	2963
831.635	2735
831.774	2648
831.913	2667
832.051	2526
832.19	2571
832.329	2667
832.467	2537
832.606	2488
832.744	2587
832.883	2571
833.022	2590
833.16	2644
833.299	2693
833.437	2701
833.576	2705
833.714	2693
833.852	2720
833.991	2758
834.129	2815
834.267	2819
834.406	2785
834.544	2887
834.682	2864
834.821	2861
834.959	3005
835.097	2910
835.235	3005
835.373	2998
835.511	3020
835.65	2906
835.788	2956
835.926	2849
836.064	2796
836.202	2819
836.34	3100
836.478	3127
836.615	3085
836.753	3123
836.891	3180
837.029	3161
837.167	3089
837.305	3062
837.443	3043
837.58	2952
837.718	3135
837.856	3051
837.993	3017
838.131	3112
838.269	3070
838.406	3074
838.544	3081
838.681	2956
838.819	2941
838.956	2796
839.094	2796
839.231	2914
839.369	3001
839.506	3340
839.643	3207
839.781	3009
839.918	2952
840.055	3062
840.193	3062
840.33	3058
840.467	3051
840.604	3089
840.742	3359
840.879	3036
841.016	3001
841.153	3119
841.29	3367
841.427	3317
841.564	3253
841.701	3317
841.838	3218
841.975	3142
842.112	3207
842.249	3062
842.385	3039
842.522	3253
842.659	3100
842.796	3074
842.933	3055
843.069	3001
843.206	3043
843.343	3135
843.479	3077
843.616	3161
843.752	2895
843.889	2849
844.025	3074
844.162	2864
844.298	3070
844.435	2960
844.571	2902
844.708	3047
844.844	3188
844.98	3203
845.117	3173
845.253	3039
845.389	2960
845.525	3093
845.661	3104
845.798	2998
845.934	3081
846.07	3058
846.206	3233
846.342	3329
846.478	3230
846.614	3089
846.75	3081
846.886	3001
847.022	3245
847.158	3108
847.294	3195
847.429	3275
847.565	3169
847.701	3488
847.837	3032
847.972	2967
848.108	3154
848.244	3176
848.379	2998
848.515	2967
848.65	2929
848.786	2975
848.921	3036
849.057	3093
849.192	3165
849.328	3119
849.463	3112
849.598	3043
849.734	3039
849.869	2994
850.004	2902
850.14	2956
850.275	2910
850.41	2834
850.545	2861
850.68	2906
850.815	2963
850.95	2941
851.085	3195
851.22	3123
851.355	3005
851.49	2963
851.625	3020
851.76	3013
851.895	2948
852.03	2899
852.165	3013
852.299	3131
852.434	3199
852.569	3180
852.703	3184
852.838	3264
852.973	3302
853.107	3329
853.242	3123
853.376	3085
853.511	2982
853.645	3024
853.78	3211
853.914	3123
854.048	3100
854.183	3104
854.317	3142
854.451	3279
854.585	3119
854.72	3097
854.854	3226
854.988	3089
855.122	3062
855.256	2963
855.39	3097
855.524	3207
855.658	3188
855.792	3127
855.926	3173
856.06	3233
856.194	3283
856.327	3180
856.461	3036
856.595	3070
856.729	3112
856.862	3192
856.996	3150
857.13	3161
857.263	3230
857.397	3256
857.53	3093
857.664	3165
857.797	3195
857.931	3214
858.064	3146
858.197	3260
858.331	3135
858.464	3089
858.597	2975
858.731	3104
858.864	3097
858.997	3047
859.13	3142
859.263	3146
859.396	3207
859.529	3058
859.662	3070
859.795	3047
859.928	3135
860.061	3253
860.194	3245
860.327	3108
860.46	3093
860.592	3203
860.725	3256
860.858	3249
860.99	3093
861.123	3066
861.256	3066
861.388	3100
861.521	3903
861.653	3005
861.786	2982
861.918	3001
862.05	3047
862.183	3100
862.315	3184
862.447	3203
862.58	3123
862.712	2922
862.844	2883
862.976	2990
863.108	2975
863.24	3382
863.372	2857
863.504	2979
863.636	2941
863.768	3039
863.9	2982
864.032	2910
864.164	2918
864.296	3020
864.428	3081
864.559	3104
864.691	3058
864.823	3077
864.954	3070
865.086	3028
865.217	2952
865.349	2906
865.48	2975
865.612	2994
865.743	3157
865.875	2937
866.006	2918
866.137	2971
866.269	2929
866.4	2956
866.531	2887
866.662	2872
866.793	2895
866.924	2868
867.055	2952
867.186	2918
867.317	2902
867.448	2807
867.579	2830
867.71	2815
867.841	2830
867.972	2899
868.103	2880
868.233	2872
868.364	2861
868.495	2906
868.625	3070
868.756	3150
868.886	2944
869.017	3032
869.147	3150
869.278	3154
869.408	3017
869.539	3017
869.669	3066
869.799	3043
869.929	3135
870.06	3077
870.19	3298
870.32	3287
870.45	3313
870.58	3321
870.71	3420
870.84	3447
870.97	3268
871.1	3226
871.23	3466
871.36	3428
871.489	3348
871.619	3428
871.749	3420
871.879	3428
872.008	3485
872.138	3325
872.267	3245
872.397	3154
872.526	3058
872.656	3017
872.785	3089
872.915	3233
873.044	3302
873.173	3218
873.303	3298
873.432	3218
873.561	3237
873.69	3138
873.819	3116
873.948	3211
874.077	3108
874.206	3028
874.335	3097
874.464	3180
874.593	3329
874.722	3249
874.851	3382
874.979	3325
875.108	3317
875.237	3161
875.365	3165
875.494	3131
875.623	3275
875.751	3074
875.88	3104
876.008	3184
876.136	3222
876.265	3325
876.393	3473
876.521	3389
876.65	3443
876.778	3329
876.906	3253
877.034	3207
877.162	3211
877.29	3192
877.418	3253
877.546	3218
877.674	3237
877.802	3211
877.93	3218
878.058	3154
878.185	3108
878.313	3226
878.441	3214
878.568	3024
878.696	3157
878.824	3245
878.951	3302
879.079	3431
879.206	3587
879.333	3401
879.461	3310
879.588	3325
879.715	3473
879.842	3606
879.97	3389
880.097	3142
880.224	3089
880.351	3195
880.478	3230
880.605	3233
880.732	3203
880.859	3439
880.986	3306
881.112	3348
881.239	3195
881.366	3070
881.493	3020
881.619	2990
881.746	3093
881.872	3097
881.999	3070
882.125	3154
882.252	3249
882.378	3283
882.505	3405
882.631	3298
882.757	3161
882.883	3226
883.01	3237
883.136	3161
883.262	3097
883.388	3116
883.514	3317
883.64	3382
883.766	3291
883.892	3165
884.018	3249
884.143	3416
884.269	3507
884.395	3180
884.52	3146
884.646	3192
884.772	3097
884.897	3074
885.023	3207
885.148	3313
885.274	3405
885.399	3344
885.524	3275
885.65	3294
885.775	3302
885.9	3256
886.025	3431
886.15	3344
886.275	3294
886.4	3207
886.525	3264
886.65	3256
886.775	3249
886.9	3515
887.025	3675
887.149	3405
887.274	3226
887.399	3211
887.523	3188
887.648	3173
887.773	3180
887.897	3370
888.021	3355
888.146	3264
888.27	3424
888.395	3545
888.519	3389
888.643	3420
888.767	3435
888.891	3325
889.015	3256
889.139	3287
889.263	3256
889.387	3431
889.511	3488
889.635	3439
889.759	3317
889.883	3294
890.006	3412
890.13	3424
890.254	3237
890.377	3321
890.501	3211
890.624	3222
890.748	3310
890.871	3184
890.995	3081
891.118	3036
891.241	3180
891.364	3188
891.488	3317
891.611	3154
891.734	3249
891.857	3275
891.98	3233
892.103	3306
892.226	3237
892.349	3180
892.471	3077
892.594	3203
892.717	3291
892.839	3245
892.962	3298
893.085	3363
893.207	3298
893.33	3154
893.452	3199
893.575	3329
893.697	3249
893.819	3439
893.941	3481
894.064	3447
894.186	3275
894.308	3298
894.43	3409
894.552	3507
894.674	3466
894.796	3256
894.918	3291
895.04	3283
895.161	3405
895.283	3367
895.405	3302
895.526	3336
895.648	3435
895.769	3389
895.891	3431
896.012	3466
896.134	3443
896.255	3386
896.376	3359
896.498	3340
896.619	3424
896.74	3351
896.861	3424
896.982	3667
897.103	3823
897.224	3587
897.345	3473
897.466	3458
897.587	3523
897.708	3637
897.828	3515
897.949	3416
898.07	3332
898.19	3424
898.311	3606
898.431	3409
898.552	3515
898.672	3595
898.792	3576
898.913	3526
899.033	3431
899.153	3245
899.273	3203
899.393	3279
899.513	3344
899.633	3344
899.753	3336
899.873	3298
899.993	3374
900.113	3317
900.232	3393
900.352	3348
900.472	3260
900.591	3211
900.711	3260
900.83	3237
900.95	3405
901.069	3492
901.189	3355
901.308	3184
901.427	3116
901.546	3138
901.665	3279
901.784	3344
901.904	3192
902.023	3161
902.141	3009
902.26	3013
902.379	3119
902.498	3097
902.617	3077
902.735	3192
902.854	3199
902.973	3138
903.091	3036
903.21	3070
903.328	3108
903.446	3104
903.565	3112
903.683	3195
903.801	3070
903.919	3218
904.038	3272
904.156	3161
904.274	3272
904.392	3237
904.51	3306
904.627	3325
904.745	3416
904.863	3485
904.981	3272
905.098	3203
905.216	3184
905.334	3260
905.451	3310
905.569	3256
905.686	3439
905.803	3412
905.921	3302
906.038	3401
906.155	3310
906.272	3264
906.389	3291
906.506	3226
906.623	3249
906.74	3230
906.857	3218
906.974	3268
907.091	3409
907.208	3580
907.324	3458
907.441	3389
907.557	3218
907.674	3211
907.79	3195
907.907	3268
908.023	3348
908.139	3370
908.256	3283
908.372	3321
908.488	3374
908.604	3256
908.72	3245
908.836	3264
908.952	3287
909.068	3336
909.184	3447
909.3	3374
909.415	3500
909.531	3466
909.647	3272
909.762	3287
909.878	3256
909.993	3336
910.108	3329
910.224	3348
910.339	3351
910.454	3310
910.57	3291
910.685	3241
910.8	3561
910.915	3519
911.03	3416
911.145	3272
911.259	3275
911.374	3287
911.489	3256
911.604	3249
911.718	3112
911.833	3138
911.947	3024
912.062	2960
912.176	3173
912.291	3146
912.405	3180
912.519	3382
912.633	3435
912.748	3310
912.862	3275
912.976	3146
913.09	3062
913.204	3161
913.318	3245
913.431	3340
913.545	3329
913.659	3420
913.772	3310
913.886	3218
914	3173
914.113	3367
914.226	3409
914.34	3355
914.453	3203
914.566	3401
914.68	3291
914.793	3306
914.906	3138
915.019	3093
915.132	3077
915.245	3199
915.358	3192
915.47	3233
915.583	3283
915.696	3279
915.809	3412
915.921	3397
916.034	3264
916.146	3260
916.259	3211
916.371	3382
916.483	3374
916.595	3321
916.708	3336
916.82	3348
916.932	3329
917.044	3378
917.156	3351
917.268	3180
917.38	3298
917.491	3287
917.603	3382
917.715	3435
917.826	3416
917.938	3367
918.049	3279
918.161	3412
918.272	3587
918.384	3526
918.495	3500
918.606	3348
918.717	3268
918.828	3355
918.939	3378
919.05	3325
919.161	3367
919.272	3188
919.383	3287
919.494	3473
919.604	3671
919.715	3511
919.826	3393
919.936	3439
920.047	3584
920.157	3526
920.267	3740
920.378	3561
920.488	3549
920.598	3759
920.708	3972
920.818	3842
920.928	3831
921.038	4032
921.148	4010
921.258	3705
921.368	3618
921.477	3595
921.587	3488
921.697	3462
921.806	3618
921.916	3511
922.025	3321
922.134	3336
922.244	3329
922.353	3397
922.462	3245
922.571	3226
922.68	3116
922.789	3074
922.898	3138
923.007	3100
923.116	3203
923.224	3188
923.333	3150
923.442	3097
923.55	3066
923.659	3161
923.767	3230
923.876	3119
923.984	3192
924.092	3097
924.201	3188
924.309	3241
924.417	3241
924.525	3169
924.633	3192
924.741	3983
924.849	3009
924.956	3249
925.064	3085
925.172	3032
925.279	3093
925.387	3138
925.494	3214
925.602	3397
925.709	3306
925.816	3195
925.924	3275
926.031	3378
926.138	3332
926.245	3386
926.352	3272
926.459	3363
926.566	3488
926.673	3306
926.779	3264
926.886	3275
926.993	3157
927.099	3138
927.206	3081
927.312	3127
927.419	3192
927.525	3188
927.631	3268
927.737	3138
927.843	3089
927.95	3005
928.056	3100
928.162	3176
928.267	3203
928.373	3774
928.479	3283
928.585	3024
928.69	3207
928.796	3268
928.901	3169
929.007	3032
929.112	3218
929.218	3165
929.323	3165
929.428	3131
929.533	3291
929.638	3093
929.743	3138
929.848	3256
929.953	3211
930.058	3131
930.163	2986
930.267	3028
930.372	3199
930.477	2998
930.581	3313
930.685	3173
930.79	3036
930.894	3119
930.998	3100
931.103	3245
931.207	2906
931.311	2948
931.415	2895
931.519	2743
931.623	2807
