Data from test_V78500241_892.txt Node
Date: Fri Mar 25 16:21:22 CST 2022
User: usil
Spectrometer: V785-0024
Trigger mode: 0
Integration Time (sec): 4.000000E-1
Scans to average: 1
Nonlinearity correction enabled: false
Boxcar width: 0
Storing dark spectrum: false
XAxis mode: Wavelengths
Number of Pixels in Spectrum: 1024
>>>>>Begin Spectral Data<<<<<
801.071	2933
801.214	2902
801.356	2902
801.499	2876
801.641	2857
801.783	2929
801.926	3032
802.068	2963
802.211	3017
802.353	3047
802.496	2944
802.638	3013
802.78	3028
802.923	3097
803.065	3001
803.208	2864
803.35	2899
803.492	2944
803.635	2944
803.777	2769
803.919	2807
804.061	3184
804.204	2902
804.346	2899
804.488	2876
804.63	2963
804.773	2861
804.915	2952
805.057	3066
805.199	2910
805.341	2982
805.483	3024
805.626	2979
805.768	2971
805.91	3097
806.052	3100
806.194	3005
806.336	3203
806.478	2994
806.62	2941
806.762	2994
806.904	3062
807.046	3199
807.188	2967
807.33	2929
807.472	2975
807.614	2918
807.756	2967
807.898	2895
808.04	2876
808.182	2948
808.324	2937
808.465	2868
808.607	2868
808.749	2800
808.891	2842
809.033	2956
809.174	2979
809.316	2842
809.458	2906
809.6	2766
809.741	2758
809.883	2750
810.025	2834
810.166	2834
810.308	2838
810.45	2872
810.591	2766
810.733	2766
810.875	2819
811.016	2773
811.158	2739
811.299	2815
811.441	2914
811.582	2872
811.724	2788
811.865	2796
812.007	2883
812.148	2868
812.29	2861
812.431	2876
812.573	2956
812.714	2933
812.855	3077
812.997	3070
813.138	3127
813.279	2998
813.421	2975
813.562	2963
813.703	2883
813.845	2868
813.986	2743
814.127	2689
814.268	2838
814.41	2853
814.551	2830
814.692	2861
814.833	2800
814.974	2868
815.115	2956
815.256	2826
815.397	2766
815.539	2842
815.68	2785
815.821	2769
815.962	2933
816.103	2929
816.244	2872
816.385	2876
816.526	2937
816.666	2937
816.807	2739
816.948	2906
817.089	2925
817.23	2857
817.371	2746
817.512	2823
817.653	2807
817.793	2834
817.934	2876
818.075	2918
818.216	2956
818.356	3028
818.497	2861
818.638	2785
818.778	2811
818.919	2785
819.06	2781
819.2	2849
819.341	2773
819.481	2796
819.622	2914
819.762	3119
819.903	3077
820.043	2925
820.184	2906
820.324	2861
820.465	2990
820.605	2986
820.746	3036
820.886	2952
821.026	3089
821.167	3131
821.307	3237
821.447	3279
821.588	3253
821.728	3188
821.868	3173
822.008	3062
822.149	3192
822.289	3199
822.429	3123
822.569	3142
822.709	3176
822.849	3020
822.99	3055
823.13	3176
823.27	3226
823.41	3108
823.55	3176
823.69	3135
823.83	3214
823.97	3135
824.11	3039
824.25	3036
824.389	3081
824.529	3161
824.669	3093
824.809	3226
824.949	3302
825.089	3226
825.228	3184
825.368	3081
825.508	2986
825.648	2960
825.787	3066
825.927	3066
826.067	2990
826.206	3001
826.346	3066
826.485	3097
826.625	3131
826.765	3275
826.904	3260
827.044	3047
827.183	2975
827.323	2895
827.462	3028
827.601	2952
827.741	2979
827.88	3009
828.02	2891
828.159	2986
828.298	3077
828.437	3180
828.577	3097
828.716	3264
828.855	3093
828.994	2967
829.134	2922
829.273	2929
829.412	2922
829.551	2906
829.69	2941
829.829	3020
829.968	3169
830.107	3081
830.246	3070
830.385	2948
830.524	2963
830.663	2891
830.802	2762
830.941	2670
831.08	2716
831.219	2796
831.357	2834
831.496	2979
831.635	2750
831.774	2674
831.913	2705
832.051	2568
832.19	2617
832.329	2743
832.467	2564
832.606	2518
832.744	2602
832.883	2617
833.022	2587
833.16	2670
833.299	2697
833.437	2716
833.576	2739
833.714	2773
833.852	2731
833.991	2800
834.129	2880
834.267	2910
834.406	2823
834.544	2849
834.682	2883
834.821	2883
834.959	3123
835.097	2944
835.235	3108
835.373	3005
835.511	3043
835.65	2956
835.788	2990
835.926	2857
836.064	2796
836.202	2883
836.34	3131
836.478	3195
836.615	3066
836.753	3161
836.891	3207
837.029	3207
837.167	3127
837.305	3085
837.443	3112
837.58	2998
837.718	3165
837.856	3100
837.993	3097
838.131	3165
838.269	3154
838.406	3135
838.544	3138
838.681	2952
838.819	2967
838.956	2845
839.094	2864
839.231	2937
839.369	3036
839.506	3374
839.643	3298
839.781	3070
839.918	2990
840.055	3070
840.193	3081
840.33	3058
840.467	3138
840.604	3165
840.742	3424
840.879	3085
841.016	3055
841.153	3180
841.29	3393
841.427	3344
841.564	3302
841.701	3306
841.838	3218
841.975	3218
842.112	3268
842.249	3112
842.385	3097
842.522	3287
842.659	3127
842.796	3070
842.933	3119
843.069	3093
843.206	3058
843.343	3222
843.479	3119
843.616	3131
843.752	2910
843.889	2902
844.025	3093
844.162	2906
844.298	3081
844.435	2990
844.571	2925
844.708	3116
844.844	3199
844.98	3256
845.117	3230
845.253	3077
845.389	3036
845.525	3161
845.661	3165
845.798	3043
845.934	3161
846.07	3100
846.206	3245
846.342	3351
846.478	3272
846.614	3138
846.75	3093
846.886	3085
847.022	3260
847.158	3142
847.294	3211
847.429	3272
847.565	3207
847.701	3519
847.837	3077
847.972	3028
848.108	3184
848.244	3123
848.379	3020
848.515	2956
848.65	2967
848.786	2990
848.921	3017
849.057	3142
849.192	3188
849.328	3116
849.463	3138
849.598	3104
849.734	3066
849.869	2986
850.004	2956
850.14	3009
850.275	2925
850.41	2880
850.545	2899
850.68	2948
850.815	3013
850.95	2971
851.085	3184
851.22	3119
851.355	3055
851.49	3005
851.625	3013
851.76	3051
851.895	2956
852.03	2925
852.165	3062
852.299	3127
852.434	3230
852.569	3173
852.703	3176
852.838	3268
852.973	3332
853.107	3363
853.242	3173
853.376	3116
853.511	2986
853.645	3100
853.78	3253
853.914	3150
854.048	3131
854.183	3119
854.317	3150
854.451	3340
854.585	3165
854.72	3104
854.854	3249
854.988	3089
855.122	3112
855.256	3028
855.39	3119
855.524	3283
855.658	3211
855.792	3154
855.926	3222
856.06	3256
856.194	3302
856.327	3173
856.461	3089
856.595	3131
856.729	3138
856.862	3260
856.996	3195
857.13	3222
857.263	3253
857.397	3329
857.53	3146
857.664	3218
857.797	3253
857.931	3272
858.064	3207
858.197	3226
858.331	3165
858.464	3116
858.597	3017
858.731	3127
858.864	3146
858.997	3142
859.13	3180
859.263	3180
859.396	3222
859.529	3108
859.662	3131
859.795	3028
859.928	3138
860.061	3291
860.194	3294
860.327	3123
860.46	3116
860.592	3264
860.725	3279
860.858	3279
860.99	3104
861.123	3089
861.256	3074
861.388	3173
861.521	3896
861.653	3020
861.786	3013
861.918	3013
862.05	3104
862.183	3127
862.315	3142
862.447	3230
862.58	3127
862.712	2956
862.844	2895
862.976	3066
863.108	3013
863.24	3359
863.372	2899
863.504	2952
863.636	2979
863.768	3036
863.9	3005
864.032	2902
864.164	2986
864.296	3032
864.428	3123
864.559	3066
864.691	3131
864.823	3093
864.954	3032
865.086	3089
865.217	3009
865.349	2963
865.48	3024
865.612	3020
865.743	3173
865.875	3020
866.006	2944
866.137	2982
866.269	2963
866.4	2971
866.531	2944
866.662	2925
866.793	2910
866.924	2925
867.055	2937
867.186	2952
867.317	2906
867.448	2899
867.579	2887
867.71	2887
867.841	2868
867.972	2918
868.103	2929
868.233	2902
868.364	2876
868.495	2914
868.625	3097
868.756	3199
868.886	2998
869.017	3058
869.147	3150
869.278	3165
869.408	3062
869.539	3017
869.669	3135
869.799	3051
869.929	3176
870.06	3138
870.19	3348
870.32	3306
870.45	3325
870.58	3431
870.71	3443
870.84	3477
870.97	3291
871.1	3260
871.23	3523
871.36	3481
871.489	3355
871.619	3431
871.749	3424
871.879	3466
872.008	3500
872.138	3367
872.267	3321
872.397	3161
872.526	3066
872.656	3047
872.785	3097
872.915	3249
873.044	3310
873.173	3233
873.303	3230
873.432	3291
873.561	3241
873.69	3184
873.819	3184
873.948	3230
874.077	3119
874.206	3051
874.335	3097
874.464	3214
874.593	3348
874.722	3268
874.851	3405
874.979	3378
875.108	3298
875.237	3230
875.365	3180
875.494	3192
875.623	3268
875.751	3093
875.88	3135
876.008	3218
876.136	3260
876.265	3412
876.393	3538
876.521	3435
876.65	3420
876.778	3367
876.906	3230
877.034	3249
877.162	3218
877.29	3222
877.418	3253
877.546	3222
877.674	3268
877.802	3249
877.93	3249
878.058	3157
878.185	3142
878.313	3222
878.441	3222
878.568	3116
878.696	3169
878.824	3287
878.951	3321
879.079	3454
879.206	3618
879.333	3454
879.461	3355
879.588	3321
879.715	3492
879.842	3606
879.97	3397
880.097	3142
880.224	3112
880.351	3226
880.478	3241
880.605	3249
880.732	3222
880.859	3485
880.986	3344
881.112	3310
881.239	3230
881.366	3123
881.493	3047
881.619	3074
881.746	3119
881.872	3085
881.999	3131
882.125	3154
882.252	3199
882.378	3249
882.505	3462
882.631	3275
882.757	3173
882.883	3218
883.01	3283
883.136	3146
883.262	3142
883.388	3093
883.514	3336
883.64	3359
883.766	3306
883.892	3249
884.018	3211
884.143	3363
884.269	3549
884.395	3230
884.52	3173
884.646	3195
884.772	3138
884.897	3135
885.023	3211
885.148	3329
885.274	3447
885.399	3367
885.524	3291
885.65	3268
885.775	3348
885.9	3298
886.025	3477
886.15	3336
886.275	3291
886.4	3245
886.525	3310
886.65	3291
886.775	3264
886.9	3523
887.025	3663
887.149	3416
887.274	3264
887.399	3207
887.523	3222
887.648	3211
887.773	3272
887.897	3412
888.021	3435
888.146	3283
888.27	3473
888.395	3542
888.519	3473
888.643	3462
888.767	3481
888.891	3332
889.015	3291
889.139	3332
889.263	3256
889.387	3424
889.511	3523
889.635	3450
889.759	3302
889.883	3298
890.006	3355
890.13	3507
890.254	3253
890.377	3336
890.501	3207
890.624	3169
890.748	3340
890.871	3188
890.995	3116
891.118	3093
891.241	3176
891.364	3222
891.488	3329
891.611	3203
891.734	3241
891.857	3294
891.98	3237
892.103	3370
892.226	3291
892.349	3256
892.471	3097
892.594	3249
892.717	3306
892.839	3294
892.962	3264
893.085	3378
893.207	3329
893.33	3184
893.452	3253
893.575	3370
893.697	3237
893.819	3462
893.941	3515
894.064	3462
894.186	3279
894.308	3268
894.43	3447
894.552	3534
894.674	3488
894.796	3298
894.918	3283
895.04	3302
895.161	3443
895.283	3397
895.405	3294
895.526	3405
895.648	3454
895.769	3435
895.891	3424
896.012	3481
896.134	3443
896.255	3412
896.376	3370
896.498	3370
896.619	3409
896.74	3389
896.861	3401
896.982	3656
897.103	3857
897.224	3625
897.345	3538
897.466	3424
897.587	3519
897.708	3633
897.828	3542
897.949	3488
898.07	3317
898.19	3416
898.311	3618
898.431	3469
898.552	3515
898.672	3587
898.792	3580
898.913	3519
899.033	3389
899.153	3256
899.273	3264
899.393	3313
899.513	3317
899.633	3325
899.753	3344
899.873	3336
899.993	3393
900.113	3336
900.232	3428
900.352	3351
900.472	3302
900.591	3176
900.711	3340
900.83	3294
900.95	3420
901.069	3485
901.189	3367
901.308	3184
901.427	3142
901.546	3207
901.665	3275
901.784	3363
901.904	3188
902.023	3184
902.141	3062
902.26	3051
902.379	3169
902.498	3104
902.617	3070
902.735	3226
902.854	3256
902.973	3214
903.091	3051
903.21	3043
903.328	3154
903.446	3150
903.565	3081
903.683	3233
903.801	3165
903.919	3249
904.038	3306
904.156	3161
904.274	3279
904.392	3283
904.51	3291
904.627	3336
904.745	3405
904.863	3523
904.981	3256
905.098	3142
905.216	3222
905.334	3359
905.451	3310
905.569	3344
905.686	3428
905.803	3428
905.921	3294
906.038	3416
906.155	3359
906.272	3294
906.389	3329
906.506	3222
906.623	3253
906.74	3245
906.857	3203
906.974	3230
907.091	3473
907.208	3591
907.324	3492
907.441	3359
907.557	3253
907.674	3226
907.79	3207
907.907	3302
908.023	3374
908.139	3386
908.256	3313
908.372	3416
908.488	3363
908.604	3275
908.72	3237
908.836	3272
908.952	3302
909.068	3332
909.184	3462
909.3	3393
909.415	3485
909.531	3496
909.647	3294
909.762	3313
909.878	3268
909.993	3348
910.108	3340
910.224	3367
910.339	3382
910.454	3340
910.57	3287
910.685	3233
910.8	3610
910.915	3469
911.03	3443
911.145	3260
911.259	3268
911.374	3313
911.489	3230
911.604	3233
911.718	3112
911.833	3161
911.947	3024
912.062	2979
912.176	3165
912.291	3207
912.405	3203
912.519	3409
912.633	3485
912.748	3348
912.862	3298
912.976	3199
913.09	3108
913.204	3165
913.318	3249
913.431	3306
913.545	3332
913.659	3405
913.772	3336
913.886	3233
914	3195
914.113	3355
914.226	3401
914.34	3351
914.453	3260
914.566	3389
914.68	3310
914.793	3332
914.906	3146
915.019	3108
915.132	3085
915.245	3188
915.358	3195
915.47	3218
915.583	3272
915.696	3272
915.809	3397
915.921	3424
916.034	3233
916.146	3245
916.259	3222
916.371	3367
916.483	3355
916.595	3279
916.708	3348
916.82	3340
916.932	3355
917.044	3363
917.156	3355
917.268	3233
917.38	3332
917.491	3253
917.603	3378
917.715	3462
917.826	3458
917.938	3389
918.049	3294
918.161	3416
918.272	3542
918.384	3564
918.495	3473
918.606	3367
918.717	3245
918.828	3412
918.939	3382
919.05	3317
919.161	3378
919.272	3199
919.383	3325
919.494	3534
919.604	3694
919.715	3469
919.826	3428
919.936	3488
920.047	3553
920.157	3511
920.267	3781
920.378	3614
920.488	3576
920.598	3759
920.708	3975
920.818	3808
920.928	3850
921.038	3983
921.148	3983
921.258	3682
921.368	3622
921.477	3584
921.587	3511
921.697	3477
921.806	3656
921.916	3526
922.025	3363
922.134	3370
922.244	3294
922.353	3416
922.462	3283
922.571	3222
922.68	3116
922.789	3100
922.898	3116
923.007	3116
923.116	3188
923.224	3161
923.333	3218
923.442	3119
923.55	3104
923.659	3180
923.767	3214
923.876	3089
923.984	3211
924.092	3093
924.201	3211
924.309	3207
924.417	3233
924.525	3203
924.633	3249
924.741	4169
924.849	3047
924.956	3264
925.064	3085
925.172	3085
925.279	3062
925.387	3218
925.494	3214
925.602	3355
925.709	3355
925.816	3169
925.924	3294
926.031	3355
926.138	3332
926.245	3329
926.352	3291
926.459	3424
926.566	3466
926.673	3306
926.779	3253
926.886	3275
926.993	3165
927.099	3146
927.206	3135
927.312	3123
927.419	3214
927.525	3203
927.631	3268
927.737	3195
927.843	3127
927.95	3043
928.056	3184
928.162	3214
928.267	3268
928.373	3880
928.479	3321
928.585	3043
928.69	3214
928.796	3287
928.901	3150
929.007	3066
929.112	3165
929.218	3176
929.323	3131
929.428	3138
929.533	3325
929.638	3119
929.743	3165
929.848	3264
929.953	3214
930.058	3150
930.163	3009
930.267	3047
930.372	3211
930.477	3009
930.581	3317
930.685	3184
930.79	3074
930.894	3112
930.998	3116
931.103	3245
931.207	2967
931.311	2948
931.415	2941
931.519	2781
931.623	2766
