Data from test_V78500241_1988.txt Node
Date: Fri Mar 25 16:28:58 CST 2022
User: usil
Spectrometer: V785-0024
Trigger mode: 0
Integration Time (sec): 4.000000E-1
Scans to average: 1
Nonlinearity correction enabled: false
Boxcar width: 0
Storing dark spectrum: false
XAxis mode: Wavelengths
Number of Pixels in Spectrum: 1024
>>>>>Begin Spectral Data<<<<<
801.071	2899
801.214	2914
801.356	2864
801.499	2880
801.641	2887
801.783	2941
801.926	3001
802.068	2971
802.211	2982
802.353	3043
802.496	2906
802.638	2986
802.78	2982
802.923	3070
803.065	2986
803.208	2906
803.35	2887
803.492	2918
803.635	2895
803.777	2746
803.919	2804
804.061	3203
804.204	2929
804.346	2887
804.488	2830
804.63	2941
804.773	2838
804.915	2906
805.057	3089
805.199	2895
805.341	2971
805.483	3017
805.626	3032
805.768	3005
805.91	3097
806.052	3074
806.194	3009
806.336	3192
806.478	3017
806.62	2979
806.762	2929
806.904	2994
807.046	3150
807.188	2994
807.33	2883
807.472	2986
807.614	2891
807.756	2982
807.898	2891
808.04	2857
808.182	2963
808.324	2929
808.465	2845
808.607	2838
808.749	2815
808.891	2857
809.033	2971
809.174	2956
809.316	2861
809.458	2902
809.6	2743
809.741	2800
809.883	2788
810.025	2834
810.166	2811
810.308	2823
810.45	2834
810.591	2766
810.733	2777
810.875	2838
811.016	2796
811.158	2766
811.299	2804
811.441	2906
811.582	2891
811.724	2792
811.865	2811
812.007	2906
812.148	2883
812.29	2811
812.431	2899
812.573	2918
812.714	2922
812.855	3009
812.997	3047
813.138	3100
813.279	3005
813.421	2937
813.562	2922
813.703	2883
813.845	2830
813.986	2735
814.127	2689
814.268	2838
814.41	2861
814.551	2792
814.692	2868
814.833	2785
814.974	2887
815.115	2918
815.256	2830
815.397	2792
815.539	2845
815.68	2739
815.821	2758
815.962	2933
816.103	2876
816.244	2853
816.385	2842
816.526	2956
816.666	2918
816.807	2727
816.948	2872
817.089	2880
817.23	2853
817.371	2750
817.512	2773
817.653	2834
817.793	2811
817.934	2842
818.075	2933
818.216	2963
818.356	3013
818.497	2861
818.638	2788
818.778	2807
818.919	2750
819.06	2727
819.2	2849
819.341	2796
819.481	2769
819.622	2906
819.762	3062
819.903	3032
820.043	2861
820.184	2906
820.324	2891
820.465	3039
820.605	3032
820.746	3009
820.886	2937
821.026	3074
821.167	3161
821.307	3207
821.447	3245
821.588	3222
821.728	3214
821.868	3192
822.008	3070
822.149	3188
822.289	3195
822.429	3085
822.569	3074
822.709	3138
822.849	3001
822.99	3043
823.13	3138
823.27	3184
823.41	3081
823.55	3154
823.69	3138
823.83	3184
823.97	3112
824.11	2982
824.25	2990
824.389	3058
824.529	3127
824.669	3051
824.809	3222
824.949	3287
825.089	3214
825.228	3150
825.368	2979
825.508	2979
825.648	2967
825.787	3036
825.927	3039
826.067	3013
826.206	2956
826.346	3062
826.485	3116
826.625	3142
826.765	3268
826.904	3245
827.044	3036
827.183	2963
827.323	2880
827.462	2998
827.601	2952
827.741	2941
827.88	2994
828.02	2899
828.159	2982
828.298	3077
828.437	3154
828.577	3089
828.716	3294
828.855	3131
828.994	2937
829.134	2922
829.273	2944
829.412	2922
829.551	2902
829.69	2925
829.829	3009
829.968	3180
830.107	3058
830.246	3047
830.385	2910
830.524	2910
830.663	2830
830.802	2735
830.941	2705
831.08	2686
831.219	2781
831.357	2830
831.496	3013
831.635	2766
831.774	2686
831.913	2689
832.051	2602
832.19	2625
832.329	2720
832.467	2560
832.606	2522
832.744	2617
832.883	2632
833.022	2640
833.16	2697
833.299	2708
833.437	2750
833.576	2708
833.714	2739
833.852	2743
833.991	2804
834.129	2834
834.267	2864
834.406	2834
834.544	2861
834.682	2902
834.821	2922
834.959	3070
835.097	2937
835.235	3062
835.373	3036
835.511	3047
835.65	2986
835.788	2971
835.926	2883
836.064	2880
836.202	2876
836.34	3138
836.478	3195
836.615	3047
836.753	3207
836.891	3226
837.029	3211
837.167	3138
837.305	3089
837.443	3085
837.58	2986
837.718	3161
837.856	3097
837.993	3051
838.131	3123
838.269	3116
838.406	3116
838.544	3089
838.681	2982
838.819	2960
838.956	2811
839.094	2906
839.231	2960
839.369	3028
839.506	3409
839.643	3291
839.781	3028
839.918	3009
840.055	3058
840.193	3062
840.33	3100
840.467	3161
840.604	3176
840.742	3431
840.879	3047
841.016	3100
841.153	3169
841.29	3363
841.427	3321
841.564	3325
841.701	3291
841.838	3226
841.975	3214
842.112	3237
842.249	3112
842.385	3051
842.522	3272
842.659	3146
842.796	3051
842.933	3154
843.069	3123
843.206	3039
843.343	3218
843.479	3135
843.616	3199
843.752	2902
843.889	2891
844.025	3112
844.162	2899
844.298	3089
844.435	2960
844.571	2960
844.708	3070
844.844	3237
844.98	3233
845.117	3199
845.253	3062
845.389	3055
845.525	3116
845.661	3127
845.798	3039
845.934	3138
846.07	3066
846.206	3218
846.342	3355
846.478	3260
846.614	3112
846.75	3036
846.886	3013
847.022	3268
847.158	3146
847.294	3207
847.429	3279
847.565	3211
847.701	3523
847.837	3028
847.972	3024
848.108	3161
848.244	3157
848.379	3024
848.515	2967
848.65	2982
848.786	3001
848.921	3032
849.057	3135
849.192	3150
849.328	3116
849.463	3085
849.598	3100
849.734	3043
849.869	2990
850.004	2960
850.14	2982
850.275	2941
850.41	2876
850.545	2937
850.68	2929
850.815	2990
850.95	2975
851.085	3245
851.22	3116
851.355	3077
851.49	3020
851.625	3024
851.76	2998
851.895	2933
852.03	2925
852.165	3062
852.299	3135
852.434	3192
852.569	3135
852.703	3211
852.838	3249
852.973	3370
853.107	3348
853.242	3176
853.376	3157
853.511	3043
853.645	3077
853.78	3287
853.914	3108
854.048	3131
854.183	3097
854.317	3161
854.451	3298
854.585	3142
854.72	3131
854.854	3233
854.988	3089
855.122	3077
855.256	3013
855.39	3138
855.524	3264
855.658	3199
855.792	3211
855.926	3176
856.06	3287
856.194	3283
856.327	3157
856.461	3085
856.595	3138
856.729	3131
856.862	3222
856.996	3150
857.13	3245
857.263	3241
857.397	3310
857.53	3108
857.664	3245
857.797	3245
857.931	3253
858.064	3222
858.197	3249
858.331	3169
858.464	3112
858.597	3017
858.731	3119
858.864	3135
858.997	3104
859.13	3146
859.263	3211
859.396	3203
859.529	3104
859.662	3093
859.795	3085
859.928	3161
860.061	3306
860.194	3279
860.327	3146
860.46	3127
860.592	3264
860.725	3249
860.858	3272
860.99	3123
861.123	3066
861.256	3066
861.388	3146
861.521	3911
861.653	3089
861.786	3013
861.918	3032
862.05	3093
862.183	3089
862.315	3161
862.447	3237
862.58	3135
862.712	3020
862.844	2861
862.976	3055
863.108	3028
863.24	3431
863.372	2872
863.504	2998
863.636	2982
863.768	3028
863.9	2982
864.032	2887
864.164	2956
864.296	3020
864.428	3142
864.559	3085
864.691	3081
864.823	3062
864.954	3009
865.086	3081
865.217	3024
865.349	2975
865.48	2960
865.612	3024
865.743	3188
865.875	2994
866.006	2986
866.137	2986
866.269	2956
866.4	2963
866.531	2941
866.662	2910
866.793	2910
866.924	2922
867.055	2998
867.186	2952
867.317	2941
867.448	2872
867.579	2910
867.71	2883
867.841	2842
867.972	2922
868.103	2910
868.233	2925
868.364	2891
868.495	2925
868.625	3081
868.756	3176
868.886	3009
869.017	3017
869.147	3207
869.278	3192
869.408	3066
869.539	3070
869.669	3135
869.799	3100
869.929	3150
870.06	3100
870.19	3351
870.32	3332
870.45	3321
870.58	3412
870.71	3473
870.84	3409
870.97	3310
871.1	3294
871.23	3477
871.36	3485
871.489	3355
871.619	3416
871.749	3443
871.879	3485
872.008	3530
872.138	3389
872.267	3325
872.397	3180
872.526	3131
872.656	3032
872.785	3142
872.915	3287
873.044	3340
873.173	3264
873.303	3306
873.432	3272
873.561	3256
873.69	3184
873.819	3161
873.948	3161
874.077	3112
874.206	3074
874.335	3104
874.464	3222
874.593	3313
874.722	3283
874.851	3462
874.979	3382
875.108	3332
875.237	3237
875.365	3188
875.494	3180
875.623	3287
875.751	3123
875.88	3150
876.008	3192
876.136	3256
876.265	3416
876.393	3542
876.521	3420
876.65	3409
876.778	3332
876.906	3283
877.034	3222
877.162	3283
877.29	3188
877.418	3283
877.546	3264
877.674	3291
877.802	3226
877.93	3241
878.058	3169
878.185	3123
878.313	3233
878.441	3222
878.568	3119
878.696	3154
878.824	3287
878.951	3298
879.079	3481
879.206	3606
879.333	3466
879.461	3340
879.588	3359
879.715	3492
879.842	3572
879.97	3367
880.097	3192
880.224	3157
880.351	3188
880.478	3230
880.605	3211
880.732	3203
880.859	3511
880.986	3310
881.112	3351
881.239	3180
881.366	3123
881.493	3020
881.619	3020
881.746	3077
881.872	3085
881.999	3157
882.125	3161
882.252	3275
882.378	3325
882.505	3386
882.631	3306
882.757	3173
882.883	3218
883.01	3264
883.136	3199
883.262	3104
883.388	3131
883.514	3332
883.64	3386
883.766	3321
883.892	3192
884.018	3222
884.143	3397
884.269	3572
884.395	3230
884.52	3138
884.646	3184
884.772	3123
884.897	3100
885.023	3237
885.148	3340
885.274	3485
885.399	3355
885.524	3275
885.65	3283
885.775	3317
885.9	3291
886.025	3477
886.15	3382
886.275	3317
886.4	3249
886.525	3317
886.65	3279
886.775	3291
886.9	3534
887.025	3637
887.149	3409
887.274	3264
887.399	3199
887.523	3199
887.648	3203
887.773	3203
887.897	3386
888.021	3462
888.146	3317
888.27	3454
888.395	3534
888.519	3450
888.643	3450
888.767	3447
888.891	3310
889.015	3253
889.139	3283
889.263	3218
889.387	3412
889.511	3530
889.635	3462
889.759	3355
889.883	3340
890.006	3393
890.13	3473
890.254	3321
890.377	3336
890.501	3241
890.624	3192
890.748	3283
890.871	3157
890.995	3138
891.118	3077
891.241	3176
891.364	3211
891.488	3382
891.611	3169
891.734	3203
891.857	3298
891.98	3214
892.103	3340
892.226	3306
892.349	3218
892.471	3138
892.594	3218
892.717	3283
892.839	3268
892.962	3275
893.085	3344
893.207	3298
893.33	3165
893.452	3211
893.575	3370
893.697	3253
893.819	3450
893.941	3507
894.064	3462
894.186	3253
894.308	3264
894.43	3462
894.552	3553
894.674	3492
894.796	3249
894.918	3302
895.04	3283
895.161	3431
895.283	3386
895.405	3332
895.526	3420
895.648	3397
895.769	3412
895.891	3477
896.012	3515
896.134	3431
896.255	3420
896.376	3359
896.498	3351
896.619	3477
896.74	3370
896.861	3416
896.982	3656
897.103	3873
897.224	3587
897.345	3530
897.466	3401
897.587	3504
897.708	3610
897.828	3572
897.949	3450
898.07	3329
898.19	3428
898.311	3648
898.431	3481
898.552	3507
898.672	3603
898.792	3568
898.913	3580
899.033	3374
899.153	3287
899.273	3245
899.393	3306
899.513	3287
899.633	3329
899.753	3329
899.873	3302
899.993	3386
900.113	3344
900.232	3405
900.352	3359
900.472	3256
900.591	3256
900.711	3317
900.83	3253
900.95	3424
901.069	3485
901.189	3344
901.308	3165
901.427	3157
901.546	3195
901.665	3283
901.784	3348
901.904	3207
902.023	3138
902.141	3005
902.26	2994
902.379	3112
902.498	3085
902.617	3066
902.735	3218
902.854	3245
902.973	3173
903.091	3051
903.21	3085
903.328	3157
903.446	3138
903.565	3108
903.683	3180
903.801	3142
903.919	3268
904.038	3298
904.156	3184
904.274	3298
904.392	3268
904.51	3291
904.627	3283
904.745	3420
904.863	3488
904.981	3272
905.098	3184
905.216	3230
905.334	3310
905.451	3329
905.569	3313
905.686	3485
905.803	3439
905.921	3332
906.038	3485
906.155	3397
906.272	3313
906.389	3382
906.506	3272
906.623	3287
906.74	3332
906.857	3169
906.974	3283
907.091	3504
907.208	3614
907.324	3553
907.441	3416
907.557	3249
907.674	3272
907.79	3260
907.907	3325
908.023	3458
908.139	3389
908.256	3355
908.372	3409
908.488	3416
908.604	3298
908.72	3268
908.836	3336
908.952	3351
909.068	3401
909.184	3519
909.3	3420
909.415	3580
909.531	3507
909.647	3313
909.762	3317
909.878	3317
909.993	3378
910.108	3420
910.224	3374
910.339	3473
910.454	3370
910.57	3378
910.685	3332
910.8	3603
910.915	3561
911.03	3492
911.145	3310
911.259	3317
911.374	3389
911.489	3294
911.604	3298
911.718	3161
911.833	3169
911.947	3112
912.062	3055
912.176	3203
912.291	3249
912.405	3245
912.519	3454
912.633	3504
912.748	3382
912.862	3313
912.976	3199
913.09	3066
913.204	3188
913.318	3237
913.431	3382
913.545	3378
913.659	3447
913.772	3363
913.886	3272
914	3222
914.113	3431
914.226	3477
914.34	3416
914.453	3272
914.566	3450
914.68	3294
914.793	3370
914.906	3173
915.019	3135
915.132	3123
915.245	3226
915.358	3287
915.47	3256
915.583	3260
915.696	3348
915.809	3447
915.921	3469
916.034	3298
916.146	3283
916.259	3260
916.371	3428
916.483	3409
916.595	3291
916.708	3363
916.82	3382
916.932	3386
917.044	3386
917.156	3370
917.268	3283
917.38	3344
917.491	3348
917.603	3389
917.715	3492
917.826	3519
917.938	3424
918.049	3275
918.161	3492
918.272	3637
918.384	3614
918.495	3542
918.606	3355
918.717	3279
918.828	3420
918.939	3454
919.05	3351
919.161	3382
919.272	3214
919.383	3325
919.494	3519
919.604	3717
919.715	3572
919.826	3428
919.936	3469
920.047	3671
920.157	3599
920.267	3785
920.378	3606
920.488	3625
920.598	3819
920.708	3949
920.818	3850
920.928	3854
921.038	4055
921.148	4032
921.258	3728
921.368	3679
921.477	3595
921.587	3576
921.697	3481
921.806	3648
921.916	3576
922.025	3428
922.134	3378
922.244	3348
922.353	3473
922.462	3291
922.571	3283
922.68	3169
922.789	3142
922.898	3142
923.007	3150
923.116	3253
923.224	3188
923.333	3184
923.442	3119
923.55	3104
923.659	3180
923.767	3291
923.876	3142
923.984	3253
924.092	3173
924.201	3222
924.309	3253
924.417	3230
924.525	3230
924.633	3272
924.741	4207
924.849	3116
924.956	3275
925.064	3089
925.172	3108
925.279	3131
925.387	3203
925.494	3214
925.602	3363
925.709	3378
925.816	3237
925.924	3283
926.031	3409
926.138	3367
926.245	3416
926.352	3279
926.459	3409
926.566	3504
926.673	3325
926.779	3321
926.886	3294
926.993	3173
927.099	3146
927.206	3119
927.312	3184
927.419	3279
927.525	3249
927.631	3325
927.737	3230
927.843	3169
927.95	3062
928.056	3199
928.162	3173
928.267	3272
928.373	3884
928.479	3336
928.585	3100
928.69	3253
928.796	3279
928.901	3192
929.007	3070
929.112	3233
929.218	3195
929.323	3161
929.428	3192
929.533	3329
929.638	3142
929.743	3192
929.848	3264
929.953	3264
930.058	3135
930.163	3047
930.267	3081
930.372	3230
930.477	3074
930.581	3355
930.685	3203
930.79	3085
930.894	3146
930.998	3085
931.103	3348
931.207	2994
931.311	2998
931.415	2982
931.519	2788
931.623	2876
