Data from test_V78500241_1974.txt Node
Date: Fri Mar 25 16:28:52 CST 2022
User: usil
Spectrometer: V785-0024
Trigger mode: 0
Integration Time (sec): 4.000000E-1
Scans to average: 1
Nonlinearity correction enabled: false
Boxcar width: 0
Storing dark spectrum: false
XAxis mode: Wavelengths
Number of Pixels in Spectrum: 1024
>>>>>Begin Spectral Data<<<<<
801.071	2918
801.214	2956
801.356	2845
801.499	2864
801.641	2891
801.783	2914
801.926	3036
802.068	2994
802.211	3020
802.353	3047
802.496	2975
802.638	3032
802.78	3043
802.923	3055
803.065	3017
803.208	2876
803.35	2948
803.492	2967
803.635	2922
803.777	2777
803.919	2838
804.061	3176
804.204	2918
804.346	2895
804.488	2823
804.63	2960
804.773	2876
804.915	2857
805.057	3081
805.199	2902
805.341	2990
805.483	3043
805.626	2998
805.768	2971
805.91	3097
806.052	3089
806.194	3043
806.336	3256
806.478	2986
806.62	2960
806.762	2982
806.904	3085
807.046	3188
807.188	2990
807.33	2925
807.472	3020
807.614	2910
807.756	3017
807.898	2937
808.04	2925
808.182	2963
808.324	2933
808.465	2872
808.607	2864
808.749	2773
808.891	2823
809.033	2952
809.174	2944
809.316	2895
809.458	2876
809.6	2773
809.741	2766
809.883	2777
810.025	2861
810.166	2845
810.308	2845
810.45	2834
810.591	2758
810.733	2754
810.875	2838
811.016	2800
811.158	2785
811.299	2781
811.441	2956
811.582	2910
811.724	2868
811.865	2834
812.007	2868
812.148	2868
812.29	2834
812.431	2868
812.573	2937
812.714	2960
812.855	3036
812.997	3039
813.138	3131
813.279	3020
813.421	3009
813.562	2941
813.703	2902
813.845	2868
813.986	2766
814.127	2739
814.268	2830
814.41	2826
814.551	2819
814.692	2864
814.833	2788
814.974	2857
815.115	2956
815.256	2845
815.397	2826
815.539	2838
815.68	2762
815.821	2823
815.962	2933
816.103	2944
816.244	2868
816.385	2826
816.526	2944
816.666	2922
816.807	2758
816.948	2880
817.089	2887
817.23	2849
817.371	2766
817.512	2785
817.653	2842
817.793	2838
817.934	2849
818.075	2967
818.216	2971
818.356	3001
818.497	2906
818.638	2788
818.778	2819
818.919	2800
819.06	2777
819.2	2845
819.341	2807
819.481	2815
819.622	2895
819.762	3097
819.903	3055
820.043	2933
820.184	2895
820.324	2925
820.465	2994
820.605	3017
820.746	3024
820.886	2929
821.026	3043
821.167	3119
821.307	3214
821.447	3298
821.588	3241
821.728	3169
821.868	3195
822.008	3077
822.149	3138
822.289	3214
822.429	3104
822.569	3066
822.709	3180
822.849	3074
822.99	3039
823.13	3135
823.27	3207
823.41	3100
823.55	3131
823.69	3154
823.83	3176
823.97	3104
824.11	2998
824.25	3009
824.389	3089
824.529	3108
824.669	3074
824.809	3188
824.949	3249
825.089	3192
825.228	3157
825.368	2975
825.508	2948
825.648	2956
825.787	3032
825.927	2979
826.067	2982
826.206	2982
826.346	3036
826.485	3043
826.625	3081
826.765	3272
826.904	3180
827.044	2979
827.183	2895
827.323	2834
827.462	2952
827.601	2868
827.741	2937
827.88	2952
828.02	2838
828.159	2979
828.298	3051
828.437	3100
828.577	3036
828.716	3287
828.855	3047
828.994	2895
829.134	2895
829.273	2922
829.412	2838
829.551	2849
829.69	2906
829.829	2971
829.968	3123
830.107	3017
830.246	3024
830.385	2941
830.524	2857
830.663	2807
830.802	2754
830.941	2644
831.08	2606
831.219	2781
831.357	2750
831.496	2952
831.635	2708
831.774	2617
831.913	2636
832.051	2549
832.19	2541
832.329	2670
832.467	2530
832.606	2461
832.744	2571
832.883	2621
833.022	2583
833.16	2659
833.299	2686
833.437	2682
833.576	2670
833.714	2720
833.852	2712
833.991	2712
834.129	2842
834.267	2830
834.406	2807
834.544	2861
834.682	2891
834.821	2849
834.959	3074
835.097	2838
835.235	3062
835.373	2963
835.511	3020
835.65	2979
835.788	2986
835.926	2807
836.064	2796
836.202	2868
836.34	3085
836.478	3150
836.615	3032
836.753	3131
836.891	3245
837.029	3142
837.167	3070
837.305	3093
837.443	3028
837.58	2975
837.718	3108
837.856	3043
837.993	3036
838.131	3093
838.269	3100
838.406	3070
838.544	3085
838.681	2918
838.819	2944
838.956	2785
839.094	2830
839.231	2906
839.369	3020
839.506	3412
839.643	3222
839.781	3028
839.918	2960
840.055	3028
840.193	3058
840.33	3051
840.467	3097
840.604	3123
840.742	3363
840.879	3051
841.016	3047
841.153	3116
841.29	3321
841.427	3268
841.564	3260
841.701	3294
841.838	3233
841.975	3207
842.112	3222
842.249	3058
842.385	3047
842.522	3268
842.659	3142
842.796	3024
842.933	3119
843.069	3032
843.206	2986
843.343	3188
843.479	3089
843.616	3116
843.752	2883
843.889	2842
844.025	3039
844.162	2838
844.298	3074
844.435	2925
844.571	2902
844.708	3058
844.844	3157
844.98	3253
845.117	3203
845.253	3024
845.389	2986
845.525	3085
845.661	3108
845.798	3001
845.934	3089
846.07	3032
846.206	3173
846.342	3313
846.478	3199
846.614	3047
846.75	3032
846.886	3013
847.022	3237
847.158	3119
847.294	3161
847.429	3233
847.565	3192
847.701	3481
847.837	3013
847.972	3009
848.108	3127
848.244	3157
848.379	2982
848.515	2933
848.65	2925
848.786	2963
848.921	3028
849.057	3070
849.192	3135
849.328	3047
849.463	3104
849.598	3051
849.734	3020
849.869	2960
850.004	2922
850.14	2975
850.275	2853
850.41	2819
850.545	2883
850.68	2944
850.815	2960
850.95	2990
851.085	3157
851.22	3093
851.355	2998
851.49	3009
851.625	3013
851.76	3013
851.895	2925
852.03	2899
852.165	3017
852.299	3123
852.434	3173
852.569	3127
852.703	3154
852.838	3260
852.973	3329
853.107	3294
853.242	3161
853.376	3104
853.511	2982
853.645	3039
853.78	3214
853.914	3131
854.048	3108
854.183	3074
854.317	3119
854.451	3268
854.585	3123
854.72	3062
854.854	3169
854.988	3024
855.122	3089
855.256	2998
855.39	3112
855.524	3237
855.658	3184
855.792	3157
855.926	3150
856.06	3211
856.194	3268
856.327	3150
856.461	3058
856.595	3051
856.729	3081
856.862	3218
856.996	3150
857.13	3214
857.263	3211
857.397	3253
857.53	3119
857.664	3165
857.797	3233
857.931	3256
858.064	3123
858.197	3222
858.331	3135
858.464	3074
858.597	2982
858.731	3093
858.864	3119
858.997	3070
859.13	3154
859.263	3154
859.396	3188
859.529	3085
859.662	3055
859.795	3070
859.928	3146
860.061	3260
860.194	3294
860.327	3108
860.46	3104
860.592	3230
860.725	3253
860.858	3237
860.99	3119
861.123	3028
861.256	3055
861.388	3157
861.521	3880
861.653	2979
861.786	2986
861.918	3024
862.05	3051
862.183	3066
862.315	3150
862.447	3207
862.58	3077
862.712	2910
862.844	2861
862.976	2998
863.108	3009
863.24	3412
863.372	2872
863.504	2990
863.636	2937
863.768	3024
863.9	2948
864.032	2891
864.164	2944
864.296	3017
864.428	3089
864.559	3081
864.691	3097
864.823	3066
864.954	3028
865.086	3039
865.217	2975
865.349	2914
865.48	2975
865.612	3017
865.743	3169
865.875	2975
866.006	2922
866.137	2967
866.269	2933
866.4	2929
866.531	2910
866.662	2914
866.793	2880
866.924	2876
867.055	2963
867.186	2933
867.317	2857
867.448	2842
867.579	2834
867.71	2838
867.841	2830
867.972	2895
868.103	2906
868.233	2891
868.364	2853
868.495	2876
868.625	3081
868.756	3131
868.886	2952
869.017	3001
869.147	3150
869.278	3150
869.408	3032
869.539	2998
869.669	3089
869.799	3009
869.929	3112
870.06	3104
870.19	3332
870.32	3268
870.45	3291
870.58	3340
870.71	3439
870.84	3416
870.97	3317
871.1	3275
871.23	3458
871.36	3492
871.489	3374
871.619	3389
871.749	3344
871.879	3435
872.008	3443
872.138	3325
872.267	3260
872.397	3161
872.526	3070
872.656	3009
872.785	3116
872.915	3237
873.044	3313
873.173	3203
873.303	3237
873.432	3241
873.561	3214
873.69	3146
873.819	3104
873.948	3176
874.077	3085
874.206	3066
874.335	3074
874.464	3207
874.593	3329
874.722	3230
874.851	3405
874.979	3329
875.108	3332
875.237	3184
875.365	3173
875.494	3127
875.623	3226
875.751	3089
875.88	3116
876.008	3169
876.136	3184
876.265	3340
876.393	3519
876.521	3386
876.65	3382
876.778	3294
876.906	3226
877.034	3226
877.162	3214
877.29	3214
877.418	3264
877.546	3245
877.674	3222
877.802	3176
877.93	3207
878.058	3097
878.185	3127
878.313	3207
878.441	3218
878.568	3062
878.696	3131
878.824	3207
878.951	3340
879.079	3412
879.206	3591
879.333	3409
879.461	3321
879.588	3401
879.715	3462
879.842	3595
879.97	3389
880.097	3131
880.224	3119
880.351	3188
880.478	3180
880.605	3195
880.732	3203
880.859	3477
880.986	3291
881.112	3264
881.239	3195
881.366	3066
881.493	3001
881.619	2975
881.746	3055
881.872	3104
881.999	3062
882.125	3150
882.252	3226
882.378	3279
882.505	3405
882.631	3283
882.757	3119
882.883	3195
883.01	3226
883.136	3119
883.262	3116
883.388	3127
883.514	3279
883.64	3359
883.766	3298
883.892	3173
884.018	3237
884.143	3420
884.269	3530
884.395	3192
884.52	3161
884.646	3165
884.772	3119
884.897	3116
885.023	3173
885.148	3294
885.274	3450
885.399	3409
885.524	3287
885.65	3233
885.775	3294
885.9	3260
886.025	3424
886.15	3359
886.275	3283
886.4	3214
886.525	3344
886.65	3249
886.775	3310
886.9	3492
887.025	3644
887.149	3386
887.274	3245
887.399	3173
887.523	3222
887.648	3157
887.773	3211
887.897	3389
888.021	3367
888.146	3279
888.27	3431
888.395	3515
888.519	3412
888.643	3447
888.767	3477
888.891	3321
889.015	3260
889.139	3313
889.263	3268
889.387	3389
889.511	3504
889.635	3409
889.759	3313
889.883	3306
890.006	3382
890.13	3496
890.254	3272
890.377	3348
890.501	3188
890.624	3203
890.748	3291
890.871	3165
890.995	3123
891.118	3032
891.241	3192
891.364	3214
891.488	3336
891.611	3150
891.734	3192
891.857	3268
891.98	3199
892.103	3325
892.226	3313
892.349	3192
892.471	3157
892.594	3230
892.717	3268
892.839	3260
892.962	3306
893.085	3359
893.207	3313
893.33	3161
893.452	3226
893.575	3359
893.697	3207
893.819	3450
893.941	3492
894.064	3431
894.186	3241
894.308	3260
894.43	3473
894.552	3488
894.674	3469
894.796	3283
894.918	3329
895.04	3272
895.161	3462
895.283	3378
895.405	3268
895.526	3351
895.648	3401
895.769	3424
895.891	3485
896.012	3469
896.134	3481
896.255	3401
896.376	3393
896.498	3370
896.619	3416
896.74	3351
896.861	3374
896.982	3660
897.103	3819
897.224	3587
897.345	3469
897.466	3416
897.587	3458
897.708	3618
897.828	3572
897.949	3405
898.07	3313
898.19	3412
898.311	3614
898.431	3428
898.552	3519
898.672	3610
898.792	3572
898.913	3523
899.033	3401
899.153	3306
899.273	3211
899.393	3302
899.513	3344
899.633	3332
899.753	3332
899.873	3291
899.993	3401
900.113	3329
900.232	3359
900.352	3348
900.472	3264
900.591	3169
900.711	3294
900.83	3222
900.95	3401
901.069	3462
901.189	3329
901.308	3184
901.427	3135
901.546	3169
901.665	3313
901.784	3321
901.904	3207
902.023	3154
902.141	2990
902.26	2994
902.379	3131
902.498	3005
902.617	3039
902.735	3211
902.854	3249
902.973	3226
903.091	3020
903.21	3070
903.328	3131
903.446	3093
903.565	3097
903.683	3207
903.801	3123
903.919	3207
904.038	3291
904.156	3169
904.274	3287
904.392	3256
904.51	3237
904.627	3332
904.745	3447
904.863	3477
904.981	3241
905.098	3161
905.216	3241
905.334	3294
905.451	3275
905.569	3294
905.686	3431
905.803	3435
905.921	3272
906.038	3420
906.155	3351
906.272	3268
906.389	3298
906.506	3226
906.623	3226
906.74	3275
906.857	3192
906.974	3241
907.091	3428
907.208	3523
907.324	3458
907.441	3389
907.557	3249
907.674	3214
907.79	3192
907.907	3310
908.023	3393
908.139	3336
908.256	3321
908.372	3405
908.488	3359
908.604	3218
908.72	3249
908.836	3283
908.952	3287
909.068	3351
909.184	3469
909.3	3416
909.415	3500
909.531	3443
909.647	3253
909.762	3283
909.878	3226
909.993	3386
910.108	3310
910.224	3302
910.339	3397
910.454	3351
910.57	3313
910.685	3230
910.8	3599
910.915	3568
911.03	3424
911.145	3241
911.259	3253
911.374	3298
911.489	3237
911.604	3222
911.718	3127
911.833	3142
911.947	3028
912.062	3009
912.176	3150
912.291	3184
912.405	3180
912.519	3462
912.633	3485
912.748	3325
912.862	3291
912.976	3195
913.09	3043
913.204	3138
913.318	3173
913.431	3348
913.545	3329
913.659	3428
913.772	3355
913.886	3199
914	3214
914.113	3348
914.226	3374
914.34	3393
914.453	3199
914.566	3462
914.68	3256
914.793	3272
914.906	3135
915.019	3081
915.132	3058
915.245	3127
915.358	3214
915.47	3207
915.583	3268
915.696	3283
915.809	3382
915.921	3412
916.034	3233
916.146	3256
916.259	3173
916.371	3389
916.483	3363
916.595	3230
916.708	3336
916.82	3355
916.932	3325
917.044	3359
917.156	3332
917.268	3268
917.38	3294
917.491	3287
917.603	3351
917.715	3450
917.826	3477
917.938	3405
918.049	3218
918.161	3409
918.272	3580
918.384	3545
918.495	3492
918.606	3317
918.717	3275
918.828	3367
918.939	3447
919.05	3294
919.161	3374
919.272	3203
919.383	3279
919.494	3515
919.604	3686
919.715	3500
919.826	3409
919.936	3443
920.047	3599
920.157	3542
920.267	3762
920.378	3610
920.488	3580
920.598	3732
920.708	3945
920.818	3808
920.928	3819
921.038	4010
921.148	3998
921.258	3675
921.368	3637
921.477	3564
921.587	3515
921.697	3481
921.806	3614
921.916	3553
922.025	3332
922.134	3370
922.244	3332
922.353	3424
922.462	3275
922.571	3211
922.68	3123
922.789	3085
922.898	3127
923.007	3077
923.116	3176
923.224	3165
923.333	3199
923.442	3108
923.55	3077
923.659	3123
923.767	3207
923.876	3119
923.984	3233
924.092	3104
924.201	3169
924.309	3203
924.417	3264
924.525	3146
924.633	3249
924.741	4181
924.849	3020
924.956	3241
925.064	3058
925.172	3013
925.279	3119
925.387	3237
925.494	3180
925.602	3336
925.709	3313
925.816	3192
925.924	3272
926.031	3363
926.138	3351
926.245	3340
926.352	3264
926.459	3454
926.566	3450
926.673	3298
926.779	3233
926.886	3245
926.993	3142
927.099	3173
927.206	3123
927.312	3104
927.419	3230
927.525	3214
927.631	3241
927.737	3157
927.843	3112
927.95	3032
928.056	3093
928.162	3203
928.267	3302
928.373	3892
928.479	3260
928.585	3074
928.69	3230
928.796	3279
928.901	3150
929.007	3020
929.112	3173
929.218	3207
929.323	3138
929.428	3116
929.533	3283
929.638	3085
929.743	3142
929.848	3253
929.953	3184
930.058	3157
930.163	3009
930.267	3039
930.372	3199
930.477	3036
930.581	3306
930.685	3157
930.79	3093
930.894	3135
930.998	3097
931.103	3245
931.207	2971
931.311	2914
931.415	2895
931.519	2773
931.623	2800
