Data from test_V78500241_761.txt Node
Date: Fri Mar 25 16:20:28 CST 2022
User: usil
Spectrometer: V785-0024
Trigger mode: 0
Integration Time (sec): 4.000000E-1
Scans to average: 1
Nonlinearity correction enabled: false
Boxcar width: 0
Storing dark spectrum: false
XAxis mode: Wavelengths
Number of Pixels in Spectrum: 1024
>>>>>Begin Spectral Data<<<<<
801.071	2941
801.214	2918
801.356	2868
801.499	2861
801.641	2868
801.783	2883
801.926	3074
802.068	3005
802.211	3013
802.353	3024
802.496	2937
802.638	3005
802.78	3036
802.923	3055
803.065	2998
803.208	2853
803.35	2918
803.492	2922
803.635	2910
803.777	2769
803.919	2872
804.061	3214
804.204	2941
804.346	2914
804.488	2861
804.63	2982
804.773	2880
804.915	2918
805.057	3081
805.199	2895
805.341	2971
805.483	2990
805.626	3017
805.768	2967
805.91	3081
806.052	3097
806.194	3017
806.336	3230
806.478	2994
806.62	2982
806.762	2941
806.904	3043
807.046	3135
807.188	2975
807.33	2902
807.472	3009
807.614	2918
807.756	2994
807.898	2914
808.04	2883
808.182	2929
808.324	2944
808.465	2845
808.607	2853
808.749	2766
808.891	2853
809.033	2952
809.174	2971
809.316	2914
809.458	2910
809.6	2800
809.741	2781
809.883	2811
810.025	2849
810.166	2830
810.308	2834
810.45	2838
810.591	2785
810.733	2773
810.875	2834
811.016	2743
811.158	2746
811.299	2781
811.441	2948
811.582	2876
811.724	2811
811.865	2845
812.007	2906
812.148	2857
812.29	2838
812.431	2891
812.573	2937
812.714	2971
812.855	3043
812.997	3039
813.138	3119
813.279	3024
813.421	2994
813.562	2944
813.703	2864
813.845	2845
813.986	2788
814.127	2678
814.268	2811
814.41	2804
814.551	2823
814.692	2842
814.833	2804
814.974	2918
815.115	2944
815.256	2842
815.397	2815
815.539	2853
815.68	2815
815.821	2766
815.962	2941
816.103	2887
816.244	2906
816.385	2872
816.526	2960
816.666	2906
816.807	2758
816.948	2849
817.089	2944
817.23	2861
817.371	2807
817.512	2773
817.653	2830
817.793	2857
817.934	2861
818.075	2925
818.216	3013
818.356	3028
818.497	2891
818.638	2796
818.778	2838
818.919	2758
819.06	2781
819.2	2876
819.341	2796
819.481	2781
819.622	2925
819.762	3104
819.903	3024
820.043	2929
820.184	2876
820.324	2899
820.465	3020
820.605	3020
820.746	3005
820.886	2906
821.026	3112
821.167	3138
821.307	3222
821.447	3298
821.588	3230
821.728	3184
821.868	3142
822.008	3089
822.149	3154
822.289	3188
822.429	3081
822.569	3074
822.709	3192
822.849	2963
822.99	3085
823.13	3146
823.27	3211
823.41	3108
823.55	3135
823.69	3127
823.83	3165
823.97	3116
824.11	3001
824.25	2994
824.389	3062
824.529	3089
824.669	3062
824.809	3214
824.949	3233
825.089	3222
825.228	3131
825.368	2971
825.508	2986
825.648	2986
825.787	2986
825.927	3017
826.067	2960
826.206	2941
826.346	3036
826.485	3036
826.625	3077
826.765	3264
826.904	3237
827.044	2994
827.183	2937
827.323	2868
827.462	3005
827.601	2887
827.741	2948
827.88	2948
828.02	2853
828.159	2933
828.298	3055
828.437	3070
828.577	3039
828.716	3214
828.855	3112
828.994	2895
829.134	2864
829.273	2906
829.412	2842
829.551	2857
829.69	2883
829.829	2933
829.968	3119
830.107	2994
830.246	2990
830.385	2895
830.524	2849
830.663	2826
830.802	2735
830.941	2640
831.08	2648
831.219	2743
831.357	2739
831.496	2941
831.635	2716
831.774	2644
831.913	2678
832.051	2518
832.19	2594
832.329	2712
832.467	2507
832.606	2476
832.744	2617
832.883	2571
833.022	2587
833.16	2686
833.299	2689
833.437	2651
833.576	2663
833.714	2712
833.852	2720
833.991	2750
834.129	2842
834.267	2838
834.406	2811
834.544	2853
834.682	2853
834.821	2880
834.959	3058
835.097	2872
835.235	3047
835.373	2952
835.511	3005
835.65	2963
835.788	2952
835.926	2823
836.064	2800
836.202	2826
836.34	3119
836.478	3138
836.615	3028
836.753	3100
836.891	3131
837.029	3165
837.167	3089
837.305	3043
837.443	3047
837.58	2967
837.718	3097
837.856	3024
837.993	3009
838.131	3108
838.269	3131
838.406	3077
838.544	3074
838.681	2929
838.819	2891
838.956	2804
839.094	2811
839.231	2918
839.369	2986
839.506	3351
839.643	3253
839.781	3005
839.918	2952
840.055	3036
840.193	3039
840.33	3013
840.467	3112
840.604	3138
840.742	3389
840.879	3020
841.016	3036
841.153	3100
841.29	3336
841.427	3264
841.564	3245
841.701	3287
841.838	3226
841.975	3176
842.112	3188
842.249	3066
842.385	3020
842.522	3241
842.659	3047
842.796	3062
842.933	3085
843.069	3043
843.206	2986
843.343	3173
843.479	3100
843.616	3089
843.752	2887
843.889	2838
844.025	3077
844.162	2864
844.298	3066
844.435	2948
844.571	2891
844.708	3062
844.844	3180
844.98	3211
845.117	3169
845.253	3055
845.389	3009
845.525	3108
845.661	3058
845.798	2990
845.934	3089
846.07	3024
846.206	3211
846.342	3302
846.478	3260
846.614	3039
846.75	3020
846.886	3028
847.022	3222
847.158	3127
847.294	3188
847.429	3230
847.565	3199
847.701	3504
847.837	3032
847.972	2956
848.108	3157
848.244	3135
848.379	2982
848.515	2914
848.65	2922
848.786	2914
848.921	3024
849.057	3070
849.192	3112
849.328	3028
849.463	3093
849.598	3028
849.734	3032
849.869	2982
850.004	2918
850.14	2933
850.275	2910
850.41	2823
850.545	2872
850.68	2929
850.815	2918
850.95	2941
851.085	3154
851.22	3070
851.355	3013
851.49	2994
851.625	2982
851.76	3009
851.895	2891
852.03	2883
852.165	3024
852.299	3112
852.434	3188
852.569	3123
852.703	3173
852.838	3233
852.973	3359
853.107	3336
853.242	3123
853.376	3058
853.511	2971
853.645	3032
853.78	3260
853.914	3146
854.048	3116
854.183	3055
854.317	3142
854.451	3294
854.585	3093
854.72	3127
854.854	3199
854.988	3066
855.122	3119
855.256	2960
855.39	3112
855.524	3211
855.658	3218
855.792	3154
855.926	3192
856.06	3222
856.194	3256
856.327	3089
856.461	3085
856.595	3081
856.729	3093
856.862	3241
856.996	3173
857.13	3169
857.263	3203
857.397	3249
857.53	3142
857.664	3161
857.797	3253
857.931	3233
858.064	3195
858.197	3214
858.331	3138
858.464	3108
858.597	3001
858.731	3070
858.864	3161
858.997	3047
859.13	3169
859.263	3161
859.396	3203
859.529	3108
859.662	3051
859.795	3074
859.928	3142
860.061	3306
860.194	3279
860.327	3127
860.46	3123
860.592	3222
860.725	3249
860.858	3256
860.99	3131
861.123	3028
861.256	3051
861.388	3154
861.521	3915
861.653	3005
861.786	2994
861.918	2998
862.05	3024
862.183	3127
862.315	3135
862.447	3180
862.58	3077
862.712	2906
862.844	2842
862.976	2994
863.108	2979
863.24	3412
863.372	2880
863.504	2971
863.636	2933
863.768	3005
863.9	2975
864.032	2910
864.164	2902
864.296	2994
864.428	3058
864.559	3062
864.691	3108
864.823	3055
864.954	3051
865.086	3020
865.217	2990
865.349	2929
865.48	2979
865.612	3043
865.743	3112
865.875	2979
866.006	2902
866.137	2971
866.269	2963
866.4	2933
866.531	2937
866.662	2861
866.793	2872
866.924	2872
867.055	2979
867.186	2937
867.317	2876
867.448	2826
867.579	2842
867.71	2849
867.841	2804
867.972	2899
868.103	2929
868.233	2872
868.364	2861
868.495	2895
868.625	3074
868.756	3150
868.886	2979
869.017	2963
869.147	3146
869.278	3085
869.408	3028
869.539	3005
869.669	3097
869.799	3001
869.929	3135
870.06	3150
870.19	3260
870.32	3256
870.45	3321
870.58	3359
870.71	3443
870.84	3424
870.97	3291
871.1	3222
871.23	3458
871.36	3435
871.489	3329
871.619	3401
871.749	3431
871.879	3454
872.008	3477
872.138	3355
872.267	3264
872.397	3123
872.526	3093
872.656	3024
872.785	3089
872.915	3241
873.044	3359
873.173	3214
873.303	3230
873.432	3211
873.561	3253
873.69	3195
873.819	3127
873.948	3161
874.077	3089
874.206	3039
874.335	3058
874.464	3249
874.593	3332
874.722	3260
874.851	3435
874.979	3367
875.108	3272
875.237	3218
875.365	3161
875.494	3176
875.623	3230
875.751	3104
875.88	3119
876.008	3184
876.136	3230
876.265	3367
876.393	3473
876.521	3389
876.65	3378
876.778	3325
876.906	3226
877.034	3154
877.162	3226
877.29	3214
877.418	3226
877.546	3199
877.674	3256
877.802	3253
877.93	3256
878.058	3131
878.185	3058
878.313	3188
878.441	3192
878.568	3081
878.696	3108
878.824	3245
878.951	3287
879.079	3420
879.206	3618
879.333	3435
879.461	3329
879.588	3359
879.715	3485
879.842	3568
879.97	3382
880.097	3146
880.224	3123
880.351	3169
880.478	3230
880.605	3173
880.732	3176
880.859	3481
880.986	3325
881.112	3348
881.239	3199
881.366	3066
881.493	3055
881.619	2998
881.746	3100
881.872	3089
881.999	3119
882.125	3173
882.252	3272
882.378	3275
882.505	3420
882.631	3241
882.757	3173
882.883	3222
883.01	3241
883.136	3138
883.262	3104
883.388	3116
883.514	3287
883.64	3389
883.766	3321
883.892	3188
884.018	3253
884.143	3416
884.269	3538
884.395	3211
884.52	3161
884.646	3157
884.772	3100
884.897	3085
885.023	3230
885.148	3332
885.274	3409
885.399	3336
885.524	3298
885.65	3279
885.775	3363
885.9	3249
886.025	3431
886.15	3397
886.275	3283
886.4	3203
886.525	3294
886.65	3253
886.775	3237
886.9	3500
887.025	3637
887.149	3389
887.274	3256
887.399	3180
887.523	3203
887.648	3188
887.773	3195
887.897	3405
888.021	3397
888.146	3302
888.27	3416
888.395	3576
888.519	3405
888.643	3469
888.767	3496
888.891	3298
889.015	3249
889.139	3275
889.263	3241
889.387	3370
889.511	3511
889.635	3412
889.759	3275
889.883	3348
890.006	3340
890.13	3496
890.254	3302
890.377	3306
890.501	3188
890.624	3195
890.748	3302
890.871	3203
890.995	3119
891.118	3051
891.241	3180
891.364	3207
891.488	3310
891.611	3207
891.734	3226
891.857	3294
891.98	3233
892.103	3287
892.226	3298
892.349	3207
892.471	3116
892.594	3230
892.717	3237
892.839	3268
892.962	3294
893.085	3317
893.207	3283
893.33	3123
893.452	3192
893.575	3321
893.697	3226
893.819	3485
893.941	3485
894.064	3431
894.186	3306
894.308	3294
894.43	3443
894.552	3538
894.674	3462
894.796	3294
894.918	3275
895.04	3264
895.161	3378
895.283	3363
895.405	3287
895.526	3355
895.648	3405
895.769	3466
895.891	3447
896.012	3477
896.134	3488
896.255	3409
896.376	3389
896.498	3367
896.619	3439
896.74	3363
896.861	3401
896.982	3675
897.103	3876
897.224	3526
897.345	3500
897.466	3454
897.587	3454
897.708	3564
897.828	3485
897.949	3424
898.07	3306
898.19	3424
898.311	3599
898.431	3466
898.552	3511
898.672	3553
898.792	3568
898.913	3511
899.033	3458
899.153	3245
899.273	3222
899.393	3237
899.513	3302
899.633	3279
899.753	3363
899.873	3340
899.993	3367
900.113	3367
900.232	3397
900.352	3367
900.472	3313
900.591	3169
900.711	3321
900.83	3222
900.95	3409
901.069	3469
901.189	3359
901.308	3154
901.427	3138
901.546	3214
901.665	3272
901.784	3321
901.904	3184
902.023	3165
902.141	3017
902.26	2956
902.379	3104
902.498	3085
902.617	3020
902.735	3222
902.854	3256
902.973	3173
903.091	3043
903.21	3062
903.328	3112
903.446	3150
903.565	3161
903.683	3188
903.801	3112
903.919	3218
904.038	3272
904.156	3138
904.274	3264
904.392	3237
904.51	3249
904.627	3317
904.745	3447
904.863	3488
904.981	3256
905.098	3161
905.216	3214
905.334	3264
905.451	3302
905.569	3272
905.686	3393
905.803	3450
905.921	3302
906.038	3420
906.155	3340
906.272	3275
906.389	3336
906.506	3237
906.623	3245
906.74	3233
906.857	3184
906.974	3264
907.091	3473
907.208	3538
907.324	3462
907.441	3359
907.557	3207
907.674	3214
907.79	3218
907.907	3272
908.023	3363
908.139	3344
908.256	3332
908.372	3412
908.488	3332
908.604	3256
908.72	3214
908.836	3283
908.952	3291
909.068	3317
909.184	3492
909.3	3424
909.415	3466
909.531	3420
909.647	3306
909.762	3291
909.878	3230
909.993	3325
910.108	3332
910.224	3409
910.339	3359
910.454	3317
910.57	3294
910.685	3218
910.8	3553
910.915	3526
911.03	3405
911.145	3253
911.259	3287
911.374	3329
911.489	3233
911.604	3283
911.718	3097
911.833	3142
911.947	3047
912.062	2918
912.176	3188
912.291	3169
912.405	3256
912.519	3420
912.633	3473
912.748	3336
912.862	3268
912.976	3142
913.09	3062
913.204	3127
913.318	3256
913.431	3340
913.545	3302
913.659	3416
913.772	3298
913.886	3214
914	3188
914.113	3340
914.226	3393
914.34	3329
914.453	3218
914.566	3409
914.68	3226
914.793	3302
914.906	3142
915.019	3070
915.132	3058
915.245	3188
915.358	3165
915.47	3233
915.583	3245
915.696	3302
915.809	3382
915.921	3389
916.034	3260
916.146	3218
916.259	3192
916.371	3397
916.483	3344
916.595	3253
916.708	3351
916.82	3298
916.932	3351
917.044	3298
917.156	3363
917.268	3237
917.38	3264
917.491	3302
917.603	3355
917.715	3420
917.826	3458
917.938	3382
918.049	3245
918.161	3443
918.272	3595
918.384	3606
918.495	3481
918.606	3355
918.717	3256
918.828	3363
918.939	3370
919.05	3294
919.161	3355
919.272	3180
919.383	3241
919.494	3481
919.604	3652
919.715	3492
919.826	3389
919.936	3443
920.047	3553
920.157	3515
920.267	3770
920.378	3603
920.488	3572
920.598	3762
920.708	3937
920.818	3819
920.928	3831
921.038	4006
921.148	3991
921.258	3713
921.368	3625
921.477	3576
921.587	3511
921.697	3439
921.806	3614
921.916	3538
922.025	3389
922.134	3351
922.244	3325
922.353	3431
922.462	3233
922.571	3245
922.68	3077
922.789	3051
922.898	3127
923.007	3116
923.116	3176
923.224	3180
923.333	3184
923.442	3089
923.55	3077
923.659	3192
923.767	3203
923.876	3123
923.984	3222
924.092	3097
924.201	3165
924.309	3207
924.417	3249
924.525	3203
924.633	3218
924.741	4143
924.849	3062
924.956	3279
925.064	3112
925.172	3009
925.279	3097
925.387	3173
925.494	3184
925.602	3317
925.709	3336
925.816	3207
925.924	3279
926.031	3348
926.138	3310
926.245	3329
926.352	3253
926.459	3405
926.566	3496
926.673	3332
926.779	3256
926.886	3233
926.993	3131
927.099	3154
927.206	3142
927.312	3138
927.419	3241
927.525	3199
927.631	3302
927.737	3146
927.843	3146
927.95	3036
928.056	3169
928.162	3214
928.267	3226
928.373	3751
928.479	3306
928.585	3097
928.69	3192
928.796	3241
928.901	3154
929.007	3013
929.112	3237
929.218	3180
929.323	3157
929.428	3169
929.533	3344
929.638	3165
929.743	3142
929.848	3272
929.953	3222
930.058	3199
930.163	3017
930.267	3032
930.372	3146
930.477	3032
930.581	3291
930.685	3207
930.79	3051
930.894	3127
930.998	3085
931.103	3287
931.207	2929
931.311	2906
931.415	2906
931.519	2777
931.623	2773
