Data from test_V78500241_1670.txt Node
Date: Fri Mar 25 16:26:46 CST 2022
User: usil
Spectrometer: V785-0024
Trigger mode: 0
Integration Time (sec): 4.000000E-1
Scans to average: 1
Nonlinearity correction enabled: false
Boxcar width: 0
Storing dark spectrum: false
XAxis mode: Wavelengths
Number of Pixels in Spectrum: 1024
>>>>>Begin Spectral Data<<<<<
801.071	2883
801.214	2922
801.356	2891
801.499	2876
801.641	2872
801.783	2922
801.926	3028
802.068	2975
802.211	2975
802.353	3017
802.496	2975
802.638	2990
802.78	3036
802.923	3062
803.065	2982
803.208	2853
803.35	2883
803.492	2906
803.635	2922
803.777	2727
803.919	2872
804.061	3180
804.204	2948
804.346	2891
804.488	2826
804.63	2994
804.773	2849
804.915	2910
805.057	3077
805.199	2944
805.341	2941
805.483	3043
805.626	3028
805.768	2941
805.91	3074
806.052	3055
806.194	3036
806.336	3260
806.478	2982
806.62	2941
806.762	2963
806.904	3028
807.046	3104
807.188	2986
807.33	2895
807.472	2944
807.614	2880
807.756	2979
807.898	2887
808.04	2868
808.182	3005
808.324	2948
808.465	2887
808.607	2883
808.749	2807
808.891	2853
809.033	2975
809.174	2982
809.316	2899
809.458	2910
809.6	2781
809.741	2743
809.883	2769
810.025	2849
810.166	2876
810.308	2823
810.45	2849
810.591	2785
810.733	2735
810.875	2823
811.016	2796
811.158	2739
811.299	2830
811.441	2960
811.582	2857
811.724	2826
811.865	2815
812.007	2887
812.148	2861
812.29	2849
812.431	2902
812.573	2922
812.714	2944
812.855	3043
812.997	3074
813.138	3138
813.279	2982
813.421	2941
813.562	2979
813.703	2849
813.845	2857
813.986	2762
814.127	2689
814.268	2796
814.41	2815
814.551	2777
814.692	2880
814.833	2823
814.974	2956
815.115	2967
815.256	2845
815.397	2785
815.539	2857
815.68	2754
815.821	2807
815.962	2925
816.103	2937
816.244	2887
816.385	2849
816.526	2929
816.666	2933
816.807	2754
816.948	2891
817.089	2948
817.23	2842
817.371	2773
817.512	2781
817.653	2834
817.793	2861
817.934	2838
818.075	2975
818.216	2979
818.356	2998
818.497	2880
818.638	2804
818.778	2838
818.919	2796
819.06	2731
819.2	2902
819.341	2781
819.481	2807
819.622	2887
819.762	3119
819.903	3051
820.043	2952
820.184	2906
820.324	2880
820.465	3005
820.605	3009
820.746	3028
820.886	2910
821.026	3089
821.167	3157
821.307	3241
821.447	3268
821.588	3192
821.728	3188
821.868	3214
822.008	3036
822.149	3176
822.289	3230
822.429	3062
822.569	3074
822.709	3176
822.849	3024
822.99	3028
823.13	3165
823.27	3180
823.41	3108
823.55	3127
823.69	3138
823.83	3150
823.97	3089
824.11	2982
824.25	3020
824.389	3047
824.529	3112
824.669	3024
824.809	3157
824.949	3230
825.089	3195
825.228	3157
825.368	3001
825.508	2929
825.648	2967
825.787	3032
825.927	3009
826.067	2944
826.206	2941
826.346	3009
826.485	3047
826.625	3077
826.765	3245
826.904	3211
827.044	2998
827.183	2929
827.323	2830
827.462	2967
827.601	2887
827.741	2891
827.88	2975
828.02	2842
828.159	2979
828.298	3051
828.437	3119
828.577	3047
828.716	3264
828.855	3039
828.994	2941
829.134	2883
829.273	2925
829.412	2834
829.551	2891
829.69	2864
829.829	3013
829.968	3093
830.107	2998
830.246	3013
830.385	2910
830.524	2883
830.663	2807
830.802	2735
830.941	2667
831.08	2674
831.219	2746
831.357	2727
831.496	2952
831.635	2659
831.774	2621
831.913	2659
832.051	2568
832.19	2537
832.329	2697
832.467	2530
832.606	2492
832.744	2556
832.883	2564
833.022	2583
833.16	2640
833.299	2697
833.437	2682
833.576	2686
833.714	2720
833.852	2720
833.991	2773
834.129	2838
834.267	2823
834.406	2792
834.544	2880
834.682	2872
834.821	2834
834.959	3055
835.097	2887
835.235	3055
835.373	2963
835.511	3017
835.65	2941
835.788	2937
835.926	2826
836.064	2785
836.202	2849
836.34	3100
836.478	3131
836.615	3066
836.753	3135
836.891	3169
837.029	3146
837.167	3127
837.305	3055
837.443	2967
837.58	2933
837.718	3116
837.856	3058
837.993	3005
838.131	3066
838.269	3051
838.406	3062
838.544	3058
838.681	2944
838.819	2887
838.956	2823
839.094	2811
839.231	2899
839.369	2994
839.506	3351
839.643	3230
839.781	3024
839.918	2925
840.055	3062
840.193	3020
840.33	3017
840.467	3070
840.604	3127
840.742	3401
840.879	3024
841.016	3028
841.153	3081
841.29	3298
841.427	3245
841.564	3249
841.701	3283
841.838	3195
841.975	3176
842.112	3211
842.249	3089
842.385	3009
842.522	3241
842.659	3081
842.796	3051
842.933	3081
843.069	3058
843.206	3020
843.343	3154
843.479	3070
843.616	3116
843.752	2906
843.889	2868
844.025	3074
844.162	2902
844.298	3077
844.435	2937
844.571	2895
844.708	3028
844.844	3176
844.98	3218
845.117	3184
845.253	3017
845.389	3009
845.525	3104
845.661	3058
845.798	3017
845.934	3077
846.07	3036
846.206	3207
846.342	3294
846.478	3249
846.614	3085
846.75	3043
846.886	3028
847.022	3233
847.158	3108
847.294	3184
847.429	3211
847.565	3226
847.701	3473
847.837	3001
847.972	3001
848.108	3157
848.244	3142
848.379	2986
848.515	2925
848.65	2925
848.786	2960
848.921	3001
849.057	3074
849.192	3108
849.328	3055
849.463	3093
849.598	3058
849.734	3062
849.869	3001
850.004	2868
850.14	2948
850.275	2910
850.41	2777
850.545	2853
850.68	2941
850.815	2967
850.95	2960
851.085	3157
851.22	3093
851.355	3039
851.49	2956
851.625	2994
851.76	2990
851.895	2918
852.03	2891
852.165	3024
852.299	3066
852.434	3146
852.569	3119
852.703	3173
852.838	3214
852.973	3317
853.107	3298
853.242	3116
853.376	3077
853.511	2979
853.645	3032
853.78	3241
853.914	3116
854.048	3119
854.183	3066
854.317	3108
854.451	3268
854.585	3104
854.72	3058
854.854	3203
854.988	3058
855.122	3055
855.256	2967
855.39	3062
855.524	3253
855.658	3135
855.792	3131
855.926	3169
856.06	3214
856.194	3218
856.327	3119
856.461	3055
856.595	3043
856.729	3074
856.862	3195
856.996	3157
857.13	3150
857.263	3211
857.397	3222
857.53	3051
857.664	3165
857.797	3207
857.931	3214
858.064	3173
858.197	3207
858.331	3104
858.464	3077
858.597	2979
858.731	3074
858.864	3104
858.997	3055
859.13	3123
859.263	3176
859.396	3176
859.529	3074
859.662	3062
859.795	2990
859.928	3108
860.061	3275
860.194	3253
860.327	3138
860.46	3062
860.592	3218
860.725	3237
860.858	3249
860.99	3089
861.123	3024
861.256	3055
861.388	3146
861.521	3831
861.653	3028
861.786	3013
861.918	2990
862.05	3036
862.183	3089
862.315	3108
862.447	3173
862.58	3104
862.712	2948
862.844	2864
862.976	3017
863.108	2998
863.24	3435
863.372	2883
863.504	2960
863.636	2952
863.768	3020
863.9	3001
864.032	2906
864.164	2998
864.296	3028
864.428	3077
864.559	3093
864.691	3077
864.823	3081
864.954	3020
865.086	3062
865.217	3009
865.349	2975
865.48	3036
865.612	3020
865.743	3173
865.875	3028
866.006	2929
866.137	2963
866.269	3001
866.4	2963
866.531	2929
866.662	2914
866.793	2929
866.924	2918
867.055	2975
867.186	2967
867.317	2948
867.448	2845
867.579	2868
867.71	2872
867.841	2864
867.972	2933
868.103	2948
868.233	2895
868.364	2910
868.495	2937
868.625	3093
868.756	3211
868.886	2971
869.017	3058
869.147	3211
869.278	3138
869.408	3066
869.539	3097
869.669	3131
869.799	3081
869.929	3146
870.06	3116
870.19	3386
870.32	3302
870.45	3351
870.58	3382
870.71	3507
870.84	3473
870.97	3313
871.1	3268
871.23	3515
871.36	3519
871.489	3351
871.619	3431
871.749	3443
871.879	3431
872.008	3500
872.138	3397
872.267	3332
872.397	3195
872.526	3135
872.656	3062
872.785	3108
872.915	3233
873.044	3351
873.173	3241
873.303	3264
873.432	3272
873.561	3241
873.69	3188
873.819	3184
873.948	3241
874.077	3123
874.206	3070
874.335	3077
874.464	3256
874.593	3382
874.722	3260
874.851	3469
874.979	3393
875.108	3310
875.237	3268
875.365	3192
875.494	3192
875.623	3291
875.751	3093
875.88	3127
876.008	3211
876.136	3226
876.265	3409
876.393	3530
876.521	3466
876.65	3416
876.778	3348
876.906	3283
877.034	3253
877.162	3256
877.29	3226
877.418	3279
877.546	3245
877.674	3287
877.802	3298
877.93	3241
878.058	3173
878.185	3119
878.313	3283
878.441	3253
878.568	3104
878.696	3180
878.824	3287
878.951	3313
879.079	3466
879.206	3606
879.333	3477
879.461	3325
879.588	3359
879.715	3511
879.842	3637
879.97	3409
880.097	3180
880.224	3165
880.351	3222
880.478	3218
880.605	3218
880.732	3199
880.859	3504
880.986	3332
881.112	3401
881.239	3241
881.366	3135
881.493	3055
881.619	3055
881.746	3123
881.872	3112
881.999	3104
882.125	3161
882.252	3306
882.378	3348
882.505	3412
882.631	3279
882.757	3161
882.883	3256
883.01	3256
883.136	3184
883.262	3116
883.388	3138
883.514	3386
883.64	3409
883.766	3332
883.892	3195
884.018	3264
884.143	3454
884.269	3557
884.395	3256
884.52	3142
884.646	3184
884.772	3157
884.897	3146
885.023	3233
885.148	3378
885.274	3431
885.399	3447
885.524	3313
885.65	3294
885.775	3313
885.9	3351
886.025	3443
886.15	3386
886.275	3329
886.4	3279
886.525	3317
886.65	3291
886.775	3291
886.9	3511
887.025	3679
887.149	3431
887.274	3306
887.399	3245
887.523	3237
887.648	3222
887.773	3233
887.897	3397
888.021	3412
888.146	3332
888.27	3450
888.395	3568
888.519	3416
888.643	3462
888.767	3511
888.891	3317
889.015	3291
889.139	3332
889.263	3313
889.387	3428
889.511	3515
889.635	3454
889.759	3321
889.883	3355
890.006	3416
890.13	3542
890.254	3310
890.377	3397
890.501	3230
890.624	3180
890.748	3332
890.871	3195
890.995	3093
891.118	3066
891.241	3199
891.364	3226
891.488	3321
891.611	3218
891.734	3264
891.857	3298
891.98	3272
892.103	3336
892.226	3313
892.349	3245
892.471	3169
892.594	3260
892.717	3310
892.839	3313
892.962	3313
893.085	3374
893.207	3310
893.33	3173
893.452	3233
893.575	3386
893.697	3306
893.819	3504
893.941	3557
894.064	3519
894.186	3298
894.308	3329
894.43	3477
894.552	3561
894.674	3504
894.796	3275
894.918	3378
895.04	3298
895.161	3458
895.283	3416
895.405	3298
895.526	3397
895.648	3462
895.769	3496
895.891	3507
896.012	3507
896.134	3488
896.255	3435
896.376	3424
896.498	3374
896.619	3458
896.74	3363
896.861	3469
896.982	3694
897.103	3854
897.224	3591
897.345	3538
897.466	3431
897.587	3526
897.708	3622
897.828	3538
897.949	3458
898.07	3363
898.19	3420
898.311	3629
898.431	3477
898.552	3526
898.672	3618
898.792	3587
898.913	3557
899.033	3409
899.153	3359
899.273	3233
899.393	3329
899.513	3317
899.633	3313
899.753	3344
899.873	3317
899.993	3397
900.113	3329
900.232	3409
900.352	3344
900.472	3302
900.591	3256
900.711	3310
900.83	3256
900.95	3416
901.069	3485
901.189	3382
901.308	3165
901.427	3146
901.546	3268
901.665	3332
901.784	3344
901.904	3214
902.023	3173
902.141	3043
902.26	2990
902.379	3131
902.498	3093
902.617	3066
902.735	3241
902.854	3268
902.973	3192
903.091	3070
903.21	3097
903.328	3161
903.446	3176
903.565	3119
903.683	3176
903.801	3138
903.919	3272
904.038	3329
904.156	3165
904.274	3325
904.392	3287
904.51	3310
904.627	3367
904.745	3485
904.863	3496
904.981	3294
905.098	3199
905.216	3230
905.334	3340
905.451	3317
905.569	3313
905.686	3466
905.803	3420
905.921	3279
906.038	3473
906.155	3351
906.272	3355
906.389	3382
906.506	3264
906.623	3294
906.74	3283
906.857	3184
906.974	3275
907.091	3504
907.208	3599
907.324	3458
907.441	3435
907.557	3253
907.674	3260
907.79	3233
907.907	3317
908.023	3428
908.139	3382
908.256	3348
908.372	3401
908.488	3355
908.604	3275
908.72	3264
908.836	3287
908.952	3294
909.068	3329
909.184	3526
909.3	3386
909.415	3561
909.531	3519
909.647	3294
909.762	3279
909.878	3310
909.993	3393
910.108	3374
910.224	3336
910.339	3435
910.454	3306
910.57	3310
910.685	3230
910.8	3572
910.915	3534
911.03	3443
911.145	3291
911.259	3332
911.374	3287
911.489	3272
911.604	3214
911.718	3138
911.833	3161
911.947	3043
912.062	3009
912.176	3173
912.291	3203
912.405	3226
912.519	3454
912.633	3500
912.748	3359
912.862	3306
912.976	3203
913.09	3070
913.204	3192
913.318	3184
913.431	3355
913.545	3344
913.659	3454
913.772	3386
913.886	3241
914	3253
914.113	3348
914.226	3416
914.34	3355
914.453	3211
914.566	3416
914.68	3306
914.793	3374
914.906	3188
915.019	3142
915.132	3104
915.245	3226
915.358	3237
915.47	3275
915.583	3264
915.696	3313
915.809	3447
915.921	3450
916.034	3325
916.146	3287
916.259	3222
916.371	3412
916.483	3355
916.595	3279
916.708	3329
916.82	3336
916.932	3344
917.044	3382
917.156	3378
917.268	3283
917.38	3332
917.491	3287
917.603	3416
917.715	3469
917.826	3466
917.938	3374
918.049	3302
918.161	3462
918.272	3576
918.384	3584
918.495	3507
918.606	3336
918.717	3325
918.828	3378
918.939	3477
919.05	3332
919.161	3382
919.272	3192
919.383	3283
919.494	3496
919.604	3728
919.715	3477
919.826	3397
919.936	3450
920.047	3580
920.157	3584
920.267	3732
920.378	3637
920.488	3576
920.598	3793
920.708	3956
920.818	3827
920.928	3823
921.038	4029
921.148	4006
921.258	3698
921.368	3625
921.477	3587
921.587	3553
921.697	3462
921.806	3629
921.916	3542
922.025	3363
922.134	3393
922.244	3272
922.353	3443
922.462	3287
922.571	3203
922.68	3142
922.789	3077
922.898	3142
923.007	3089
923.116	3214
923.224	3180
923.333	3245
923.442	3112
923.55	3112
923.659	3135
923.767	3230
923.876	3119
923.984	3264
924.092	3154
924.201	3199
924.309	3230
924.417	3256
924.525	3199
924.633	3241
924.741	4158
924.849	3017
924.956	3279
925.064	3066
925.172	3020
925.279	3127
925.387	3241
925.494	3226
925.602	3389
925.709	3336
925.816	3203
925.924	3298
926.031	3416
926.138	3298
926.245	3351
926.352	3260
926.459	3428
926.566	3466
926.673	3317
926.779	3260
926.886	3260
926.993	3161
927.099	3150
927.206	3074
927.312	3100
927.419	3218
927.525	3188
927.631	3253
927.737	3131
927.843	3161
927.95	3028
928.056	3165
928.162	3169
928.267	3264
928.373	3930
928.479	3317
928.585	3032
928.69	3260
928.796	3272
928.901	3188
929.007	3005
929.112	3203
929.218	3150
929.323	3173
929.428	3165
929.533	3306
929.638	3085
929.743	3207
929.848	3272
929.953	3180
930.058	3150
930.163	3001
930.267	3036
930.372	3203
930.477	3039
930.581	3329
930.685	3211
930.79	3093
930.894	3157
930.998	3138
931.103	3291
931.207	2990
931.311	2937
931.415	2902
931.519	2811
931.623	2842
