Data from test_V78500241_1039.txt Node
Date: Fri Mar 25 16:22:24 CST 2022
User: usil
Spectrometer: V785-0024
Trigger mode: 0
Integration Time (sec): 4.000000E-1
Scans to average: 1
Nonlinearity correction enabled: false
Boxcar width: 0
Storing dark spectrum: false
XAxis mode: Wavelengths
Number of Pixels in Spectrum: 1024
>>>>>Begin Spectral Data<<<<<
801.071	2922
801.214	2925
801.356	2849
801.499	2887
801.641	2887
801.783	2906
801.926	3036
802.068	2952
802.211	3024
802.353	2998
802.496	2948
802.638	3017
802.78	3036
802.923	3036
803.065	3005
803.208	2887
803.35	2925
803.492	2914
803.635	2883
803.777	2727
803.919	2826
804.061	3192
804.204	2906
804.346	2918
804.488	2819
804.63	3009
804.773	2902
804.915	2906
805.057	3093
805.199	2918
805.341	2956
805.483	3024
805.626	3005
805.768	2986
805.91	3074
806.052	3097
806.194	3009
806.336	3195
806.478	3005
806.62	2979
806.762	2990
806.904	3032
807.046	3199
807.188	2979
807.33	2906
807.472	2979
807.614	2902
807.756	2952
807.898	2902
808.04	2880
808.182	2971
808.324	2922
808.465	2895
808.607	2864
808.749	2773
808.891	2834
809.033	2982
809.174	2937
809.316	2868
809.458	2868
809.6	2712
809.741	2785
809.883	2739
810.025	2868
810.166	2849
810.308	2811
810.45	2861
810.591	2758
810.733	2788
810.875	2842
811.016	2769
811.158	2754
811.299	2811
811.441	2929
811.582	2864
811.724	2834
811.865	2811
812.007	2902
812.148	2906
812.29	2838
812.431	2864
812.573	2941
812.714	2963
812.855	3047
812.997	3043
813.138	3104
813.279	3001
813.421	2948
813.562	2990
813.703	2864
813.845	2883
813.986	2762
814.127	2727
814.268	2819
814.41	2811
814.551	2792
814.692	2864
814.833	2819
814.974	2941
815.115	2948
815.256	2807
815.397	2819
815.539	2895
815.68	2777
815.821	2819
815.962	2948
816.103	2941
816.244	2872
816.385	2826
816.526	2971
816.666	2952
816.807	2720
816.948	2864
817.089	2887
817.23	2834
817.371	2788
817.512	2800
817.653	2845
817.793	2819
817.934	2906
818.075	2967
818.216	2963
818.356	3020
818.497	2880
818.638	2773
818.778	2819
818.919	2838
819.06	2739
819.2	2849
819.341	2838
819.481	2800
819.622	2899
819.762	3066
819.903	3005
820.043	2902
820.184	2872
820.324	2906
820.465	3028
820.605	2986
820.746	3028
820.886	2910
821.026	3104
821.167	3180
821.307	3249
821.447	3264
821.588	3237
821.728	3173
821.868	3180
822.008	3112
822.149	3154
822.289	3214
822.429	3058
822.569	3093
822.709	3207
822.849	3017
822.99	3085
823.13	3142
823.27	3218
823.41	3131
823.55	3138
823.69	3165
823.83	3184
823.97	3093
824.11	3001
824.25	3001
824.389	3062
824.529	3085
824.669	3043
824.809	3184
824.949	3199
825.089	3230
825.228	3154
825.368	3017
825.508	2937
825.648	2960
825.787	2994
825.927	3017
826.067	2956
826.206	2933
826.346	3039
826.485	3039
826.625	3116
826.765	3241
826.904	3192
827.044	2941
827.183	2933
827.323	2861
827.462	2979
827.601	2933
827.741	2929
827.88	2941
828.02	2834
828.159	2941
828.298	2994
828.437	3112
828.577	3028
828.716	3237
828.855	3070
828.994	2902
829.134	2887
829.273	2891
829.412	2853
829.551	2872
829.69	2895
829.829	2986
829.968	3135
830.107	2998
830.246	2979
830.385	2944
830.524	2853
830.663	2788
830.802	2746
830.941	2663
831.08	2617
831.219	2739
831.357	2746
831.496	2941
831.635	2720
831.774	2640
831.913	2625
832.051	2503
832.19	2564
832.329	2667
832.467	2556
832.606	2469
832.744	2552
832.883	2575
833.022	2575
833.16	2621
833.299	2682
833.437	2667
833.576	2682
833.714	2716
833.852	2731
833.991	2800
834.129	2857
834.267	2796
834.406	2769
834.544	2857
834.682	2849
834.821	2864
834.959	3055
835.097	2887
835.235	3070
835.373	3013
835.511	3043
835.65	2925
835.788	2952
835.926	2830
836.064	2796
836.202	2861
836.34	3085
836.478	3161
836.615	3028
836.753	3150
836.891	3169
837.029	3157
837.167	3112
837.305	3039
837.443	3036
837.58	2937
837.718	3123
837.856	3039
837.993	3028
838.131	3142
838.269	3085
838.406	3085
838.544	3077
838.681	2925
838.819	2883
838.956	2834
839.094	2823
839.231	2906
839.369	3024
839.506	3370
839.643	3165
839.781	3009
839.918	2937
840.055	3032
840.193	3028
840.33	3058
840.467	3043
840.604	3176
840.742	3367
840.879	3055
841.016	3028
841.153	3127
841.29	3348
841.427	3294
841.564	3264
841.701	3287
841.838	3256
841.975	3157
842.112	3169
842.249	3074
842.385	3017
842.522	3226
842.659	3108
842.796	3055
842.933	3104
843.069	3047
843.206	3020
843.343	3154
843.479	3116
843.616	3146
843.752	2864
843.889	2876
844.025	3097
844.162	2872
844.298	3036
844.435	2990
844.571	2944
844.708	3039
844.844	3165
844.98	3195
845.117	3184
845.253	3047
845.389	3039
845.525	3100
845.661	3062
845.798	2998
845.934	3108
846.07	3017
846.206	3199
846.342	3279
846.478	3165
846.614	3085
846.75	3043
846.886	2998
847.022	3230
847.158	3100
847.294	3180
847.429	3218
847.565	3203
847.701	3466
847.837	3047
847.972	2975
848.108	3157
848.244	3119
848.379	2952
848.515	2922
848.65	2906
848.786	2929
848.921	2994
849.057	3100
849.192	3165
849.328	3081
849.463	3127
849.598	3047
849.734	3020
849.869	2979
850.004	2937
850.14	2967
850.275	2857
850.41	2800
850.545	2883
850.68	2956
850.815	2952
850.95	2941
851.085	3180
851.22	3127
851.355	3043
851.49	3001
851.625	2941
851.76	3017
851.895	2941
852.03	2910
852.165	2998
852.299	3116
852.434	3188
852.569	3142
852.703	3176
852.838	3245
852.973	3336
853.107	3313
853.242	3131
853.376	3097
853.511	2975
853.645	3051
853.78	3218
853.914	3116
854.048	3131
854.183	3066
854.317	3131
854.451	3275
854.585	3108
854.72	3070
854.854	3188
854.988	3020
855.122	3123
855.256	2986
855.39	3081
855.524	3241
855.658	3176
855.792	3142
855.926	3157
856.06	3226
856.194	3260
856.327	3116
856.461	3066
856.595	3024
856.729	3062
856.862	3173
856.996	3154
857.13	3165
857.263	3237
857.397	3298
857.53	3112
857.664	3176
857.797	3226
857.931	3245
858.064	3188
858.197	3226
858.331	3074
858.464	3085
858.597	3009
858.731	3097
858.864	3116
858.997	3085
859.13	3157
859.263	3157
859.396	3207
859.529	3074
859.662	3066
859.795	3051
859.928	3146
860.061	3237
860.194	3294
860.327	3127
860.46	3081
860.592	3245
860.725	3222
860.858	3249
860.99	3097
861.123	3077
861.256	3047
861.388	3123
861.521	3785
861.653	2986
861.786	2982
861.918	2982
862.05	3047
862.183	3043
862.315	3161
862.447	3203
862.58	3085
862.712	2918
862.844	2876
862.976	3001
863.108	2998
863.24	3420
863.372	2861
863.504	2998
863.636	2933
863.768	3074
863.9	2986
864.032	2876
864.164	2910
864.296	3005
864.428	3085
864.559	3085
864.691	3062
864.823	3032
864.954	3028
865.086	3036
865.217	3028
865.349	2933
865.48	3001
865.612	2986
865.743	3154
865.875	3009
866.006	2914
866.137	2971
866.269	2933
866.4	2902
866.531	2899
866.662	2910
866.793	2887
866.924	2941
867.055	2941
867.186	2902
867.317	2864
867.448	2842
867.579	2823
867.71	2815
867.841	2792
867.972	2876
868.103	2872
868.233	2891
868.364	2880
868.495	2899
868.625	3058
868.756	3165
868.886	2960
869.017	3013
869.147	3138
869.278	3169
869.408	3039
869.539	3005
869.669	3131
869.799	3074
869.929	3146
870.06	3112
870.19	3329
870.32	3291
870.45	3344
870.58	3344
870.71	3462
870.84	3443
870.97	3302
871.1	3256
871.23	3462
871.36	3431
871.489	3321
871.619	3378
871.749	3382
871.879	3412
872.008	3462
872.138	3359
872.267	3279
872.397	3146
872.526	3089
872.656	2998
872.785	3074
872.915	3207
873.044	3317
873.173	3245
873.303	3260
873.432	3233
873.561	3211
873.69	3131
873.819	3119
873.948	3192
874.077	3074
874.206	3043
874.335	3020
874.464	3211
874.593	3321
874.722	3233
874.851	3389
874.979	3344
875.108	3302
875.237	3165
875.365	3188
875.494	3131
875.623	3203
875.751	3081
875.88	3116
876.008	3192
876.136	3184
876.265	3348
876.393	3500
876.521	3401
876.65	3393
876.778	3313
876.906	3188
877.034	3176
877.162	3226
877.29	3195
877.418	3237
877.546	3211
877.674	3222
877.802	3237
877.93	3211
878.058	3138
878.185	3062
878.313	3165
878.441	3165
878.568	3077
878.696	3154
878.824	3249
878.951	3291
879.079	3443
879.206	3614
879.333	3447
879.461	3355
879.588	3355
879.715	3462
879.842	3622
879.97	3348
880.097	3135
880.224	3127
880.351	3173
880.478	3192
880.605	3222
880.732	3169
880.859	3450
880.986	3313
881.112	3294
881.239	3226
881.366	3131
881.493	3051
881.619	2994
881.746	3074
881.872	3058
881.999	3051
882.125	3108
882.252	3241
882.378	3291
882.505	3428
882.631	3256
882.757	3131
882.883	3218
883.01	3230
883.136	3161
883.262	3104
883.388	3077
883.514	3325
883.64	3397
883.766	3306
883.892	3173
884.018	3275
884.143	3439
884.269	3519
884.395	3214
884.52	3138
884.646	3176
884.772	3154
884.897	3108
885.023	3173
885.148	3329
885.274	3393
885.399	3378
885.524	3249
885.65	3260
885.775	3283
885.9	3287
886.025	3439
886.15	3317
886.275	3329
886.4	3203
886.525	3260
886.65	3287
886.775	3279
886.9	3458
887.025	3618
887.149	3412
887.274	3214
887.399	3176
887.523	3169
887.648	3176
887.773	3211
887.897	3340
888.021	3420
888.146	3256
888.27	3416
888.395	3519
888.519	3405
888.643	3439
888.767	3450
888.891	3325
889.015	3214
889.139	3264
889.263	3279
889.387	3378
889.511	3473
889.635	3424
889.759	3233
889.883	3279
890.006	3351
890.13	3473
890.254	3291
890.377	3317
890.501	3203
890.624	3150
890.748	3329
890.871	3169
890.995	3093
891.118	3070
891.241	3188
891.364	3207
891.488	3313
891.611	3176
891.734	3184
891.857	3294
891.98	3237
892.103	3325
892.226	3298
892.349	3157
892.471	3100
892.594	3253
892.717	3279
892.839	3233
892.962	3279
893.085	3340
893.207	3233
893.33	3165
893.452	3169
893.575	3321
893.697	3245
893.819	3500
893.941	3523
894.064	3435
894.186	3233
894.308	3222
894.43	3435
894.552	3557
894.674	3439
894.796	3249
894.918	3302
895.04	3260
895.161	3401
895.283	3363
895.405	3306
895.526	3348
895.648	3409
895.769	3409
895.891	3374
896.012	3447
896.134	3477
896.255	3386
896.376	3367
896.498	3355
896.619	3447
896.74	3336
896.861	3397
896.982	3686
897.103	3846
897.224	3572
897.345	3458
897.466	3412
897.587	3488
897.708	3610
897.828	3568
897.949	3393
898.07	3332
898.19	3420
898.311	3625
898.431	3450
898.552	3496
898.672	3591
898.792	3576
898.913	3519
899.033	3397
899.153	3279
899.273	3245
899.393	3291
899.513	3317
899.633	3298
899.753	3317
899.873	3321
899.993	3363
900.113	3348
900.232	3416
900.352	3340
900.472	3329
900.591	3180
900.711	3294
900.83	3253
900.95	3466
901.069	3549
901.189	3386
901.308	3214
901.427	3157
901.546	3207
901.665	3268
901.784	3374
901.904	3230
902.023	3173
902.141	3074
902.26	2998
902.379	3154
902.498	3100
902.617	3100
902.735	3233
902.854	3294
902.973	3222
903.091	3135
903.21	3112
903.328	3146
903.446	3157
903.565	3150
903.683	3260
903.801	3154
903.919	3298
904.038	3321
904.156	3218
904.274	3283
904.392	3325
904.51	3302
904.627	3351
904.745	3496
904.863	3519
904.981	3302
905.098	3222
905.216	3245
905.334	3348
905.451	3283
905.569	3298
905.686	3492
905.803	3507
905.921	3317
906.038	3443
906.155	3420
906.272	3294
906.389	3389
906.506	3260
906.623	3313
906.74	3310
906.857	3233
906.974	3306
907.091	3523
907.208	3568
907.324	3477
907.441	3409
907.557	3268
907.674	3302
907.79	3279
907.907	3279
908.023	3378
908.139	3428
908.256	3344
908.372	3378
908.488	3378
908.604	3302
908.72	3325
908.836	3329
908.952	3325
909.068	3389
909.184	3534
909.3	3435
909.415	3507
909.531	3507
909.647	3291
909.762	3321
909.878	3283
909.993	3412
910.108	3382
910.224	3393
910.339	3477
910.454	3351
910.57	3313
910.685	3279
910.8	3641
910.915	3561
911.03	3511
911.145	3329
911.259	3363
911.374	3370
911.489	3272
911.604	3260
911.718	3173
911.833	3165
911.947	3062
912.062	2986
912.176	3203
912.291	3226
912.405	3237
912.519	3439
912.633	3523
912.748	3386
912.862	3302
912.976	3207
913.09	3119
913.204	3165
913.318	3237
913.431	3378
913.545	3325
913.659	3443
913.772	3363
913.886	3245
914	3230
914.113	3401
914.226	3409
914.34	3363
914.453	3283
914.566	3447
914.68	3336
914.793	3344
914.906	3188
915.019	3161
915.132	3119
915.245	3161
915.358	3256
915.47	3237
915.583	3287
915.696	3340
915.809	3416
915.921	3454
916.034	3279
916.146	3275
916.259	3245
916.371	3412
916.483	3389
916.595	3310
916.708	3363
916.82	3367
916.932	3374
917.044	3367
917.156	3378
917.268	3310
917.38	3321
917.491	3306
917.603	3405
917.715	3504
917.826	3488
917.938	3428
918.049	3321
918.161	3447
918.272	3595
918.384	3610
918.495	3485
918.606	3367
918.717	3302
918.828	3393
918.939	3469
919.05	3363
919.161	3401
919.272	3180
919.383	3317
919.494	3519
919.604	3709
919.715	3549
919.826	3439
919.936	3500
920.047	3625
920.157	3542
920.267	3766
920.378	3656
920.488	3637
920.598	3812
920.708	3991
920.818	3861
920.928	3896
921.038	4040
921.148	4048
921.258	3705
921.368	3686
921.477	3641
921.587	3580
921.697	3504
921.806	3694
921.916	3549
922.025	3389
922.134	3412
922.244	3367
922.353	3462
922.462	3344
922.571	3241
922.68	3135
922.789	3089
922.898	3157
923.007	3116
923.116	3230
923.224	3233
923.333	3203
923.442	3112
923.55	3119
923.659	3199
923.767	3241
923.876	3146
923.984	3287
924.092	3138
924.201	3233
924.309	3264
924.417	3268
924.525	3214
924.633	3253
924.741	4204
924.849	3062
924.956	3325
925.064	3154
925.172	3074
925.279	3123
925.387	3211
925.494	3207
925.602	3344
925.709	3359
925.816	3222
925.924	3336
926.031	3389
926.138	3367
926.245	3359
926.352	3272
926.459	3412
926.566	3519
926.673	3329
926.779	3313
926.886	3283
926.993	3146
927.099	3138
927.206	3146
927.312	3131
927.419	3272
927.525	3256
927.631	3310
927.737	3180
927.843	3146
927.95	3058
928.056	3203
928.162	3188
928.267	3298
928.373	3922
928.479	3306
928.585	3119
928.69	3203
928.796	3294
928.901	3199
929.007	3112
929.112	3268
929.218	3161
929.323	3195
929.428	3188
929.533	3378
929.638	3173
929.743	3214
929.848	3253
929.953	3260
930.058	3169
930.163	3024
930.267	3058
930.372	3195
930.477	3077
930.581	3340
930.685	3218
930.79	3093
930.894	3157
930.998	3142
931.103	3298
931.207	2998
931.311	2998
931.415	2986
931.519	2807
931.623	2830
