Data from test_V78500241_112.txt Node
Date: Fri Mar 25 16:15:58 CST 2022
User: usil
Spectrometer: V785-0024
Trigger mode: 0
Integration Time (sec): 4.000000E-1
Scans to average: 1
Nonlinearity correction enabled: false
Boxcar width: 0
Storing dark spectrum: false
XAxis mode: Wavelengths
Number of Pixels in Spectrum: 1024
>>>>>Begin Spectral Data<<<<<
801.071	2956
801.214	2960
801.356	2891
801.499	2922
801.641	2902
801.783	2994
801.926	3089
802.068	3009
802.211	3051
802.353	3047
802.496	3009
802.638	3039
802.78	3055
802.923	3116
803.065	3032
803.208	2956
803.35	2948
803.492	2960
803.635	2994
803.777	2807
803.919	2895
804.061	3214
804.204	2982
804.346	2948
804.488	2880
804.63	3043
804.773	2887
804.915	2948
805.057	3127
805.199	2971
805.341	2979
805.483	3108
805.626	3024
805.768	2990
805.91	3066
806.052	3123
806.194	3077
806.336	3226
806.478	3036
806.62	2937
806.762	2982
806.904	3085
807.046	3192
807.188	3028
807.33	2960
807.472	3024
807.614	2902
807.756	3001
807.898	2941
808.04	2895
808.182	2990
808.324	2979
808.465	2906
808.607	2902
808.749	2826
808.891	2887
809.033	2990
809.174	2963
809.316	2918
809.458	2883
809.6	2788
809.741	2792
809.883	2785
810.025	2861
810.166	2883
810.308	2853
810.45	2910
810.591	2815
810.733	2830
810.875	2864
811.016	2800
811.158	2807
811.299	2849
811.441	2933
811.582	2925
811.724	2811
811.865	2887
812.007	2956
812.148	2902
812.29	2868
812.431	2929
812.573	2929
812.714	3017
812.855	3058
812.997	3074
813.138	3104
813.279	3043
813.421	2994
813.562	2990
813.703	2883
813.845	2952
813.986	2788
814.127	2724
814.268	2853
814.41	2838
814.551	2834
814.692	2910
814.833	2834
814.974	2883
815.115	2952
815.256	2861
815.397	2830
815.539	2910
815.68	2804
815.821	2815
815.962	2948
816.103	2960
816.244	2895
816.385	2918
816.526	2971
816.666	2960
816.807	2773
816.948	2937
817.089	2922
817.23	2861
817.371	2796
817.512	2811
817.653	2864
817.793	2864
817.934	2895
818.075	2994
818.216	3047
818.356	3047
818.497	2910
818.638	2807
818.778	2849
818.919	2838
819.06	2800
819.2	2899
819.341	2834
819.481	2864
819.622	2948
819.762	3104
819.903	3077
820.043	2933
820.184	2906
820.324	2918
820.465	3028
820.605	3039
820.746	3017
820.886	2941
821.026	3142
821.167	3169
821.307	3233
821.447	3321
821.588	3249
821.728	3218
821.868	3241
822.008	3108
822.149	3233
822.289	3211
822.429	3116
822.569	3093
822.709	3245
822.849	3032
822.99	3039
823.13	3180
823.27	3218
823.41	3108
823.55	3157
823.69	3161
823.83	3195
823.97	3138
824.11	3020
824.25	3005
824.389	3085
824.529	3108
824.669	3100
824.809	3237
824.949	3260
825.089	3207
825.228	3207
825.368	3028
825.508	2960
825.648	2982
825.787	3024
825.927	3066
826.067	3009
826.206	3009
826.346	3089
826.485	3058
826.625	3112
826.765	3351
826.904	3237
827.044	3001
827.183	2933
827.323	2891
827.462	3032
827.601	2960
827.741	2960
827.88	3001
828.02	2857
828.159	3028
828.298	3051
828.437	3161
828.577	3100
828.716	3306
828.855	3119
828.994	2952
829.134	2922
829.273	2967
829.412	2902
829.551	2922
829.69	2952
829.829	3009
829.968	3192
830.107	3062
830.246	3055
830.385	2956
830.524	2918
830.663	2880
830.802	2769
830.941	2708
831.08	2689
831.219	2819
831.357	2800
831.496	3032
831.635	2826
831.774	2712
831.913	2716
832.051	2594
832.19	2644
832.329	2724
832.467	2594
832.606	2571
832.744	2621
832.883	2632
833.022	2632
833.16	2716
833.299	2758
833.437	2777
833.576	2758
833.714	2731
833.852	2758
833.991	2819
834.129	2941
834.267	2906
834.406	2834
834.544	2925
834.682	2925
834.821	2956
834.959	3135
835.097	2963
835.235	3100
835.373	3089
835.511	3066
835.65	3036
835.788	3009
835.926	2895
836.064	2880
836.202	2937
836.34	3146
836.478	3195
836.615	3123
836.753	3241
836.891	3249
837.029	3237
837.167	3203
837.305	3142
837.443	3127
837.58	3055
837.718	3195
837.856	3119
837.993	3093
838.131	3192
838.269	3176
838.406	3207
838.544	3146
838.681	3020
838.819	2963
838.956	2842
839.094	2887
839.231	3005
839.369	3051
839.506	3424
839.643	3264
839.781	3089
839.918	3005
840.055	3100
840.193	3081
840.33	3112
840.467	3135
840.604	3157
840.742	3462
840.879	3112
841.016	3104
841.153	3192
841.29	3382
841.427	3370
841.564	3321
841.701	3332
841.838	3260
841.975	3264
842.112	3294
842.249	3093
842.385	3142
842.522	3332
842.659	3146
842.796	3108
842.933	3188
843.069	3097
843.206	3081
843.343	3256
843.479	3154
843.616	3173
843.752	2975
843.889	2922
844.025	3119
844.162	2944
844.298	3154
844.435	2998
844.571	2975
844.708	3176
844.844	3268
844.98	3272
845.117	3218
845.253	3116
845.389	3062
845.525	3150
845.661	3157
845.798	3062
845.934	3188
846.07	3089
846.206	3253
846.342	3389
846.478	3264
846.614	3119
846.75	3100
846.886	3062
847.022	3283
847.158	3199
847.294	3245
847.429	3302
847.565	3230
847.701	3519
847.837	3116
847.972	3028
848.108	3245
848.244	3180
848.379	3055
848.515	2982
848.65	3013
848.786	3032
848.921	3074
849.057	3135
849.192	3180
849.328	3142
849.463	3157
849.598	3100
849.734	3112
849.869	3043
850.004	2971
850.14	3005
850.275	2990
850.41	2880
850.545	2956
850.68	2960
850.815	3020
850.95	3039
851.085	3253
851.22	3157
851.355	3089
851.49	3047
851.625	3047
851.76	3024
851.895	2963
852.03	2998
852.165	3074
852.299	3173
852.434	3230
852.569	3188
852.703	3233
852.838	3306
852.973	3397
853.107	3370
853.242	3222
853.376	3100
853.511	2994
853.645	3154
853.78	3283
853.914	3154
854.048	3199
854.183	3154
854.317	3203
854.451	3344
854.585	3188
854.72	3127
854.854	3268
854.988	3085
855.122	3108
855.256	3009
855.39	3188
855.524	3317
855.658	3241
855.792	3192
855.926	3294
856.06	3287
856.194	3313
856.327	3207
856.461	3108
856.595	3165
856.729	3138
856.862	3283
856.996	3230
857.13	3287
857.263	3249
857.397	3306
857.53	3165
857.664	3230
857.797	3279
857.931	3313
858.064	3226
858.197	3294
858.331	3169
858.464	3154
858.597	3036
858.731	3173
858.864	3180
858.997	3142
859.13	3222
859.263	3279
859.396	3298
859.529	3138
859.662	3131
859.795	3108
859.928	3214
860.061	3340
860.194	3306
860.327	3195
860.46	3131
860.592	3329
860.725	3287
860.858	3279
860.99	3184
861.123	3062
861.256	3081
861.388	3192
861.521	3781
861.653	3062
861.786	3055
861.918	3074
862.05	3085
862.183	3135
862.315	3230
862.447	3237
862.58	3146
862.712	2994
862.844	2956
862.976	3097
863.108	3028
863.24	3450
863.372	2922
863.504	3013
863.636	3020
863.768	3085
863.9	3081
864.032	2967
864.164	3009
864.296	3055
864.428	3116
864.559	3157
864.691	3138
864.823	3154
864.954	3089
865.086	3104
865.217	3039
865.349	3013
865.48	3039
865.612	3058
865.743	3207
865.875	3028
866.006	2971
866.137	3013
866.269	3005
866.4	2979
866.531	2982
866.662	2979
866.793	2944
866.924	2918
867.055	3005
867.186	2971
867.317	2967
867.448	2891
867.579	2872
867.71	2887
867.841	2876
867.972	2933
868.103	2967
868.233	2933
868.364	2899
868.495	2963
868.625	3112
868.756	3211
868.886	3009
869.017	3043
869.147	3226
869.278	3199
869.408	3104
869.539	3055
869.669	3150
869.799	3077
869.929	3165
870.06	3165
870.19	3374
870.32	3340
870.45	3325
870.58	3435
870.71	3477
870.84	3458
870.97	3332
871.1	3291
871.23	3523
871.36	3515
871.489	3416
871.619	3477
871.749	3439
871.879	3496
872.008	3542
872.138	3443
872.267	3321
872.397	3222
872.526	3146
872.656	3066
872.785	3138
872.915	3325
873.044	3378
873.173	3256
873.303	3294
873.432	3294
873.561	3230
873.69	3207
873.819	3222
873.948	3237
874.077	3173
874.206	3077
874.335	3112
874.464	3253
874.593	3359
874.722	3287
874.851	3466
874.979	3389
875.108	3412
875.237	3226
875.365	3237
875.494	3245
875.623	3294
875.751	3146
875.88	3157
876.008	3222
876.136	3264
876.265	3443
876.393	3576
876.521	3477
876.65	3466
876.778	3374
876.906	3294
877.034	3245
877.162	3264
877.29	3199
877.418	3302
877.546	3291
877.674	3291
877.802	3256
877.93	3256
878.058	3169
878.185	3127
878.313	3245
878.441	3256
878.568	3104
878.696	3169
878.824	3283
878.951	3340
879.079	3553
879.206	3667
879.333	3443
879.461	3374
879.588	3386
879.715	3526
879.842	3637
879.97	3397
880.097	3214
880.224	3192
880.351	3249
880.478	3264
880.605	3268
880.732	3230
880.859	3511
880.986	3351
881.112	3397
881.239	3256
881.366	3127
881.493	3119
881.619	3077
881.746	3116
881.872	3123
881.999	3165
882.125	3211
882.252	3283
882.378	3294
882.505	3435
882.631	3298
882.757	3203
882.883	3237
883.01	3275
883.136	3188
883.262	3108
883.388	3146
883.514	3378
883.64	3412
883.766	3382
883.892	3253
884.018	3310
884.143	3496
884.269	3625
884.395	3256
884.52	3188
884.646	3195
884.772	3199
884.897	3131
885.023	3241
885.148	3344
885.274	3500
885.399	3424
885.524	3310
885.65	3325
885.775	3363
885.9	3336
886.025	3492
886.15	3367
886.275	3374
886.4	3287
886.525	3348
886.65	3363
886.775	3348
886.9	3530
887.025	3671
887.149	3492
887.274	3275
887.399	3233
887.523	3245
887.648	3260
887.773	3211
887.897	3431
888.021	3450
888.146	3355
888.27	3462
888.395	3599
888.519	3439
888.643	3473
888.767	3488
888.891	3359
889.015	3260
889.139	3317
889.263	3283
889.387	3431
889.511	3553
889.635	3485
889.759	3310
889.883	3329
890.006	3462
890.13	3553
890.254	3332
890.377	3393
890.501	3253
890.624	3211
890.748	3359
890.871	3218
890.995	3154
891.118	3089
891.241	3253
891.364	3237
891.488	3378
891.611	3222
891.734	3306
891.857	3367
891.98	3313
892.103	3344
892.226	3348
892.349	3275
892.471	3161
892.594	3302
892.717	3351
892.839	3313
892.962	3332
893.085	3405
893.207	3348
893.33	3184
893.452	3253
893.575	3378
893.697	3275
893.819	3492
893.941	3534
894.064	3492
894.186	3313
894.308	3336
894.43	3504
894.552	3561
894.674	3481
894.796	3298
894.918	3325
895.04	3321
895.161	3477
895.283	3424
895.405	3412
895.526	3428
895.648	3462
895.769	3492
895.891	3481
896.012	3519
896.134	3492
896.255	3458
896.376	3473
896.498	3359
896.619	3466
896.74	3386
896.861	3477
896.982	3720
897.103	3865
897.224	3656
897.345	3553
897.466	3443
897.587	3515
897.708	3660
897.828	3553
897.949	3450
898.07	3367
898.19	3469
898.311	3637
898.431	3538
898.552	3557
898.672	3625
898.792	3644
898.913	3549
899.033	3447
899.153	3363
899.273	3233
899.393	3321
899.513	3351
899.633	3351
899.753	3359
899.873	3374
899.993	3424
900.113	3389
900.232	3389
900.352	3359
900.472	3310
900.591	3256
900.711	3321
900.83	3272
900.95	3454
901.069	3557
901.189	3367
901.308	3226
901.427	3150
901.546	3256
901.665	3298
901.784	3382
901.904	3249
902.023	3207
902.141	3074
902.26	3020
902.379	3112
902.498	3138
902.617	3085
902.735	3222
902.854	3268
902.973	3241
903.091	3085
903.21	3127
903.328	3188
903.446	3150
903.565	3176
903.683	3222
903.801	3161
903.919	3291
904.038	3272
904.156	3207
904.274	3348
904.392	3294
904.51	3332
904.627	3370
904.745	3526
904.863	3492
904.981	3325
905.098	3214
905.216	3264
905.334	3321
905.451	3336
905.569	3279
905.686	3458
905.803	3473
905.921	3340
906.038	3469
906.155	3393
906.272	3313
906.389	3397
906.506	3253
906.623	3291
906.74	3306
906.857	3241
906.974	3287
907.091	3477
907.208	3576
907.324	3519
907.441	3431
907.557	3272
907.674	3287
907.79	3233
907.907	3317
908.023	3401
908.139	3412
908.256	3325
908.372	3416
908.488	3393
908.604	3291
908.72	3268
908.836	3336
908.952	3332
909.068	3382
909.184	3515
909.3	3382
909.415	3561
909.531	3511
909.647	3294
909.762	3340
909.878	3302
909.993	3412
910.108	3386
910.224	3397
910.339	3431
910.454	3363
910.57	3378
910.685	3313
910.8	3625
910.915	3568
911.03	3477
911.145	3332
911.259	3348
911.374	3325
911.489	3298
911.604	3249
911.718	3165
911.833	3180
911.947	3051
912.062	3043
912.176	3180
912.291	3249
912.405	3237
912.519	3466
912.633	3504
912.748	3405
912.862	3329
912.976	3192
913.09	3070
913.204	3165
913.318	3264
913.431	3382
913.545	3348
913.659	3435
913.772	3405
913.886	3233
914	3207
914.113	3367
914.226	3439
914.34	3405
914.453	3214
914.566	3447
914.68	3325
914.793	3393
914.906	3180
915.019	3169
915.132	3123
915.245	3230
915.358	3188
915.47	3230
915.583	3291
915.696	3355
915.809	3469
915.921	3412
916.034	3310
916.146	3279
916.259	3264
916.371	3424
916.483	3382
916.595	3283
916.708	3355
916.82	3359
916.932	3363
917.044	3332
917.156	3389
917.268	3279
917.38	3348
917.491	3317
917.603	3405
917.715	3488
917.826	3485
917.938	3439
918.049	3294
918.161	3492
918.272	3625
918.384	3614
918.495	3496
918.606	3348
918.717	3321
918.828	3412
918.939	3450
919.05	3374
919.161	3401
919.272	3226
919.383	3302
919.494	3553
919.604	3694
919.715	3504
919.826	3443
919.936	3485
920.047	3679
920.157	3557
920.267	3816
920.378	3625
920.488	3637
920.598	3827
920.708	3968
920.818	3880
920.928	3896
921.038	4074
921.148	3998
921.258	3694
921.368	3694
921.477	3599
921.587	3542
921.697	3488
921.806	3709
921.916	3587
922.025	3443
922.134	3374
922.244	3355
922.353	3454
922.462	3294
922.571	3279
922.68	3165
922.789	3119
922.898	3135
923.007	3123
923.116	3237
923.224	3218
923.333	3253
923.442	3104
923.55	3089
923.659	3173
923.767	3283
923.876	3146
923.984	3241
924.092	3146
924.201	3192
924.309	3287
924.417	3279
924.525	3226
924.633	3264
924.741	4223
924.849	3089
924.956	3306
925.064	3119
925.172	3066
925.279	3081
925.387	3256
925.494	3237
925.602	3405
925.709	3389
925.816	3222
925.924	3283
926.031	3389
926.138	3370
926.245	3401
926.352	3283
926.459	3450
926.566	3523
926.673	3321
926.779	3336
926.886	3275
926.993	3176
927.099	3157
927.206	3135
927.312	3176
927.419	3253
927.525	3226
927.631	3344
927.737	3169
927.843	3188
927.95	3051
928.056	3169
928.162	3195
928.267	3287
928.373	3793
928.479	3351
928.585	3077
928.69	3256
928.796	3302
928.901	3207
929.007	3043
929.112	3211
929.218	3207
929.323	3146
929.428	3211
929.533	3336
929.638	3119
929.743	3218
929.848	3291
929.953	3237
930.058	3192
930.163	2979
930.267	3093
930.372	3218
930.477	3100
930.581	3340
930.685	3218
930.79	3097
930.894	3138
930.998	3112
931.103	3329
931.207	2971
931.311	2982
931.415	2956
931.519	2811
931.623	2842
