Data from test_V78500241_1313.txt Node
Date: Fri Mar 25 16:24:17 CST 2022
User: usil
Spectrometer: V785-0024
Trigger mode: 0
Integration Time (sec): 4.000000E-1
Scans to average: 1
Nonlinearity correction enabled: false
Boxcar width: 0
Storing dark spectrum: false
XAxis mode: Wavelengths
Number of Pixels in Spectrum: 1024
>>>>>Begin Spectral Data<<<<<
801.071	2933
801.214	2925
801.356	2880
801.499	2899
801.641	2876
801.783	2937
801.926	3070
802.068	2967
802.211	3020
802.353	3036
802.496	3005
802.638	3009
802.78	3039
802.923	3085
803.065	3020
803.208	2922
803.35	2925
803.492	2941
803.635	2960
803.777	2754
803.919	2906
804.061	3180
804.204	2948
804.346	2937
804.488	2842
804.63	2982
804.773	2864
804.915	2902
805.057	3093
805.199	2967
805.341	2982
805.483	3100
805.626	3013
805.768	2967
805.91	3077
806.052	3085
806.194	3032
806.336	3233
806.478	3028
806.62	2918
806.762	3017
806.904	3097
807.046	3161
807.188	3024
807.33	2937
807.472	2971
807.614	2914
807.756	2994
807.898	2941
808.04	2925
808.182	2975
808.324	2960
808.465	2880
808.607	2899
808.749	2834
808.891	2838
809.033	2986
809.174	2986
809.316	2899
809.458	2906
809.6	2815
809.741	2766
809.883	2788
810.025	2857
810.166	2887
810.308	2838
810.45	2830
810.591	2750
810.733	2800
810.875	2849
811.016	2788
811.158	2750
811.299	2815
811.441	2933
811.582	2956
811.724	2788
811.865	2838
812.007	2895
812.148	2872
812.29	2880
812.431	2929
812.573	2922
812.714	2963
812.855	3039
812.997	3036
813.138	3138
813.279	3047
813.421	3013
813.562	2986
813.703	2891
813.845	2849
813.986	2792
814.127	2758
814.268	2819
814.41	2876
814.551	2845
814.692	2838
814.833	2796
814.974	2887
815.115	2952
815.256	2807
815.397	2815
815.539	2880
815.68	2781
815.821	2788
815.962	2933
816.103	2891
816.244	2864
816.385	2868
816.526	2975
816.666	2910
816.807	2746
816.948	2925
817.089	2887
817.23	2880
817.371	2769
817.512	2815
817.653	2857
817.793	2819
817.934	2918
818.075	2982
818.216	2975
818.356	3032
818.497	2899
818.638	2746
818.778	2800
818.919	2781
819.06	2777
819.2	2895
819.341	2788
819.481	2823
819.622	2937
819.762	3077
819.903	3047
820.043	2918
820.184	2899
820.324	2925
820.465	3013
820.605	2998
820.746	3024
820.886	2918
821.026	3074
821.167	3180
821.307	3260
821.447	3249
821.588	3230
821.728	3218
821.868	3180
822.008	3077
822.149	3233
822.289	3253
822.429	3112
822.569	3123
822.709	3161
822.849	3047
822.99	3062
823.13	3131
823.27	3195
823.41	3089
823.55	3146
823.69	3176
823.83	3245
823.97	3097
824.11	2998
824.25	3001
824.389	3051
824.529	3081
824.669	3062
824.809	3188
824.949	3230
825.089	3245
825.228	3199
825.368	2982
825.508	2925
825.648	2960
825.787	2994
825.927	3051
826.067	2929
826.206	2963
826.346	3085
826.485	3051
826.625	3070
826.765	3275
826.904	3214
827.044	2956
827.183	2910
827.323	2906
827.462	3009
827.601	2948
827.741	2952
827.88	2975
828.02	2895
828.159	2960
828.298	3058
828.437	3108
828.577	3070
828.716	3256
828.855	3112
828.994	2883
829.134	2887
829.273	2929
829.412	2880
829.551	2872
829.69	2918
829.829	2975
829.968	3138
830.107	3009
830.246	3024
830.385	2906
830.524	2880
830.663	2815
830.802	2727
830.941	2667
831.08	2644
831.219	2788
831.357	2758
831.496	2956
831.635	2720
831.774	2636
831.913	2644
832.051	2560
832.19	2583
832.329	2655
832.467	2514
832.606	2473
832.744	2571
832.883	2590
833.022	2587
833.16	2678
833.299	2693
833.437	2701
833.576	2697
833.714	2716
833.852	2712
833.991	2746
834.129	2830
834.267	2823
834.406	2804
834.544	2880
834.682	2857
834.821	2906
834.959	3081
835.097	2922
835.235	3043
835.373	2937
835.511	2960
835.65	2948
835.788	2941
835.926	2857
836.064	2815
836.202	2819
836.34	3081
836.478	3142
836.615	3085
836.753	3150
836.891	3222
837.029	3161
837.167	3074
837.305	3062
837.443	3100
837.58	2979
837.718	3157
837.856	3039
837.993	3051
838.131	3097
838.269	3104
838.406	3081
838.544	3127
838.681	2929
838.819	2925
838.956	2819
839.094	2781
839.231	2925
839.369	3032
839.506	3359
839.643	3226
839.781	3020
839.918	2963
840.055	3017
840.193	3055
840.33	3077
840.467	3112
840.604	3127
840.742	3382
840.879	3058
841.016	3074
841.153	3085
841.29	3344
841.427	3313
841.564	3291
841.701	3291
841.838	3233
841.975	3150
842.112	3192
842.249	3081
842.385	3066
842.522	3241
842.659	3070
842.796	3028
842.933	3127
843.069	3051
843.206	3043
843.343	3192
843.479	3074
843.616	3131
843.752	2880
843.889	2868
844.025	3062
844.162	2868
844.298	3093
844.435	2956
844.571	2899
844.708	3058
844.844	3199
844.98	3233
845.117	3169
845.253	3043
845.389	2979
845.525	3097
845.661	3074
845.798	3001
845.934	3131
846.07	3058
846.206	3214
846.342	3287
846.478	3176
846.614	3085
846.75	3051
846.886	3009
847.022	3226
847.158	3131
847.294	3176
847.429	3233
847.565	3218
847.701	3481
847.837	3001
847.972	2986
848.108	3138
848.244	3146
848.379	2986
848.515	2914
848.65	2937
848.786	2971
848.921	2998
849.057	3123
849.192	3097
849.328	3047
849.463	3085
849.598	3017
849.734	3062
849.869	2986
850.004	2914
850.14	2979
850.275	2883
850.41	2845
850.545	2925
850.68	2925
850.815	2929
850.95	2975
851.085	3180
851.22	3135
851.355	2998
851.49	2941
851.625	2982
851.76	3005
851.895	2918
852.03	2918
852.165	3017
852.299	3131
852.434	3188
852.569	3127
852.703	3146
852.838	3222
852.973	3329
853.107	3325
853.242	3135
853.376	3066
853.511	2982
853.645	3058
853.78	3241
853.914	3142
854.048	3089
854.183	3104
854.317	3169
854.451	3264
854.585	3093
854.72	3081
854.854	3176
854.988	3055
855.122	3100
855.256	2994
855.39	3085
855.524	3275
855.658	3188
855.792	3135
855.926	3214
856.06	3203
856.194	3249
856.327	3195
856.461	3089
856.595	3112
856.729	3043
856.862	3180
856.996	3146
857.13	3184
857.263	3249
857.397	3249
857.53	3119
857.664	3195
857.797	3222
857.931	3245
858.064	3108
858.197	3203
858.331	3150
858.464	3085
858.597	3032
858.731	3074
858.864	3123
858.997	3058
859.13	3150
859.263	3146
859.396	3203
859.529	3089
859.662	3074
859.795	2994
859.928	3169
860.061	3283
860.194	3260
860.327	3093
860.46	3093
860.592	3207
860.725	3275
860.858	3218
860.99	3077
861.123	3070
861.256	3047
861.388	3108
861.521	3656
861.653	3017
861.786	2982
861.918	2975
862.05	3074
862.183	3081
862.315	3157
862.447	3169
862.58	3051
862.712	2948
862.844	2891
862.976	2990
863.108	2967
863.24	3321
863.372	2876
863.504	2963
863.636	2971
863.768	3017
863.9	2956
864.032	2899
864.164	2937
864.296	2967
864.428	3116
864.559	3097
864.691	3070
864.823	3066
864.954	3043
865.086	3039
865.217	3001
865.349	2941
865.48	2975
865.612	2971
865.743	3100
865.875	2994
866.006	2925
866.137	2982
866.269	2960
866.4	2933
866.531	2933
866.662	2887
866.793	2891
866.924	2887
867.055	2967
867.186	2922
867.317	2906
867.448	2800
867.579	2842
867.71	2857
867.841	2796
867.972	2899
868.103	2925
868.233	2834
868.364	2876
868.495	2895
868.625	3074
868.756	3157
868.886	2929
869.017	3020
869.147	3154
869.278	3157
869.408	3039
869.539	3001
869.669	3089
869.799	3036
869.929	3154
870.06	3108
870.19	3294
870.32	3275
870.45	3287
870.58	3382
870.71	3447
870.84	3477
870.97	3321
871.1	3218
871.23	3447
871.36	3435
871.489	3359
871.619	3386
871.749	3412
871.879	3397
872.008	3485
872.138	3370
872.267	3272
872.397	3138
872.526	3112
872.656	3043
872.785	3108
872.915	3233
873.044	3306
873.173	3222
873.303	3233
873.432	3272
873.561	3211
873.69	3127
873.819	3176
873.948	3203
874.077	3119
874.206	3009
874.335	3066
874.464	3218
874.593	3332
874.722	3233
874.851	3405
874.979	3344
875.108	3298
875.237	3169
875.365	3176
875.494	3184
875.623	3226
875.751	3055
875.88	3108
876.008	3154
876.136	3203
876.265	3378
876.393	3519
876.521	3431
876.65	3389
876.778	3355
876.906	3294
877.034	3161
877.162	3226
877.29	3176
877.418	3268
877.546	3230
877.674	3226
877.802	3180
877.93	3207
878.058	3127
878.185	3108
878.313	3192
878.441	3195
878.568	3066
878.696	3157
878.824	3207
878.951	3306
879.079	3447
879.206	3538
879.333	3409
879.461	3321
879.588	3310
879.715	3447
879.842	3572
879.97	3382
880.097	3157
880.224	3100
880.351	3154
880.478	3211
880.605	3165
880.732	3192
880.859	3443
880.986	3249
881.112	3298
881.239	3207
881.366	3058
881.493	3013
881.619	3047
881.746	3077
881.872	3081
881.999	3119
882.125	3173
882.252	3207
882.378	3272
882.505	3454
882.631	3287
882.757	3157
882.883	3222
883.01	3161
883.136	3161
883.262	3093
883.388	3135
883.514	3351
883.64	3363
883.766	3279
883.892	3199
884.018	3268
884.143	3412
884.269	3515
884.395	3214
884.52	3207
884.646	3161
884.772	3161
884.897	3100
885.023	3199
885.148	3321
885.274	3424
885.399	3359
885.524	3264
885.65	3218
885.775	3283
885.9	3245
886.025	3370
886.15	3340
886.275	3287
886.4	3211
886.525	3302
886.65	3245
886.775	3279
886.9	3481
887.025	3606
887.149	3348
887.274	3268
887.399	3184
887.523	3173
887.648	3127
887.773	3233
887.897	3386
888.021	3382
888.146	3294
888.27	3412
888.395	3542
888.519	3435
888.643	3435
888.767	3454
888.891	3359
889.015	3230
889.139	3272
889.263	3211
889.387	3382
889.511	3488
889.635	3485
889.759	3298
889.883	3310
890.006	3370
890.13	3477
890.254	3260
890.377	3351
890.501	3180
890.624	3146
890.748	3310
890.871	3157
890.995	3100
891.118	3066
891.241	3184
891.364	3230
891.488	3283
891.611	3169
891.734	3256
891.857	3249
891.98	3249
892.103	3344
892.226	3260
892.349	3211
892.471	3112
892.594	3241
892.717	3275
892.839	3279
892.962	3272
893.085	3351
893.207	3298
893.33	3161
893.452	3195
893.575	3370
893.697	3245
893.819	3431
893.941	3538
894.064	3439
894.186	3249
894.308	3245
894.43	3405
894.552	3557
894.674	3462
894.796	3237
894.918	3313
895.04	3256
895.161	3447
895.283	3386
895.405	3275
895.526	3321
895.648	3386
895.769	3412
895.891	3450
896.012	3477
896.134	3428
896.255	3374
896.376	3332
896.498	3344
896.619	3382
896.74	3363
896.861	3405
896.982	3671
897.103	3827
897.224	3568
897.345	3485
897.466	3382
897.587	3485
897.708	3622
897.828	3561
897.949	3405
898.07	3321
898.19	3420
898.311	3564
898.431	3412
898.552	3500
898.672	3633
898.792	3595
898.913	3488
899.033	3401
899.153	3245
899.273	3218
899.393	3287
899.513	3325
899.633	3325
899.753	3344
899.873	3279
899.993	3351
900.113	3332
900.232	3374
900.352	3317
900.472	3306
900.591	3173
900.711	3279
900.83	3211
900.95	3405
901.069	3496
901.189	3340
901.308	3176
901.427	3146
901.546	3218
901.665	3287
901.784	3325
901.904	3188
902.023	3112
902.141	2963
902.26	3005
902.379	3146
902.498	3104
902.617	3066
902.735	3207
902.854	3214
902.973	3207
903.091	3020
903.21	3074
903.328	3157
903.446	3104
903.565	3112
903.683	3222
903.801	3097
903.919	3233
904.038	3260
904.156	3150
904.274	3298
904.392	3253
904.51	3268
904.627	3332
904.745	3424
904.863	3409
904.981	3253
905.098	3169
905.216	3249
905.334	3283
905.451	3275
905.569	3298
905.686	3431
905.803	3477
905.921	3306
906.038	3424
906.155	3355
906.272	3253
906.389	3291
906.506	3256
906.623	3245
906.74	3260
906.857	3214
906.974	3233
907.091	3420
907.208	3564
907.324	3439
907.441	3363
907.557	3233
907.674	3241
907.79	3226
907.907	3313
908.023	3336
908.139	3344
908.256	3344
908.372	3340
908.488	3355
908.604	3272
908.72	3222
908.836	3260
908.952	3325
909.068	3348
909.184	3477
909.3	3367
909.415	3496
909.531	3481
909.647	3268
909.762	3336
909.878	3264
909.993	3382
910.108	3329
910.224	3329
910.339	3382
910.454	3351
910.57	3287
910.685	3230
910.8	3538
910.915	3530
911.03	3443
911.145	3310
911.259	3313
911.374	3245
911.489	3249
911.604	3211
911.718	3116
911.833	3165
911.947	3043
912.062	2960
912.176	3146
912.291	3211
912.405	3195
912.519	3469
912.633	3439
912.748	3363
912.862	3260
912.976	3176
913.09	3043
913.204	3142
913.318	3207
913.431	3332
913.545	3351
913.659	3393
913.772	3283
913.886	3195
914	3199
914.113	3367
914.226	3401
914.34	3374
914.453	3214
914.566	3374
914.68	3302
914.793	3279
914.906	3184
915.019	3119
915.132	3074
915.245	3157
915.358	3218
915.47	3214
915.583	3253
915.696	3302
915.809	3424
915.921	3397
916.034	3222
916.146	3237
916.259	3249
916.371	3386
916.483	3359
916.595	3294
916.708	3291
916.82	3302
916.932	3291
917.044	3325
917.156	3374
917.268	3268
917.38	3302
917.491	3306
917.603	3363
917.715	3447
917.826	3466
917.938	3389
918.049	3241
918.161	3412
918.272	3591
918.384	3538
918.495	3466
918.606	3332
918.717	3306
918.828	3363
918.939	3389
919.05	3291
919.161	3363
919.272	3195
919.383	3272
919.494	3488
919.604	3728
919.715	3488
919.826	3420
919.936	3466
920.047	3580
920.157	3542
920.267	3755
920.378	3576
920.488	3534
920.598	3762
920.708	3911
920.818	3804
920.928	3854
921.038	4048
921.148	4013
921.258	3682
921.368	3641
921.477	3553
921.587	3534
921.697	3462
921.806	3610
921.916	3534
922.025	3351
922.134	3382
922.244	3302
922.353	3412
922.462	3233
922.571	3207
922.68	3112
922.789	3070
922.898	3112
923.007	3093
923.116	3188
923.224	3161
923.333	3188
923.442	3093
923.55	3081
923.659	3089
923.767	3245
923.876	3112
923.984	3268
924.092	3085
924.201	3184
924.309	3199
924.417	3245
924.525	3146
924.633	3241
924.741	3979
924.849	3062
924.956	3211
925.064	3066
925.172	3024
925.279	3093
925.387	3169
925.494	3195
925.602	3355
925.709	3321
925.816	3176
925.924	3313
926.031	3351
926.138	3298
926.245	3348
926.352	3245
926.459	3447
926.566	3428
926.673	3294
926.779	3256
926.886	3256
926.993	3154
927.099	3123
927.206	3108
927.312	3104
927.419	3203
927.525	3222
927.631	3268
927.737	3127
927.843	3131
927.95	3001
928.056	3138
928.162	3146
928.267	3203
928.373	3865
928.479	3306
928.585	3070
928.69	3169
928.796	3264
928.901	3203
929.007	3039
929.112	3203
929.218	3142
929.323	3154
929.428	3161
929.533	3272
929.638	3123
929.743	3184
929.848	3218
929.953	3214
930.058	3127
930.163	2982
930.267	3043
930.372	3180
930.477	3020
930.581	3340
930.685	3188
930.79	3077
930.894	3081
930.998	3104
931.103	3253
931.207	2933
931.311	2979
931.415	2952
931.519	2769
931.623	2769
