Data from test_V78500241_1041.txt Node
Date: Fri Mar 25 16:22:24 CST 2022
User: usil
Spectrometer: V785-0024
Trigger mode: 0
Integration Time (sec): 4.000000E-1
Scans to average: 1
Nonlinearity correction enabled: false
Boxcar width: 0
Storing dark spectrum: false
XAxis mode: Wavelengths
Number of Pixels in Spectrum: 1024
>>>>>Begin Spectral Data<<<<<
801.071	2891
801.214	2948
801.356	2838
801.499	2910
801.641	2861
801.783	2918
801.926	3028
802.068	2994
802.211	2998
802.353	3051
802.496	2982
802.638	3005
802.78	3039
802.923	3043
803.065	2990
803.208	2883
803.35	2925
803.492	2929
803.635	2925
803.777	2777
803.919	2804
804.061	3237
804.204	2925
804.346	2899
804.488	2887
804.63	3024
804.773	2861
804.915	2910
805.057	3097
805.199	2952
805.341	2975
805.483	3066
805.626	3020
805.768	2925
805.91	3074
806.052	3127
806.194	3028
806.336	3195
806.478	3020
806.62	2956
806.762	2975
806.904	3009
807.046	3165
807.188	2971
807.33	2899
807.472	2963
807.614	2899
807.756	3001
807.898	2895
808.04	2887
808.182	2986
808.324	2960
808.465	2887
808.607	2864
808.749	2788
808.891	2815
809.033	2967
809.174	2975
809.316	2868
809.458	2887
809.6	2762
809.741	2750
809.883	2777
810.025	2849
810.166	2845
810.308	2834
810.45	2819
810.591	2788
810.733	2777
810.875	2857
811.016	2766
811.158	2762
811.299	2800
811.441	2895
811.582	2922
811.724	2842
811.865	2872
812.007	2895
812.148	2849
812.29	2842
812.431	2876
812.573	2918
812.714	2960
812.855	3013
812.997	3028
813.138	3127
813.279	3017
813.421	2986
813.562	2967
813.703	2887
813.845	2891
813.986	2758
814.127	2701
814.268	2845
814.41	2826
814.551	2838
814.692	2861
814.833	2834
814.974	2864
815.115	2941
815.256	2845
815.397	2792
815.539	2876
815.68	2804
815.821	2769
815.962	2922
816.103	2899
816.244	2868
816.385	2876
816.526	2956
816.666	2918
816.807	2758
816.948	2883
817.089	2906
817.23	2861
817.371	2781
817.512	2785
817.653	2815
817.793	2823
817.934	2876
818.075	2979
818.216	2998
818.356	3013
818.497	2876
818.638	2762
818.778	2815
818.919	2762
819.06	2746
819.2	2925
819.341	2815
819.481	2815
819.622	2960
819.762	3104
819.903	3039
820.043	2944
820.184	2899
820.324	2887
820.465	3028
820.605	3013
820.746	3020
820.886	2941
821.026	3104
821.167	3123
821.307	3241
821.447	3245
821.588	3253
821.728	3173
821.868	3184
822.008	3074
822.149	3203
822.289	3245
822.429	3089
822.569	3058
822.709	3184
822.849	3032
822.99	3062
823.13	3173
823.27	3203
823.41	3089
823.55	3176
823.69	3176
823.83	3184
823.97	3089
824.11	2948
824.25	2971
824.389	3074
824.529	3108
824.669	3077
824.809	3176
824.949	3222
825.089	3230
825.228	3150
825.368	2994
825.508	2944
825.648	2941
825.787	3017
825.927	3047
826.067	2990
826.206	2994
826.346	3058
826.485	3081
826.625	3070
826.765	3230
826.904	3180
827.044	2998
827.183	2918
827.323	2880
827.462	2971
827.601	2891
827.741	2922
827.88	2933
828.02	2845
828.159	2963
828.298	3036
828.437	3142
828.577	3058
828.716	3241
828.855	3058
828.994	2883
829.134	2872
829.273	2880
829.412	2883
829.551	2864
829.69	2887
829.829	2933
829.968	3119
830.107	3036
830.246	3009
830.385	2902
830.524	2906
830.663	2849
830.802	2716
830.941	2651
831.08	2651
831.219	2815
831.357	2743
831.496	2960
831.635	2686
831.774	2610
831.913	2644
832.051	2518
832.19	2545
832.329	2697
832.467	2556
832.606	2507
832.744	2579
832.883	2590
833.022	2564
833.16	2674
833.299	2648
833.437	2708
833.576	2686
833.714	2720
833.852	2705
833.991	2777
834.129	2788
834.267	2834
834.406	2800
834.544	2880
834.682	2872
834.821	2853
834.959	3032
835.097	2880
835.235	3081
835.373	3032
835.511	3009
835.65	2979
835.788	2960
835.926	2826
836.064	2819
836.202	2849
836.34	3089
836.478	3157
836.615	3055
836.753	3131
836.891	3199
837.029	3161
837.167	3089
837.305	3055
837.443	3017
837.58	2963
837.718	3127
837.856	3039
837.993	3047
838.131	3089
838.269	3127
838.406	3077
838.544	3085
838.681	2944
838.819	2937
838.956	2811
839.094	2815
839.231	2868
839.369	3036
839.506	3340
839.643	3222
839.781	2982
839.918	2979
840.055	3081
840.193	3074
840.33	3058
840.467	3081
840.604	3138
840.742	3393
840.879	3070
841.016	3032
841.153	3131
841.29	3317
841.427	3264
841.564	3268
841.701	3302
841.838	3203
841.975	3161
842.112	3192
842.249	3051
842.385	3055
842.522	3245
842.659	3142
842.796	3055
842.933	3104
843.069	3036
843.206	3028
843.343	3146
843.479	3097
843.616	3146
843.752	2891
843.889	2864
844.025	3081
844.162	2853
844.298	3058
844.435	2922
844.571	2902
844.708	3055
844.844	3188
844.98	3233
845.117	3180
845.253	3039
845.389	3043
845.525	3100
845.661	3100
845.798	2952
845.934	3097
846.07	3047
846.206	3245
846.342	3332
846.478	3249
846.614	3097
846.75	3039
846.886	3001
847.022	3211
847.158	3100
847.294	3203
847.429	3233
847.565	3199
847.701	3492
847.837	3009
847.972	2986
848.108	3135
848.244	3123
848.379	2994
848.515	2937
848.65	2918
848.786	2963
848.921	2998
849.057	3138
849.192	3180
849.328	3062
849.463	3089
849.598	3032
849.734	3043
849.869	2990
850.004	2891
850.14	2963
850.275	2944
850.41	2819
850.545	2922
850.68	2925
850.815	2986
850.95	2971
851.085	3169
851.22	3089
851.355	3005
851.49	2929
851.625	2982
851.76	3036
851.895	2922
852.03	2925
852.165	3039
852.299	3081
852.434	3211
852.569	3138
852.703	3192
852.838	3260
852.973	3332
853.107	3306
853.242	3150
853.376	3047
853.511	2941
853.645	3032
853.78	3188
853.914	3104
854.048	3127
854.183	3066
854.317	3104
854.451	3275
854.585	3116
854.72	3085
854.854	3169
854.988	3039
855.122	3070
855.256	2956
855.39	3074
855.524	3218
855.658	3180
855.792	3188
855.926	3176
856.06	3226
856.194	3253
856.327	3161
856.461	3028
856.595	3070
856.729	3039
856.862	3241
856.996	3119
857.13	3237
857.263	3222
857.397	3233
857.53	3127
857.664	3157
857.797	3203
857.931	3214
858.064	3150
858.197	3203
858.331	3100
858.464	3074
858.597	3028
858.731	3100
858.864	3157
858.997	3089
859.13	3146
859.263	3180
859.396	3192
859.529	3100
859.662	3089
859.795	3036
859.928	3138
860.061	3268
860.194	3291
860.327	3104
860.46	3077
860.592	3226
860.725	3214
860.858	3256
860.99	3093
861.123	3055
861.256	3013
861.388	3150
861.521	3800
861.653	3024
861.786	2933
861.918	2975
862.05	3043
862.183	3077
862.315	3150
862.447	3233
862.58	3097
862.712	2944
862.844	2880
862.976	3017
863.108	3013
863.24	3439
863.372	2868
863.504	2975
863.636	2933
863.768	3043
863.9	2948
864.032	2914
864.164	2922
864.296	3032
864.428	3100
864.559	3089
864.691	3055
864.823	3081
864.954	2994
865.086	3051
865.217	3005
865.349	2910
865.48	3028
865.612	3009
865.743	3154
865.875	2979
866.006	2906
866.137	2941
866.269	2941
866.4	2929
866.531	2941
866.662	2910
866.793	2899
866.924	2948
867.055	3020
867.186	2941
867.317	2857
867.448	2845
867.579	2830
867.71	2861
867.841	2785
867.972	2906
868.103	2876
868.233	2876
868.364	2853
868.495	2883
868.625	3077
868.756	3131
868.886	2994
869.017	3017
869.147	3131
869.278	3161
869.408	3051
869.539	3013
869.669	3097
869.799	3017
869.929	3108
870.06	3097
870.19	3351
870.32	3275
870.45	3279
870.58	3344
870.71	3428
870.84	3473
870.97	3264
871.1	3211
871.23	3439
871.36	3447
871.489	3351
871.619	3405
871.749	3424
871.879	3439
872.008	3466
872.138	3344
872.267	3249
872.397	3169
872.526	3104
872.656	2982
872.785	3093
872.915	3241
873.044	3321
873.173	3241
873.303	3249
873.432	3241
873.561	3245
873.69	3195
873.819	3142
873.948	3176
874.077	3077
874.206	3043
874.335	3085
874.464	3173
874.593	3325
874.722	3268
874.851	3363
874.979	3363
875.108	3317
875.237	3207
875.365	3131
875.494	3150
875.623	3245
875.751	3089
875.88	3077
876.008	3173
876.136	3211
876.265	3370
876.393	3507
876.521	3405
876.65	3393
876.778	3310
876.906	3222
877.034	3180
877.162	3226
877.29	3135
877.418	3253
877.546	3275
877.674	3253
877.802	3237
877.93	3192
878.058	3116
878.185	3070
878.313	3195
878.441	3222
878.568	3066
878.696	3161
878.824	3237
878.951	3260
879.079	3428
879.206	3591
879.333	3447
879.461	3298
879.588	3389
879.715	3485
879.842	3587
879.97	3348
880.097	3165
880.224	3119
880.351	3169
880.478	3214
880.605	3173
880.732	3222
880.859	3462
880.986	3294
881.112	3317
881.239	3237
881.366	3116
881.493	3024
881.619	3009
881.746	3081
881.872	3093
881.999	3047
882.125	3116
882.252	3233
882.378	3260
882.505	3409
882.631	3241
882.757	3138
882.883	3245
883.01	3233
883.136	3150
883.262	3116
883.388	3077
883.514	3306
883.64	3393
883.766	3298
883.892	3207
884.018	3203
884.143	3435
884.269	3500
884.395	3150
884.52	3173
884.646	3203
884.772	3131
884.897	3123
885.023	3203
885.148	3283
885.274	3374
885.399	3367
885.524	3287
885.65	3245
885.775	3321
885.9	3272
886.025	3416
886.15	3386
886.275	3291
886.4	3226
886.525	3359
886.65	3272
886.775	3256
886.9	3519
887.025	3625
887.149	3405
887.274	3245
887.399	3176
887.523	3203
887.648	3180
887.773	3180
887.897	3382
888.021	3386
888.146	3310
888.27	3469
888.395	3500
888.519	3401
888.643	3443
888.767	3435
888.891	3321
889.015	3222
889.139	3275
889.263	3214
889.387	3428
889.511	3507
889.635	3435
889.759	3272
889.883	3298
890.006	3389
890.13	3519
890.254	3245
890.377	3359
890.501	3222
890.624	3184
890.748	3249
890.871	3176
890.995	3119
891.118	3066
891.241	3157
891.364	3211
891.488	3355
891.611	3150
891.734	3207
891.857	3268
891.98	3249
892.103	3340
892.226	3253
892.349	3195
892.471	3070
892.594	3214
892.717	3302
892.839	3241
892.962	3245
893.085	3363
893.207	3241
893.33	3112
893.452	3214
893.575	3317
893.697	3233
893.819	3435
893.941	3462
894.064	3473
894.186	3260
894.308	3237
894.43	3477
894.552	3492
894.674	3496
894.796	3260
894.918	3321
895.04	3313
895.161	3416
895.283	3386
895.405	3287
895.526	3359
895.648	3431
895.769	3435
895.891	3496
896.012	3477
896.134	3469
896.255	3424
896.376	3420
896.498	3310
896.619	3420
896.74	3332
896.861	3389
896.982	3656
897.103	3854
897.224	3599
897.345	3557
897.466	3397
897.587	3492
897.708	3610
897.828	3549
897.949	3431
898.07	3329
898.19	3397
898.311	3610
898.431	3458
898.552	3504
898.672	3553
898.792	3599
898.913	3515
899.033	3409
899.153	3249
899.273	3222
899.393	3298
899.513	3298
899.633	3275
899.753	3340
899.873	3298
899.993	3351
900.113	3332
900.232	3382
900.352	3332
900.472	3287
900.591	3192
900.711	3310
900.83	3233
900.95	3405
901.069	3496
901.189	3348
901.308	3211
901.427	3108
901.546	3173
901.665	3306
901.784	3325
901.904	3214
902.023	3112
902.141	3032
902.26	3028
902.379	3154
902.498	3047
902.617	3051
902.735	3226
902.854	3199
902.973	3180
903.091	3017
903.21	3077
903.328	3146
903.446	3104
903.565	3116
903.683	3195
903.801	3138
903.919	3256
904.038	3317
904.156	3157
904.274	3291
904.392	3260
904.51	3264
904.627	3287
904.745	3389
904.863	3462
904.981	3222
905.098	3180
905.216	3249
905.334	3249
905.451	3306
905.569	3298
905.686	3420
905.803	3462
905.921	3294
906.038	3389
906.155	3359
906.272	3268
906.389	3348
906.506	3207
906.623	3264
906.74	3291
906.857	3192
906.974	3233
907.091	3443
907.208	3538
907.324	3485
907.441	3431
907.557	3192
907.674	3218
907.79	3226
907.907	3313
908.023	3367
908.139	3363
908.256	3359
908.372	3351
908.488	3351
908.604	3253
908.72	3268
908.836	3260
908.952	3260
909.068	3317
909.184	3443
909.3	3409
909.415	3523
909.531	3504
909.647	3275
909.762	3294
909.878	3249
909.993	3355
910.108	3348
910.224	3332
910.339	3409
910.454	3329
910.57	3291
910.685	3237
910.8	3545
910.915	3561
911.03	3435
911.145	3291
911.259	3253
911.374	3317
911.489	3245
911.604	3211
911.718	3135
911.833	3165
911.947	3043
912.062	2963
912.176	3116
912.291	3199
912.405	3207
912.519	3439
912.633	3458
912.748	3294
912.862	3310
912.976	3157
913.09	3058
913.204	3127
913.318	3226
913.431	3298
913.545	3348
913.659	3397
913.772	3310
913.886	3264
914	3218
914.113	3378
914.226	3439
914.34	3355
914.453	3207
914.566	3374
914.68	3268
914.793	3367
914.906	3142
915.019	3116
915.132	3024
915.245	3154
915.358	3211
915.47	3180
915.583	3256
915.696	3302
915.809	3389
915.921	3382
916.034	3310
916.146	3260
916.259	3214
916.371	3378
916.483	3397
916.595	3272
916.708	3325
916.82	3317
916.932	3363
917.044	3336
917.156	3340
917.268	3249
917.38	3313
917.491	3310
917.603	3378
917.715	3409
917.826	3447
917.938	3401
918.049	3298
918.161	3431
918.272	3572
918.384	3572
918.495	3454
918.606	3325
918.717	3272
918.828	3397
918.939	3431
919.05	3306
919.161	3370
919.272	3150
919.383	3268
919.494	3466
919.604	3660
919.715	3515
919.826	3389
919.936	3477
920.047	3553
920.157	3523
920.267	3740
920.378	3603
920.488	3572
920.598	3778
920.708	3941
920.818	3789
920.928	3831
921.038	4013
921.148	3994
921.258	3679
921.368	3633
921.477	3614
921.587	3549
921.697	3420
921.806	3629
921.916	3481
922.025	3348
922.134	3329
922.244	3291
922.353	3447
922.462	3272
922.571	3218
922.68	3081
922.789	3051
922.898	3104
923.007	3104
923.116	3169
923.224	3169
923.333	3207
923.442	3104
923.55	3116
923.659	3157
923.767	3195
923.876	3108
923.984	3237
924.092	3116
924.201	3169
924.309	3199
924.417	3237
924.525	3199
924.633	3260
924.741	4185
924.849	3032
924.956	3256
925.064	3097
925.172	3024
925.279	3112
925.387	3214
925.494	3188
925.602	3344
925.709	3313
925.816	3173
925.924	3264
926.031	3363
926.138	3344
926.245	3329
926.352	3279
926.459	3405
926.566	3462
926.673	3310
926.779	3256
926.886	3218
926.993	3146
927.099	3112
927.206	3093
927.312	3081
927.419	3233
927.525	3195
927.631	3294
927.737	3135
927.843	3138
927.95	3039
928.056	3119
928.162	3184
928.267	3226
928.373	3835
928.479	3317
928.585	3055
928.69	3241
928.796	3279
928.901	3131
929.007	3055
929.112	3173
929.218	3176
929.323	3154
929.428	3131
929.533	3302
929.638	3119
929.743	3154
929.848	3249
929.953	3211
930.058	3173
930.163	2994
930.267	3051
930.372	3199
930.477	3017
930.581	3279
930.685	3199
930.79	3017
930.894	3119
930.998	3085
931.103	3275
931.207	2925
931.311	2948
931.415	2906
931.519	2746
931.623	2807
