Data from test_V78500241_1694.txt Node
Date: Fri Mar 25 16:26:56 CST 2022
User: usil
Spectrometer: V785-0024
Trigger mode: 0
Integration Time (sec): 4.000000E-1
Scans to average: 1
Nonlinearity correction enabled: false
Boxcar width: 0
Storing dark spectrum: false
XAxis mode: Wavelengths
Number of Pixels in Spectrum: 1024
>>>>>Begin Spectral Data<<<<<
801.071	2910
801.214	2929
801.356	2883
801.499	2887
801.641	2842
801.783	2902
801.926	2986
802.068	2994
802.211	2994
802.353	3017
802.496	3001
802.638	2971
802.78	3036
802.923	3058
803.065	3009
803.208	2883
803.35	2922
803.492	2952
803.635	2918
803.777	2804
803.919	2830
804.061	3211
804.204	2910
804.346	2902
804.488	2811
804.63	2975
804.773	2830
804.915	2895
805.057	3077
805.199	2902
805.341	3024
805.483	3001
805.626	3009
805.768	2960
805.91	3066
806.052	3085
806.194	3036
806.336	3203
806.478	3005
806.62	2963
806.762	2963
806.904	3039
807.046	3180
807.188	2967
807.33	2876
807.472	2998
807.614	2914
807.756	2975
807.898	2960
808.04	2853
808.182	2963
808.324	2944
808.465	2872
808.607	2838
808.749	2804
808.891	2838
809.033	2990
809.174	2933
809.316	2906
809.458	2868
809.6	2785
809.741	2750
809.883	2735
810.025	2864
810.166	2864
810.308	2857
810.45	2815
810.591	2777
810.733	2750
810.875	2853
811.016	2792
811.158	2712
811.299	2785
811.441	2925
811.582	2902
811.724	2826
811.865	2826
812.007	2876
812.148	2872
812.29	2872
812.431	2849
812.573	2929
812.714	2933
812.855	3043
812.997	3043
813.138	3146
813.279	3013
813.421	2956
813.562	2948
813.703	2880
813.845	2872
813.986	2766
814.127	2708
814.268	2807
814.41	2815
814.551	2826
814.692	2857
814.833	2811
814.974	2868
815.115	2975
815.256	2823
815.397	2823
815.539	2857
815.68	2788
815.821	2781
815.962	2933
816.103	2914
816.244	2876
816.385	2845
816.526	2941
816.666	2887
816.807	2746
816.948	2834
817.089	2918
817.23	2804
817.371	2766
817.512	2781
817.653	2826
817.793	2781
817.934	2857
818.075	2963
818.216	2982
818.356	3005
818.497	2872
818.638	2746
818.778	2777
818.919	2804
819.06	2720
819.2	2880
819.341	2777
819.481	2792
819.622	2914
819.762	3097
819.903	3043
820.043	2895
820.184	2876
820.324	2914
820.465	3005
820.605	3017
820.746	3013
820.886	2925
821.026	3108
821.167	3188
821.307	3249
821.447	3256
821.588	3218
821.728	3188
821.868	3199
822.008	3108
822.149	3157
822.289	3214
822.429	3089
822.569	3058
822.709	3180
822.849	3017
822.99	3085
823.13	3150
823.27	3192
823.41	3112
823.55	3184
823.69	3176
823.83	3195
823.97	3097
824.11	3036
824.25	3009
824.389	3077
824.529	3127
824.669	3100
824.809	3218
824.949	3264
825.089	3233
825.228	3192
825.368	3001
825.508	2998
825.648	2990
825.787	3074
825.927	3028
826.067	2979
826.206	2975
826.346	3036
826.485	3116
826.625	3127
826.765	3279
826.904	3294
827.044	3066
827.183	2982
827.323	2918
827.462	3001
827.601	2963
827.741	2994
827.88	3036
828.02	2937
828.159	3013
828.298	3089
828.437	3165
828.577	3081
828.716	3272
828.855	3119
828.994	2960
829.134	2929
829.273	2960
829.412	2895
829.551	2895
829.69	2937
829.829	3036
829.968	3157
830.107	3043
830.246	3058
830.385	2902
830.524	2941
830.663	2838
830.802	2758
830.941	2712
831.08	2701
831.219	2796
831.357	2769
831.496	3009
831.635	2758
831.774	2693
831.913	2705
832.051	2598
832.19	2594
832.329	2773
832.467	2568
832.606	2518
832.744	2590
832.883	2598
833.022	2625
833.16	2644
833.299	2762
833.437	2727
833.576	2773
833.714	2746
833.852	2766
833.991	2823
834.129	2880
834.267	2876
834.406	2804
834.544	2899
834.682	2906
834.821	2944
834.959	3097
835.097	2941
835.235	3097
835.373	3024
835.511	3085
835.65	2998
835.788	2979
835.926	2861
836.064	2804
836.202	2842
836.34	3127
836.478	3169
836.615	3097
836.753	3138
836.891	3260
837.029	3176
837.167	3135
837.305	3055
837.443	3051
837.58	2998
837.718	3135
837.856	3108
837.993	3089
838.131	3123
838.269	3108
838.406	3108
838.544	3097
838.681	2952
838.819	2979
838.956	2857
839.094	2868
839.231	2948
839.369	3017
839.506	3431
839.643	3226
839.781	3028
839.918	3009
840.055	3081
840.193	3104
840.33	3077
840.467	3146
840.604	3142
840.742	3439
840.879	3081
841.016	3100
841.153	3161
841.29	3374
841.427	3325
841.564	3313
841.701	3348
841.838	3279
841.975	3195
842.112	3253
842.249	3100
842.385	3062
842.522	3302
842.659	3119
842.796	3081
842.933	3146
843.069	3074
843.206	3066
843.343	3222
843.479	3108
843.616	3169
843.752	2948
843.889	2922
844.025	3127
844.162	2876
844.298	3081
844.435	2990
844.571	2952
844.708	3123
844.844	3218
844.98	3291
845.117	3195
845.253	3058
845.389	3024
845.525	3169
845.661	3135
845.798	3047
845.934	3169
846.07	3062
846.206	3260
846.342	3298
846.478	3256
846.614	3097
846.75	3112
846.886	3070
847.022	3268
847.158	3180
847.294	3218
847.429	3275
847.565	3230
847.701	3542
847.837	3032
847.972	3013
848.108	3184
848.244	3173
848.379	2994
848.515	2975
848.65	2944
848.786	2994
848.921	3024
849.057	3135
849.192	3176
849.328	3085
849.463	3157
849.598	3104
849.734	3058
849.869	3017
850.004	2979
850.14	2994
850.275	2952
850.41	2864
850.545	2925
850.68	2941
850.815	2979
850.95	2963
851.085	3203
851.22	3097
851.355	3005
851.49	2982
851.625	3028
851.76	3036
851.895	2933
852.03	2922
852.165	3089
852.299	3146
852.434	3230
852.569	3192
852.703	3237
852.838	3264
852.973	3359
853.107	3332
853.242	3192
853.376	3119
853.511	2986
853.645	3074
853.78	3237
853.914	3176
854.048	3104
854.183	3104
854.317	3184
854.451	3287
854.585	3188
854.72	3093
854.854	3264
854.988	3051
855.122	3089
855.256	3020
855.39	3104
855.524	3291
855.658	3233
855.792	3165
855.926	3207
856.06	3192
856.194	3298
856.327	3169
856.461	3089
856.595	3104
856.729	3077
856.862	3222
856.996	3192
857.13	3211
857.263	3245
857.397	3332
857.53	3180
857.664	3222
857.797	3245
857.931	3268
858.064	3195
858.197	3233
858.331	3169
858.464	3100
858.597	3017
858.731	3131
858.864	3199
858.997	3112
859.13	3176
859.263	3180
859.396	3253
859.529	3108
859.662	3127
859.795	3070
859.928	3173
860.061	3291
860.194	3298
860.327	3150
860.46	3100
860.592	3283
860.725	3279
860.858	3283
860.99	3161
861.123	3039
861.256	3074
861.388	3176
861.521	3850
861.653	3039
861.786	3036
861.918	3028
862.05	3085
862.183	3112
862.315	3165
862.447	3230
862.58	3142
862.712	2967
862.844	2906
862.976	3032
863.108	3066
863.24	3458
863.372	2883
863.504	3009
863.636	2963
863.768	3039
863.9	2979
864.032	2929
864.164	2982
864.296	3043
864.428	3108
864.559	3089
864.691	3097
864.823	3089
864.954	3097
865.086	3062
865.217	3013
865.349	2956
865.48	3009
865.612	3017
865.743	3127
865.875	2986
866.006	2933
866.137	2994
866.269	2941
866.4	2998
866.531	2960
866.662	2941
866.793	2914
866.924	2910
867.055	2967
867.186	2944
867.317	2895
867.448	2880
867.579	2853
867.71	2834
867.841	2868
867.972	2906
868.103	2918
868.233	2922
868.364	2876
868.495	2952
868.625	3074
868.756	3176
868.886	2982
869.017	3020
869.147	3161
869.278	3192
869.408	3055
869.539	3028
869.669	3131
869.799	3039
869.929	3165
870.06	3142
870.19	3329
870.32	3317
870.45	3298
870.58	3409
870.71	3488
870.84	3447
870.97	3340
871.1	3245
871.23	3500
871.36	3481
871.489	3370
871.619	3389
871.749	3424
871.879	3424
872.008	3511
872.138	3382
872.267	3306
872.397	3165
872.526	3127
872.656	3028
872.785	3100
872.915	3291
873.044	3321
873.173	3268
873.303	3264
873.432	3264
873.561	3241
873.69	3180
873.819	3180
873.948	3256
874.077	3127
874.206	3043
874.335	3123
874.464	3256
874.593	3393
874.722	3245
874.851	3428
874.979	3363
875.108	3370
875.237	3272
875.365	3146
875.494	3180
875.623	3272
875.751	3089
875.88	3150
876.008	3195
876.136	3233
876.265	3367
876.393	3538
876.521	3443
876.65	3409
876.778	3348
876.906	3249
877.034	3230
877.162	3272
877.29	3180
877.418	3264
877.546	3253
877.674	3302
877.802	3268
877.93	3256
878.058	3135
878.185	3131
878.313	3237
878.441	3245
878.568	3112
878.696	3203
878.824	3287
878.951	3313
879.079	3477
879.206	3606
879.333	3443
879.461	3329
879.588	3351
879.715	3492
879.842	3591
879.97	3416
880.097	3180
880.224	3119
880.351	3222
880.478	3245
880.605	3226
880.732	3218
880.859	3496
880.986	3317
881.112	3348
881.239	3161
881.366	3100
881.493	3093
881.619	3043
881.746	3077
881.872	3131
881.999	3119
882.125	3195
882.252	3264
882.378	3294
882.505	3397
882.631	3344
882.757	3180
882.883	3256
883.01	3226
883.136	3211
883.262	3142
883.388	3154
883.514	3359
883.64	3344
883.766	3272
883.892	3199
884.018	3222
884.143	3416
884.269	3618
884.395	3176
884.52	3184
884.646	3165
884.772	3131
884.897	3116
885.023	3245
885.148	3325
885.274	3450
885.399	3367
885.524	3294
885.65	3275
885.775	3367
885.9	3291
886.025	3469
886.15	3386
886.275	3329
886.4	3230
886.525	3336
886.65	3287
886.775	3268
886.9	3530
887.025	3671
887.149	3405
887.274	3249
887.399	3195
887.523	3237
887.648	3169
887.773	3237
887.897	3386
888.021	3420
888.146	3298
888.27	3481
888.395	3549
888.519	3431
888.643	3473
888.767	3534
888.891	3332
889.015	3279
889.139	3275
889.263	3272
889.387	3439
889.511	3526
889.635	3454
889.759	3317
889.883	3279
890.006	3401
890.13	3504
890.254	3264
890.377	3370
890.501	3222
890.624	3192
890.748	3298
890.871	3195
890.995	3165
891.118	3081
891.241	3203
891.364	3241
891.488	3348
891.611	3138
891.734	3249
891.857	3275
891.98	3237
892.103	3348
892.226	3313
892.349	3275
892.471	3119
892.594	3256
892.717	3287
892.839	3253
892.962	3332
893.085	3351
893.207	3321
893.33	3161
893.452	3192
893.575	3348
893.697	3237
893.819	3454
893.941	3469
894.064	3454
894.186	3283
894.308	3306
894.43	3454
894.552	3549
894.674	3473
894.796	3302
894.918	3344
895.04	3302
895.161	3511
895.283	3409
895.405	3321
895.526	3409
895.648	3435
895.769	3439
895.891	3431
896.012	3485
896.134	3526
896.255	3454
896.376	3435
896.498	3370
896.619	3454
896.74	3363
896.861	3389
896.982	3682
897.103	3819
897.224	3614
897.345	3530
897.466	3405
897.587	3511
897.708	3610
897.828	3504
897.949	3469
898.07	3344
898.19	3450
898.311	3618
898.431	3435
898.552	3469
898.672	3561
898.792	3587
898.913	3572
899.033	3397
899.153	3283
899.273	3184
899.393	3302
899.513	3321
899.633	3291
899.753	3378
899.873	3355
899.993	3386
900.113	3382
900.232	3378
900.352	3355
900.472	3283
900.591	3211
900.711	3321
900.83	3272
900.95	3443
901.069	3500
901.189	3351
901.308	3169
901.427	3138
901.546	3211
901.665	3272
901.784	3317
901.904	3237
902.023	3165
902.141	3024
902.26	2994
902.379	3176
902.498	3081
902.617	3077
902.735	3222
902.854	3245
902.973	3195
903.091	3055
903.21	3058
903.328	3146
903.446	3135
903.565	3104
903.683	3214
903.801	3119
903.919	3272
904.038	3275
904.156	3173
904.274	3310
904.392	3230
904.51	3294
904.627	3344
904.745	3477
904.863	3534
904.981	3249
905.098	3184
905.216	3253
905.334	3351
905.451	3283
905.569	3317
905.686	3420
905.803	3462
905.921	3313
906.038	3450
906.155	3374
906.272	3264
906.389	3340
906.506	3253
906.623	3230
906.74	3241
906.857	3211
906.974	3253
907.091	3416
907.208	3584
907.324	3542
907.441	3397
907.557	3256
907.674	3226
907.79	3241
907.907	3313
908.023	3401
908.139	3374
908.256	3313
908.372	3401
908.488	3340
908.604	3283
908.72	3199
908.836	3294
908.952	3332
909.068	3317
909.184	3500
909.3	3393
909.415	3534
909.531	3458
909.647	3275
909.762	3329
909.878	3279
909.993	3378
910.108	3344
910.224	3344
910.339	3458
910.454	3321
910.57	3279
910.685	3283
910.8	3591
910.915	3500
911.03	3412
911.145	3249
911.259	3275
911.374	3340
911.489	3260
911.604	3218
911.718	3108
911.833	3135
911.947	3017
912.062	2982
912.176	3176
912.291	3199
912.405	3230
912.519	3431
912.633	3428
912.748	3359
912.862	3317
912.976	3131
913.09	3055
913.204	3165
913.318	3195
913.431	3340
913.545	3344
913.659	3424
913.772	3321
913.886	3214
914	3249
914.113	3344
914.226	3397
914.34	3363
914.453	3256
914.566	3397
914.68	3294
914.793	3348
914.906	3154
915.019	3097
915.132	3039
915.245	3165
915.358	3211
915.47	3218
915.583	3294
915.696	3302
915.809	3389
915.921	3443
916.034	3253
916.146	3260
916.259	3264
916.371	3424
916.483	3355
916.595	3222
916.708	3310
916.82	3344
916.932	3310
917.044	3351
917.156	3393
917.268	3260
917.38	3325
917.491	3329
917.603	3431
917.715	3473
917.826	3462
917.938	3378
918.049	3241
918.161	3462
918.272	3576
918.384	3511
918.495	3488
918.606	3336
918.717	3302
918.828	3397
918.939	3462
919.05	3294
919.161	3340
919.272	3180
919.383	3249
919.494	3515
919.604	3698
919.715	3469
919.826	3424
919.936	3477
920.047	3568
920.157	3564
920.267	3804
920.378	3625
920.488	3606
920.598	3736
920.708	3926
920.818	3808
920.928	3819
921.038	4006
921.148	4025
921.258	3675
921.368	3652
921.477	3568
921.587	3523
921.697	3492
921.806	3595
921.916	3500
922.025	3336
922.134	3382
922.244	3302
922.353	3405
922.462	3260
922.571	3211
922.68	3116
922.789	3112
922.898	3157
923.007	3097
923.116	3214
923.224	3184
923.333	3146
923.442	3093
923.55	3112
923.659	3093
923.767	3199
923.876	3077
923.984	3249
924.092	3081
924.201	3195
924.309	3195
924.417	3237
924.525	3195
924.633	3272
924.741	4032
924.849	3058
924.956	3260
925.064	3127
925.172	3032
925.279	3123
925.387	3192
925.494	3184
925.602	3348
925.709	3291
925.816	3207
925.924	3253
926.031	3367
926.138	3359
926.245	3332
926.352	3241
926.459	3412
926.566	3485
926.673	3336
926.779	3237
926.886	3233
926.993	3157
927.099	3176
927.206	3112
927.312	3112
927.419	3199
927.525	3214
927.631	3310
927.737	3138
927.843	3112
927.95	3051
928.056	3138
928.162	3131
928.267	3283
928.373	3880
928.479	3294
928.585	3070
928.69	3245
928.796	3306
928.901	3169
929.007	3028
929.112	3192
929.218	3119
929.323	3127
929.428	3157
929.533	3329
929.638	3131
929.743	3157
929.848	3253
929.953	3184
930.058	3214
930.163	3005
930.267	3043
930.372	3211
930.477	3055
930.581	3291
930.685	3150
930.79	3043
930.894	3104
930.998	3100
931.103	3283
931.207	2963
931.311	2941
931.415	2941
931.519	2777
931.623	2800
