Data from test_V78500241_891.txt Node
Date: Fri Mar 25 16:21:22 CST 2022
User: usil
Spectrometer: V785-0024
Trigger mode: 0
Integration Time (sec): 4.000000E-1
Scans to average: 1
Nonlinearity correction enabled: false
Boxcar width: 0
Storing dark spectrum: false
XAxis mode: Wavelengths
Number of Pixels in Spectrum: 1024
>>>>>Begin Spectral Data<<<<<
801.071	2880
801.214	2925
801.356	2861
801.499	2880
801.641	2880
801.783	2910
801.926	3077
802.068	2967
802.211	2998
802.353	3013
802.496	2975
802.638	3013
802.78	3009
802.923	3058
803.065	3024
803.208	2891
803.35	2937
803.492	2941
803.635	2925
803.777	2773
803.919	2849
804.061	3173
804.204	2944
804.346	2883
804.488	2857
804.63	2960
804.773	2861
804.915	2899
805.057	3066
805.199	2891
805.341	2979
805.483	3001
805.626	2975
805.768	2948
805.91	3055
806.052	3112
806.194	3024
806.336	3211
806.478	3013
806.62	2941
806.762	2975
806.904	3036
807.046	3127
807.188	3001
807.33	2944
807.472	2975
807.614	2925
807.756	2948
807.898	2914
808.04	2902
808.182	2979
808.324	2914
808.465	2864
808.607	2906
808.749	2804
808.891	2845
809.033	3005
809.174	2994
809.316	2910
809.458	2876
809.6	2739
809.741	2773
809.883	2792
810.025	2826
810.166	2849
810.308	2819
810.45	2861
810.591	2739
810.733	2750
810.875	2845
811.016	2750
811.158	2762
811.299	2823
811.441	2918
811.582	2918
811.724	2838
811.865	2811
812.007	2937
812.148	2845
812.29	2872
812.431	2872
812.573	2937
812.714	2956
812.855	3051
812.997	3077
813.138	3108
813.279	3020
813.421	2982
813.562	2971
813.703	2826
813.845	2891
813.986	2788
814.127	2735
814.268	2804
814.41	2864
814.551	2796
814.692	2845
814.833	2823
814.974	2872
815.115	2925
815.256	2883
815.397	2819
815.539	2857
815.68	2769
815.821	2807
815.962	2967
816.103	2941
816.244	2857
816.385	2853
816.526	2952
816.666	2941
816.807	2792
816.948	2918
817.089	2853
817.23	2853
817.371	2762
817.512	2800
817.653	2804
817.793	2804
817.934	2902
818.075	2929
818.216	3028
818.356	3001
818.497	2883
818.638	2773
818.778	2811
818.919	2781
819.06	2788
819.2	2922
819.341	2796
819.481	2781
819.622	2941
819.762	3112
819.903	3074
820.043	2906
820.184	2899
820.324	2887
820.465	3024
820.605	3024
820.746	2990
820.886	2929
821.026	3142
821.167	3176
821.307	3291
821.447	3268
821.588	3245
821.728	3184
821.868	3184
822.008	3085
822.149	3199
822.289	3222
822.429	3093
822.569	3104
822.709	3161
822.849	3051
822.99	3055
823.13	3135
823.27	3203
823.41	3131
823.55	3150
823.69	3127
823.83	3157
823.97	3112
824.11	2982
824.25	2963
824.389	3039
824.529	3097
824.669	3097
824.809	3199
824.949	3260
825.089	3207
825.228	3180
825.368	3001
825.508	2952
825.648	2956
825.787	3017
825.927	3032
826.067	2944
826.206	2998
826.346	3058
826.485	3100
826.625	3108
826.765	3291
826.904	3214
827.044	2979
827.183	2941
827.323	2864
827.462	3001
827.601	2906
827.741	2906
827.88	2956
828.02	2838
828.159	2967
828.298	3055
828.437	3119
828.577	2979
828.716	3211
828.855	3058
828.994	2906
829.134	2857
829.273	2918
829.412	2845
829.551	2853
829.69	2895
829.829	2975
829.968	3085
830.107	2982
830.246	3024
830.385	2887
830.524	2853
830.663	2815
830.802	2697
830.941	2659
831.08	2617
831.219	2739
831.357	2762
831.496	2952
831.635	2708
831.774	2636
831.913	2644
832.051	2552
832.19	2556
832.329	2678
832.467	2552
832.606	2499
832.744	2587
832.883	2564
833.022	2575
833.16	2659
833.299	2670
833.437	2667
833.576	2693
833.714	2701
833.852	2682
833.991	2769
834.129	2811
834.267	2819
834.406	2788
834.544	2883
834.682	2906
834.821	2880
834.959	3036
835.097	2880
835.235	3043
835.373	3009
835.511	2998
835.65	2990
835.788	2937
835.926	2834
836.064	2811
836.202	2800
836.34	3077
836.478	3108
836.615	3112
836.753	3138
836.891	3192
837.029	3157
837.167	3131
837.305	3066
837.443	2979
837.58	2960
837.718	3135
837.856	3036
837.993	3028
838.131	3146
838.269	3108
838.406	3070
838.544	3077
838.681	2967
838.819	2899
838.956	2788
839.094	2819
839.231	2914
839.369	3013
839.506	3386
839.643	3222
839.781	3036
839.918	3005
840.055	3066
840.193	3032
840.33	3077
840.467	3089
840.604	3135
840.742	3431
840.879	3032
841.016	3066
841.153	3104
841.29	3317
841.427	3287
841.564	3264
841.701	3306
841.838	3264
841.975	3165
842.112	3188
842.249	3070
842.385	3047
842.522	3264
842.659	3100
842.796	3039
842.933	3093
843.069	3085
843.206	3039
843.343	3218
843.479	3108
843.616	3150
843.752	2883
843.889	2883
844.025	3028
844.162	2872
844.298	3070
844.435	2937
844.571	2918
844.708	3081
844.844	3161
844.98	3226
845.117	3154
845.253	3024
845.389	2979
845.525	3100
845.661	3066
845.798	2986
845.934	3119
846.07	3058
846.206	3233
846.342	3256
846.478	3199
846.614	3062
846.75	3036
846.886	3047
847.022	3268
847.158	3138
847.294	3173
847.429	3222
847.565	3222
847.701	3431
847.837	3020
847.972	2990
848.108	3142
848.244	3161
848.379	2975
848.515	2922
848.65	2960
848.786	2948
848.921	3009
849.057	3108
849.192	3180
849.328	3055
849.463	3100
849.598	3039
849.734	3024
849.869	2967
850.004	2880
850.14	2971
850.275	2906
850.41	2826
850.545	2891
850.68	2914
850.815	2933
850.95	2956
851.085	3203
851.22	3108
851.355	2975
851.49	2948
851.625	2975
851.76	3020
851.895	2922
852.03	2880
852.165	3009
852.299	3085
852.434	3195
852.569	3157
852.703	3180
852.838	3279
852.973	3325
853.107	3321
853.242	3142
853.376	3100
853.511	2960
853.645	3009
853.78	3211
853.914	3108
854.048	3077
854.183	3047
854.317	3157
854.451	3279
854.585	3146
854.72	3089
854.854	3165
854.988	3055
855.122	3066
855.256	2979
855.39	3157
855.524	3233
855.658	3184
855.792	3154
855.926	3169
856.06	3195
856.194	3287
856.327	3161
856.461	3051
856.595	3066
856.729	3093
856.862	3237
856.996	3135
857.13	3214
857.263	3195
857.397	3268
857.53	3127
857.664	3146
857.797	3230
857.931	3279
858.064	3169
858.197	3203
858.331	3138
858.464	3093
858.597	2986
858.731	3108
858.864	3108
858.997	3039
859.13	3146
859.263	3161
859.396	3199
859.529	3070
859.662	3070
859.795	3043
859.928	3077
860.061	3313
860.194	3294
860.327	3165
860.46	3074
860.592	3233
860.725	3211
860.858	3233
860.99	3150
861.123	3039
861.256	3074
861.388	3150
861.521	3797
861.653	3043
861.786	2918
861.918	2994
862.05	3039
862.183	3062
862.315	3203
862.447	3180
862.58	3116
862.712	2933
862.844	2880
862.976	2986
863.108	3013
863.24	3351
863.372	2895
863.504	2952
863.636	2937
863.768	2994
863.9	2963
864.032	2895
864.164	2960
864.296	2990
864.428	3116
864.559	3097
864.691	3058
864.823	3093
864.954	3001
865.086	3058
865.217	2994
865.349	2910
865.48	2990
865.612	2986
865.743	3131
865.875	2929
866.006	2956
866.137	2952
866.269	2937
866.4	2944
866.531	2952
866.662	2902
866.793	2864
866.924	2891
867.055	2979
867.186	2929
867.317	2864
867.448	2838
867.579	2845
867.71	2826
867.841	2758
867.972	2914
868.103	2895
868.233	2849
868.364	2845
868.495	2906
868.625	3089
868.756	3150
868.886	2975
869.017	2994
869.147	3161
869.278	3146
869.408	3036
869.539	3024
869.669	3089
869.799	3020
869.929	3150
870.06	3097
870.19	3283
870.32	3291
870.45	3294
870.58	3367
870.71	3462
870.84	3409
870.97	3279
871.1	3233
871.23	3447
871.36	3450
871.489	3355
871.619	3370
871.749	3363
871.879	3473
872.008	3424
872.138	3367
872.267	3264
872.397	3135
872.526	3085
872.656	2979
872.785	3116
872.915	3211
873.044	3313
873.173	3222
873.303	3268
873.432	3233
873.561	3226
873.69	3165
873.819	3131
873.948	3157
874.077	3070
874.206	3017
874.335	3077
874.464	3207
874.593	3359
874.722	3230
874.851	3374
874.979	3348
875.108	3348
875.237	3245
875.365	3142
875.494	3127
875.623	3249
875.751	3028
875.88	3116
876.008	3180
876.136	3230
876.265	3359
876.393	3488
876.521	3393
876.65	3386
876.778	3287
876.906	3279
877.034	3173
877.162	3207
877.29	3142
877.418	3237
877.546	3264
877.674	3249
877.802	3214
877.93	3230
878.058	3192
878.185	3108
878.313	3211
878.441	3222
878.568	3066
878.696	3146
878.824	3222
878.951	3310
879.079	3447
879.206	3606
879.333	3405
879.461	3294
879.588	3405
879.715	3488
879.842	3557
879.97	3370
880.097	3169
880.224	3123
880.351	3169
880.478	3211
880.605	3195
880.732	3154
880.859	3500
880.986	3272
881.112	3344
881.239	3161
881.366	3077
881.493	3009
881.619	3028
881.746	3051
881.872	3100
881.999	3081
882.125	3097
882.252	3226
882.378	3321
882.505	3389
882.631	3268
882.757	3119
882.883	3195
883.01	3199
883.136	3173
883.262	3119
883.388	3097
883.514	3302
883.64	3401
883.766	3321
883.892	3173
884.018	3214
884.143	3431
884.269	3523
884.395	3226
884.52	3169
884.646	3211
884.772	3161
884.897	3104
885.023	3184
885.148	3340
885.274	3412
885.399	3374
885.524	3264
885.65	3245
885.775	3306
885.9	3298
886.025	3397
886.15	3332
886.275	3298
886.4	3226
886.525	3287
886.65	3249
886.775	3245
886.9	3454
887.025	3591
887.149	3378
887.274	3214
887.399	3150
887.523	3188
887.648	3169
887.773	3138
887.897	3351
888.021	3378
888.146	3291
888.27	3450
888.395	3542
888.519	3424
888.643	3485
888.767	3447
888.891	3336
889.015	3214
889.139	3275
889.263	3226
889.387	3412
889.511	3504
889.635	3477
889.759	3291
889.883	3275
890.006	3355
890.13	3443
890.254	3279
890.377	3291
890.501	3195
890.624	3176
890.748	3283
890.871	3150
890.995	3093
891.118	3062
891.241	3199
891.364	3218
891.488	3294
891.611	3226
891.734	3211
891.857	3264
891.98	3218
892.103	3291
892.226	3253
892.349	3218
892.471	3116
892.594	3218
892.717	3260
892.839	3245
892.962	3279
893.085	3306
893.207	3268
893.33	3127
893.452	3214
893.575	3370
893.697	3218
893.819	3458
893.941	3496
894.064	3435
894.186	3253
894.308	3268
894.43	3401
894.552	3549
894.674	3439
894.796	3275
894.918	3279
895.04	3268
895.161	3416
895.283	3401
895.405	3275
895.526	3329
895.648	3447
895.769	3420
895.891	3458
896.012	3420
896.134	3473
896.255	3401
896.376	3370
896.498	3355
896.619	3431
896.74	3367
896.861	3405
896.982	3667
897.103	3835
897.224	3584
897.345	3458
897.466	3431
897.587	3450
897.708	3606
897.828	3557
897.949	3389
898.07	3355
898.19	3370
898.311	3584
898.431	3458
898.552	3526
898.672	3549
898.792	3561
898.913	3515
899.033	3393
899.153	3298
899.273	3214
899.393	3253
899.513	3325
899.633	3351
899.753	3325
899.873	3302
899.993	3344
900.113	3294
900.232	3363
900.352	3329
900.472	3279
900.591	3226
900.711	3275
900.83	3268
900.95	3447
901.069	3561
901.189	3367
901.308	3192
901.427	3184
901.546	3207
901.665	3325
901.784	3344
901.904	3230
902.023	3176
902.141	3066
902.26	3036
902.379	3192
902.498	3077
902.617	3097
902.735	3249
902.854	3287
902.973	3211
903.091	3089
903.21	3081
903.328	3199
903.446	3138
903.565	3138
903.683	3184
903.801	3199
903.919	3294
904.038	3321
904.156	3207
904.274	3325
904.392	3260
904.51	3359
904.627	3348
904.745	3515
904.863	3561
904.981	3313
905.098	3199
905.216	3230
905.334	3325
905.451	3367
905.569	3355
905.686	3450
905.803	3466
905.921	3321
906.038	3469
906.155	3393
906.272	3317
906.389	3378
906.506	3279
906.623	3332
906.74	3302
906.857	3241
906.974	3321
907.091	3492
907.208	3580
907.324	3511
907.441	3420
907.557	3313
907.674	3260
907.79	3260
907.907	3313
908.023	3431
908.139	3412
908.256	3378
908.372	3386
908.488	3355
908.604	3321
908.72	3306
908.836	3340
908.952	3321
909.068	3355
909.184	3534
909.3	3431
909.415	3492
909.531	3496
909.647	3256
909.762	3355
909.878	3268
909.993	3382
910.108	3355
910.224	3370
910.339	3454
910.454	3389
910.57	3329
910.685	3249
910.8	3618
910.915	3538
911.03	3477
911.145	3325
911.259	3325
911.374	3336
911.489	3310
911.604	3249
911.718	3161
911.833	3192
911.947	3070
912.062	3043
912.176	3203
912.291	3253
912.405	3214
912.519	3450
912.633	3507
912.748	3302
912.862	3268
912.976	3195
913.09	3112
913.204	3176
913.318	3218
913.431	3370
913.545	3386
913.659	3431
913.772	3393
913.886	3264
914	3203
914.113	3370
914.226	3485
914.34	3367
914.453	3245
914.566	3431
914.68	3317
914.793	3370
914.906	3150
915.019	3100
915.132	3123
915.245	3207
915.358	3264
915.47	3253
915.583	3283
915.696	3348
915.809	3412
915.921	3500
916.034	3310
916.146	3256
916.259	3230
916.371	3450
916.483	3393
916.595	3291
916.708	3374
916.82	3428
916.932	3363
917.044	3397
917.156	3367
917.268	3291
917.38	3306
917.491	3321
917.603	3416
917.715	3462
917.826	3511
917.938	3397
918.049	3321
918.161	3481
918.272	3625
918.384	3549
918.495	3507
918.606	3351
918.717	3287
918.828	3409
918.939	3439
919.05	3340
919.161	3359
919.272	3214
919.383	3302
919.494	3488
919.604	3690
919.715	3511
919.826	3485
919.936	3450
920.047	3644
920.157	3603
920.267	3781
920.378	3625
920.488	3618
920.598	3804
920.708	3949
920.818	3850
920.928	3861
921.038	4036
921.148	4025
921.258	3759
921.368	3698
921.477	3618
921.587	3584
921.697	3485
921.806	3648
921.916	3530
922.025	3409
922.134	3409
922.244	3336
922.353	3431
922.462	3298
922.571	3283
922.68	3100
922.789	3100
922.898	3188
923.007	3093
923.116	3218
923.224	3214
923.333	3237
923.442	3138
923.55	3135
923.659	3184
923.767	3214
923.876	3138
923.984	3260
924.092	3142
924.201	3275
924.309	3214
924.417	3306
924.525	3222
924.633	3256
924.741	4188
924.849	3097
924.956	3344
925.064	3131
925.172	3104
925.279	3116
925.387	3226
925.494	3230
925.602	3389
925.709	3397
925.816	3230
925.924	3306
926.031	3389
926.138	3348
926.245	3412
926.352	3287
926.459	3431
926.566	3488
926.673	3363
926.779	3275
926.886	3283
926.993	3180
927.099	3161
927.206	3123
927.312	3138
927.419	3298
927.525	3241
927.631	3306
927.737	3161
927.843	3138
927.95	3058
928.056	3165
928.162	3230
928.267	3275
928.373	3880
928.479	3340
928.585	3085
928.69	3241
928.796	3287
928.901	3260
929.007	3089
929.112	3233
929.218	3233
929.323	3192
929.428	3161
929.533	3332
929.638	3135
929.743	3169
929.848	3279
929.953	3268
930.058	3180
930.163	3058
930.267	3108
930.372	3199
930.477	3055
930.581	3363
930.685	3188
930.79	3089
930.894	3123
930.998	3108
931.103	3291
931.207	2994
931.311	2952
931.415	2975
931.519	2773
931.623	2849
