Data from test_V78500241_1708.txt Node
Date: Fri Mar 25 16:27:02 CST 2022
User: usil
Spectrometer: V785-0024
Trigger mode: 0
Integration Time (sec): 4.000000E-1
Scans to average: 1
Nonlinearity correction enabled: false
Boxcar width: 0
Storing dark spectrum: false
XAxis mode: Wavelengths
Number of Pixels in Spectrum: 1024
>>>>>Begin Spectral Data<<<<<
801.071	2880
801.214	2925
801.356	2868
801.499	2937
801.641	2861
801.783	2922
801.926	3051
802.068	2952
802.211	3017
802.353	3017
802.496	2956
802.638	2986
802.78	3039
802.923	3051
803.065	3043
803.208	2914
803.35	2937
803.492	2918
803.635	2937
803.777	2781
803.919	2845
804.061	3192
804.204	2906
804.346	2876
804.488	2823
804.63	2982
804.773	2876
804.915	2887
805.057	3070
805.199	2941
805.341	2990
805.483	2990
805.626	2982
805.768	2956
805.91	3058
806.052	3089
806.194	3017
806.336	3230
806.478	3032
806.62	2925
806.762	2975
806.904	3020
807.046	3123
807.188	2986
807.33	2910
807.472	2971
807.614	2910
807.756	2998
807.898	2922
808.04	2880
808.182	2971
808.324	2899
808.465	2899
808.607	2883
808.749	2788
808.891	2849
809.033	2994
809.174	2963
809.316	2899
809.458	2902
809.6	2781
809.741	2762
809.883	2781
810.025	2868
810.166	2857
810.308	2826
810.45	2842
810.591	2804
810.733	2754
810.875	2861
811.016	2773
811.158	2777
811.299	2811
811.441	2918
811.582	2902
811.724	2826
811.865	2842
812.007	2963
812.148	2861
812.29	2838
812.431	2876
812.573	2891
812.714	2967
812.855	3032
812.997	3024
813.138	3081
813.279	2986
813.421	3009
813.562	2902
813.703	2880
813.845	2883
813.986	2746
814.127	2766
814.268	2819
814.41	2861
814.551	2800
814.692	2857
814.833	2807
814.974	2891
815.115	2975
815.256	2823
815.397	2796
815.539	2868
815.68	2762
815.821	2785
815.962	2960
816.103	2887
816.244	2895
816.385	2876
816.526	2971
816.666	2918
816.807	2762
816.948	2849
817.089	2925
817.23	2838
817.371	2773
817.512	2731
817.653	2807
817.793	2838
817.934	2880
818.075	2971
818.216	2956
818.356	3009
818.497	2887
818.638	2800
818.778	2792
818.919	2746
819.06	2766
819.2	2891
819.341	2804
819.481	2815
819.622	2918
819.762	3089
819.903	3036
820.043	2887
820.184	2876
820.324	2891
820.465	3013
820.605	3013
820.746	3005
820.886	2895
821.026	3100
821.167	3150
821.307	3264
821.447	3241
821.588	3249
821.728	3180
821.868	3161
822.008	3077
822.149	3207
822.289	3237
822.429	3058
822.569	3074
822.709	3150
822.849	3017
822.99	3081
823.13	3154
823.27	3176
823.41	3081
823.55	3173
823.69	3131
823.83	3176
823.97	3085
824.11	2994
824.25	2975
824.389	3089
824.529	3116
824.669	3058
824.809	3180
824.949	3256
825.089	3192
825.228	3157
825.368	2994
825.508	2922
825.648	2960
825.787	2994
825.927	3039
826.067	3009
826.206	2948
826.346	3081
826.485	3066
826.625	3108
826.765	3256
826.904	3249
827.044	3024
827.183	2975
827.323	2887
827.462	3013
827.601	2922
827.741	2971
827.88	2998
828.02	2876
828.159	2971
828.298	3058
828.437	3135
828.577	3039
828.716	3256
828.855	3119
828.994	2925
829.134	2941
829.273	2956
829.412	2902
829.551	2895
829.69	2899
829.829	3013
829.968	3138
830.107	3036
830.246	3043
830.385	2975
830.524	2887
830.663	2849
830.802	2762
830.941	2663
831.08	2686
831.219	2788
831.357	2796
831.496	3028
831.635	2785
831.774	2670
831.913	2663
832.051	2602
832.19	2621
832.329	2724
832.467	2632
832.606	2514
832.744	2594
832.883	2575
833.022	2606
833.16	2689
833.299	2724
833.437	2731
833.576	2724
833.714	2758
833.852	2773
833.991	2804
834.129	2902
834.267	2861
834.406	2830
834.544	2918
834.682	2902
834.821	2868
834.959	3146
835.097	2937
835.235	3112
835.373	3028
835.511	3100
835.65	3009
835.788	2975
835.926	2872
836.064	2868
836.202	2880
836.34	3157
836.478	3161
836.615	3123
836.753	3176
836.891	3253
837.029	3180
837.167	3112
837.305	3097
837.443	3093
837.58	2990
837.718	3165
837.856	3081
837.993	3066
838.131	3142
838.269	3131
838.406	3165
838.544	3116
838.681	2998
838.819	2933
838.956	2834
839.094	2887
839.231	2971
839.369	3028
839.506	3416
839.643	3214
839.781	3055
839.918	2998
840.055	3074
840.193	3108
840.33	3093
840.467	3119
840.604	3146
840.742	3435
840.879	3089
841.016	3089
841.153	3100
841.29	3355
841.427	3340
841.564	3298
841.701	3298
841.838	3256
841.975	3176
842.112	3218
842.249	3093
842.385	3116
842.522	3310
842.659	3116
842.796	3104
842.933	3135
843.069	3062
843.206	3074
843.343	3211
843.479	3184
843.616	3180
843.752	2937
843.889	2899
844.025	3081
844.162	2895
844.298	3093
844.435	2994
844.571	2971
844.708	3081
844.844	3245
844.98	3256
845.117	3230
845.253	3051
845.389	3009
845.525	3142
845.661	3135
845.798	3051
845.934	3138
846.07	3100
846.206	3233
846.342	3340
846.478	3291
846.614	3127
846.75	3036
846.886	3055
847.022	3249
847.158	3150
847.294	3241
847.429	3306
847.565	3241
847.701	3488
847.837	3074
847.972	3017
848.108	3192
848.244	3192
848.379	3047
848.515	2960
848.65	2971
848.786	2979
848.921	3020
849.057	3131
849.192	3169
849.328	3154
849.463	3154
849.598	3100
849.734	3055
849.869	3001
850.004	2941
850.14	3001
850.275	2960
850.41	2857
850.545	2952
850.68	2975
850.815	2975
850.95	2998
851.085	3233
851.22	3150
851.355	3070
851.49	3036
851.625	3032
851.76	3062
851.895	2971
852.03	2929
852.165	3062
852.299	3150
852.434	3222
852.569	3188
852.703	3173
852.838	3237
852.973	3382
853.107	3382
853.242	3157
853.376	3089
853.511	2971
853.645	3009
853.78	3249
853.914	3127
854.048	3123
854.183	3123
854.317	3154
854.451	3332
854.585	3157
854.72	3116
854.854	3226
854.988	3104
855.122	3104
855.256	3013
855.39	3119
855.524	3256
855.658	3188
855.792	3184
855.926	3195
856.06	3237
856.194	3332
856.327	3188
856.461	3100
856.595	3085
856.729	3135
856.862	3245
856.996	3192
857.13	3222
857.263	3233
857.397	3291
857.53	3150
857.664	3184
857.797	3302
857.931	3275
858.064	3150
858.197	3275
858.331	3157
858.464	3112
858.597	3005
858.731	3146
858.864	3146
858.997	3119
859.13	3188
859.263	3214
859.396	3241
859.529	3104
859.662	3089
859.795	3097
859.928	3146
860.061	3321
860.194	3294
860.327	3169
860.46	3093
860.592	3279
860.725	3283
860.858	3245
860.99	3112
861.123	3081
861.256	3100
861.388	3165
861.521	3945
861.653	3043
861.786	3009
861.918	3032
862.05	3070
862.183	3131
862.315	3184
862.447	3249
862.58	3070
862.712	2986
862.844	2887
862.976	3081
863.108	3001
863.24	3466
863.372	2925
863.504	2960
863.636	2963
863.768	3055
863.9	3017
864.032	2922
864.164	2975
864.296	3032
864.428	3093
864.559	3097
864.691	3062
864.823	3093
864.954	3058
865.086	3085
865.217	3020
865.349	2963
865.48	3009
865.612	3032
865.743	3222
865.875	2975
866.006	2975
866.137	2986
866.269	2944
866.4	2937
866.531	2956
866.662	2929
866.793	2944
866.924	2922
867.055	2998
867.186	2967
867.317	2868
867.448	2887
867.579	2857
867.71	2842
867.841	2819
867.972	2941
868.103	2941
868.233	2895
868.364	2941
868.495	2910
868.625	3108
868.756	3146
868.886	2979
869.017	3081
869.147	3222
869.278	3203
869.408	3070
869.539	3055
869.669	3142
869.799	3043
869.929	3100
870.06	3150
870.19	3348
870.32	3306
870.45	3370
870.58	3389
870.71	3492
870.84	3450
870.97	3298
871.1	3272
871.23	3496
871.36	3462
871.489	3336
871.619	3389
871.749	3439
871.879	3469
872.008	3485
872.138	3340
872.267	3306
872.397	3169
872.526	3138
872.656	3024
872.785	3104
872.915	3317
873.044	3332
873.173	3233
873.303	3283
873.432	3241
873.561	3268
873.69	3176
873.819	3161
873.948	3203
874.077	3146
874.206	3062
874.335	3127
874.464	3180
874.593	3336
874.722	3245
874.851	3393
874.979	3393
875.108	3351
875.237	3245
875.365	3195
875.494	3218
875.623	3279
875.751	3097
875.88	3127
876.008	3211
876.136	3279
876.265	3332
876.393	3492
876.521	3458
876.65	3401
876.778	3336
876.906	3298
877.034	3260
877.162	3249
877.29	3211
877.418	3275
877.546	3268
877.674	3283
877.802	3237
877.93	3233
878.058	3161
878.185	3116
878.313	3199
878.441	3241
878.568	3138
878.696	3157
878.824	3279
878.951	3363
879.079	3492
879.206	3629
879.333	3458
879.461	3336
879.588	3389
879.715	3519
879.842	3557
879.97	3378
880.097	3192
880.224	3123
880.351	3226
880.478	3256
880.605	3211
880.732	3222
880.859	3515
880.986	3294
881.112	3329
881.239	3230
881.366	3127
881.493	3062
881.619	3024
881.746	3081
881.872	3100
881.999	3119
882.125	3169
882.252	3260
882.378	3317
882.505	3454
882.631	3291
882.757	3207
882.883	3241
883.01	3226
883.136	3150
883.262	3074
883.388	3108
883.514	3329
883.64	3393
883.766	3310
883.892	3169
884.018	3237
884.143	3428
884.269	3526
884.395	3241
884.52	3157
884.646	3184
884.772	3173
884.897	3150
885.023	3214
885.148	3336
885.274	3424
885.399	3424
885.524	3317
885.65	3302
885.775	3351
885.9	3298
886.025	3431
886.15	3351
886.275	3321
886.4	3245
886.525	3283
886.65	3283
886.775	3264
886.9	3523
887.025	3671
887.149	3412
887.274	3294
887.399	3180
887.523	3237
887.648	3214
887.773	3192
887.897	3393
888.021	3397
888.146	3321
888.27	3458
888.395	3534
888.519	3428
888.643	3447
888.767	3469
888.891	3344
889.015	3264
889.139	3313
889.263	3275
889.387	3393
889.511	3542
889.635	3458
889.759	3325
889.883	3317
890.006	3397
890.13	3504
890.254	3279
890.377	3329
890.501	3226
890.624	3207
890.748	3329
890.871	3233
890.995	3104
891.118	3104
891.241	3211
891.364	3184
891.488	3313
891.611	3184
891.734	3214
891.857	3313
891.98	3233
892.103	3382
892.226	3313
892.349	3237
892.471	3104
892.594	3275
892.717	3241
892.839	3294
892.962	3291
893.085	3374
893.207	3298
893.33	3199
893.452	3207
893.575	3351
893.697	3249
893.819	3496
893.941	3496
894.064	3462
894.186	3325
894.308	3264
894.43	3435
894.552	3530
894.674	3485
894.796	3287
894.918	3329
895.04	3294
895.161	3435
895.283	3401
895.405	3325
895.526	3405
895.648	3431
895.769	3435
895.891	3473
896.012	3450
896.134	3473
896.255	3439
896.376	3401
896.498	3359
896.619	3443
896.74	3370
896.861	3412
896.982	3679
897.103	3831
897.224	3606
897.345	3538
897.466	3428
897.587	3515
897.708	3660
897.828	3572
897.949	3431
898.07	3321
898.19	3405
898.311	3622
898.431	3481
898.552	3526
898.672	3587
898.792	3622
898.913	3545
899.033	3431
899.153	3321
899.273	3256
899.393	3291
899.513	3348
899.633	3351
899.753	3310
899.873	3325
899.993	3389
900.113	3348
900.232	3401
900.352	3310
900.472	3287
900.591	3218
900.711	3268
900.83	3241
900.95	3443
901.069	3485
901.189	3389
901.308	3192
901.427	3131
901.546	3180
901.665	3268
901.784	3351
901.904	3214
902.023	3146
902.141	3017
902.26	2990
902.379	3157
902.498	3074
902.617	3089
902.735	3154
902.854	3192
902.973	3214
903.091	3032
903.21	3070
903.328	3123
903.446	3081
903.565	3123
903.683	3218
903.801	3131
903.919	3245
904.038	3310
904.156	3173
904.274	3325
904.392	3237
904.51	3325
904.627	3340
904.745	3450
904.863	3481
904.981	3283
905.098	3203
905.216	3214
905.334	3264
905.451	3325
905.569	3279
905.686	3443
905.803	3485
905.921	3306
906.038	3428
906.155	3378
906.272	3291
906.389	3321
906.506	3195
906.623	3260
906.74	3294
906.857	3260
906.974	3256
907.091	3488
907.208	3568
907.324	3481
907.441	3420
907.557	3249
907.674	3260
907.79	3233
907.907	3298
908.023	3382
908.139	3386
908.256	3332
908.372	3363
908.488	3363
908.604	3249
908.72	3256
908.836	3272
908.952	3275
909.068	3325
909.184	3469
909.3	3397
909.415	3511
909.531	3466
909.647	3275
909.762	3298
909.878	3226
909.993	3367
910.108	3310
910.224	3344
910.339	3435
910.454	3351
910.57	3313
910.685	3245
910.8	3622
910.915	3496
911.03	3443
911.145	3237
911.259	3329
911.374	3306
911.489	3245
911.604	3230
911.718	3119
911.833	3142
911.947	3039
912.062	2986
912.176	3119
912.291	3192
912.405	3241
912.519	3431
912.633	3450
912.748	3374
912.862	3241
912.976	3222
913.09	3028
913.204	3142
913.318	3207
913.431	3374
913.545	3359
913.659	3363
913.772	3329
913.886	3268
914	3192
914.113	3355
914.226	3416
914.34	3397
914.453	3214
914.566	3416
914.68	3283
914.793	3275
914.906	3146
915.019	3089
915.132	3070
915.245	3184
915.358	3218
915.47	3222
915.583	3279
915.696	3317
915.809	3397
915.921	3405
916.034	3272
916.146	3283
916.259	3211
916.371	3359
916.483	3332
916.595	3241
916.708	3374
916.82	3344
916.932	3332
917.044	3355
917.156	3332
917.268	3279
917.38	3283
917.491	3291
917.603	3382
917.715	3397
917.826	3526
917.938	3420
918.049	3302
918.161	3450
918.272	3584
918.384	3557
918.495	3504
918.606	3325
918.717	3249
918.828	3363
918.939	3439
919.05	3332
919.161	3393
919.272	3176
919.383	3275
919.494	3530
919.604	3682
919.715	3481
919.826	3397
919.936	3462
920.047	3572
920.157	3564
920.267	3785
920.378	3644
920.488	3580
920.598	3816
920.708	3945
920.818	3838
920.928	3838
921.038	4013
921.148	4002
921.258	3720
921.368	3591
921.477	3549
921.587	3526
921.697	3469
921.806	3682
921.916	3530
922.025	3348
922.134	3363
922.244	3325
922.353	3435
922.462	3268
922.571	3199
922.68	3089
922.789	3081
922.898	3157
923.007	3138
923.116	3195
923.224	3169
923.333	3127
923.442	3093
923.55	3100
923.659	3135
923.767	3241
923.876	3154
923.984	3272
924.092	3085
924.201	3180
924.309	3245
924.417	3253
924.525	3176
924.633	3233
924.741	4025
924.849	3058
924.956	3268
925.064	3089
925.172	3070
925.279	3089
925.387	3230
925.494	3184
925.602	3363
925.709	3348
925.816	3176
925.924	3268
926.031	3355
926.138	3329
926.245	3348
926.352	3253
926.459	3397
926.566	3462
926.673	3329
926.779	3233
926.886	3237
926.993	3150
927.099	3146
927.206	3127
927.312	3146
927.419	3256
927.525	3188
927.631	3279
927.737	3123
927.843	3123
927.95	3039
928.056	3138
928.162	3180
928.267	3275
928.373	3876
928.479	3317
928.585	3055
928.69	3230
928.796	3253
928.901	3180
929.007	3051
929.112	3207
929.218	3214
929.323	3108
929.428	3146
929.533	3332
929.638	3108
929.743	3165
929.848	3237
929.953	3253
930.058	3169
930.163	2998
930.267	3077
930.372	3218
930.477	3047
930.581	3329
930.685	3184
930.79	3062
930.894	3104
930.998	3062
931.103	3256
931.207	2982
931.311	2933
931.415	2899
931.519	2769
931.623	2800
