Data from test_V78500241_183.txt Node
Date: Fri Mar 25 16:16:28 CST 2022
User: usil
Spectrometer: V785-0024
Trigger mode: 0
Integration Time (sec): 4.000000E-1
Scans to average: 1
Nonlinearity correction enabled: false
Boxcar width: 0
Storing dark spectrum: false
XAxis mode: Wavelengths
Number of Pixels in Spectrum: 1024
>>>>>Begin Spectral Data<<<<<
801.071	2937
801.214	2982
801.356	2876
801.499	2902
801.641	2868
801.783	2979
801.926	3066
802.068	2975
802.211	2982
802.353	3074
802.496	3013
802.638	3013
802.78	3070
802.923	3097
803.065	2975
803.208	2944
803.35	2944
803.492	2975
803.635	2914
803.777	2758
803.919	2861
804.061	3226
804.204	2956
804.346	2876
804.488	2823
804.63	3028
804.773	2849
804.915	2922
805.057	3135
805.199	2937
805.341	3032
805.483	3005
805.626	3039
805.768	3005
805.91	3119
806.052	3127
806.194	3085
806.336	3226
806.478	3055
806.62	2967
806.762	3024
806.904	3066
807.046	3195
807.188	2979
807.33	2929
807.472	3001
807.614	2944
807.756	2998
807.898	2960
808.04	2902
808.182	3051
808.324	2990
808.465	2876
808.607	2918
808.749	2826
808.891	2883
809.033	2967
809.174	2971
809.316	2891
809.458	2925
809.6	2781
809.741	2785
809.883	2785
810.025	2849
810.166	2876
810.308	2868
810.45	2857
810.591	2788
810.733	2796
810.875	2849
811.016	2796
811.158	2739
811.299	2800
811.441	2922
811.582	2914
811.724	2823
811.865	2880
812.007	2929
812.148	2857
812.29	2845
812.431	2880
812.573	2918
812.714	2975
812.855	3055
812.997	3055
813.138	3165
813.279	3051
813.421	2971
813.562	2944
813.703	2887
813.845	2914
813.986	2842
814.127	2712
814.268	2834
814.41	2842
814.551	2834
814.692	2914
814.833	2842
814.974	2880
815.115	2967
815.256	2857
815.397	2830
815.539	2830
815.68	2796
815.821	2811
815.962	2990
816.103	2918
816.244	2883
816.385	2876
816.526	2975
816.666	2914
816.807	2758
816.948	2933
817.089	2887
817.23	2830
817.371	2792
817.512	2804
817.653	2868
817.793	2826
817.934	2895
818.075	2986
818.216	3009
818.356	3020
818.497	2925
818.638	2796
818.778	2804
818.919	2804
819.06	2766
819.2	2861
819.341	2830
819.481	2838
819.622	2948
819.762	3100
819.903	3062
820.043	2918
820.184	2914
820.324	2914
820.465	3051
820.605	3081
820.746	3058
820.886	2922
821.026	3112
821.167	3165
821.307	3287
821.447	3302
821.588	3253
821.728	3222
821.868	3207
822.008	3081
822.149	3226
822.289	3241
822.429	3108
822.569	3116
822.709	3199
822.849	3074
822.99	3108
823.13	3180
823.27	3253
823.41	3165
823.55	3161
823.69	3157
823.83	3256
823.97	3188
824.11	3039
824.25	3051
824.389	3077
824.529	3173
824.669	3150
824.809	3256
824.949	3306
825.089	3260
825.228	3214
825.368	3104
825.508	3062
825.648	3009
825.787	3058
825.927	3085
826.067	3024
826.206	3017
826.346	3104
826.485	3123
826.625	3165
826.765	3317
826.904	3298
827.044	3036
827.183	2994
827.323	2918
827.462	3051
827.601	2944
827.741	3013
827.88	2990
828.02	2929
828.159	3032
828.298	3119
828.437	3138
828.577	3089
828.716	3306
828.855	3138
828.994	2967
829.134	2922
829.273	2990
829.412	2933
829.551	2868
829.69	2971
829.829	3081
829.968	3157
830.107	3093
830.246	3074
830.385	2994
830.524	2952
830.663	2883
830.802	2781
830.941	2712
831.08	2667
831.219	2842
831.357	2823
831.496	2979
831.635	2754
831.774	2682
831.913	2686
832.051	2617
832.19	2644
832.329	2758
832.467	2575
832.606	2560
832.744	2636
832.883	2598
833.022	2648
833.16	2693
833.299	2781
833.437	2727
833.576	2739
833.714	2766
833.852	2804
833.991	2819
834.129	2868
834.267	2864
834.406	2842
834.544	2880
834.682	2906
834.821	2902
834.959	3077
835.097	2914
835.235	3097
835.373	3028
835.511	3032
835.65	2967
835.788	2998
835.926	2902
836.064	2857
836.202	2910
836.34	3135
836.478	3218
836.615	3116
836.753	3184
836.891	3268
837.029	3230
837.167	3131
837.305	3097
837.443	3066
837.58	3005
837.718	3195
837.856	3104
837.993	3066
838.131	3161
838.269	3135
838.406	3112
838.544	3131
838.681	2990
838.819	2979
838.956	2857
839.094	2853
839.231	2960
839.369	3062
839.506	3386
839.643	3279
839.781	3043
839.918	3017
840.055	3116
840.193	3116
840.33	3116
840.467	3131
840.604	3218
840.742	3466
840.879	3108
841.016	3074
841.153	3150
841.29	3386
841.427	3355
841.564	3340
841.701	3344
841.838	3260
841.975	3222
842.112	3268
842.249	3127
842.385	3100
842.522	3298
842.659	3119
842.796	3123
842.933	3169
843.069	3116
843.206	3104
843.343	3268
843.479	3135
843.616	3154
843.752	2944
843.889	2914
844.025	3142
844.162	2918
844.298	3112
844.435	2990
844.571	2948
844.708	3097
844.844	3230
844.98	3260
845.117	3230
845.253	3131
845.389	3058
845.525	3138
845.661	3150
845.798	3047
845.934	3188
846.07	3154
846.206	3249
846.342	3367
846.478	3283
846.614	3138
846.75	3077
846.886	3047
847.022	3287
847.158	3188
847.294	3249
847.429	3230
847.565	3241
847.701	3561
847.837	3062
847.972	3051
848.108	3173
848.244	3203
848.379	2994
848.515	2929
848.65	2986
848.786	3009
848.921	3077
849.057	3135
849.192	3199
849.328	3112
849.463	3184
849.598	3097
849.734	3062
849.869	3043
850.004	3001
850.14	3005
850.275	2941
850.41	2876
850.545	2918
850.68	2922
850.815	3005
850.95	3017
851.085	3214
851.22	3112
851.355	3062
851.49	3036
851.625	3036
851.76	3077
851.895	2990
852.03	2982
852.165	3070
852.299	3184
852.434	3207
852.569	3176
852.703	3230
852.838	3291
852.973	3378
853.107	3351
853.242	3230
853.376	3127
853.511	3028
853.645	3100
853.78	3272
853.914	3157
854.048	3142
854.183	3123
854.317	3176
854.451	3370
854.585	3157
854.72	3093
854.854	3241
854.988	3108
855.122	3146
855.256	3009
855.39	3154
855.524	3275
855.658	3214
855.792	3165
855.926	3226
856.06	3264
856.194	3268
856.327	3188
856.461	3135
856.595	3108
856.729	3127
856.862	3207
856.996	3184
857.13	3272
857.263	3279
857.397	3332
857.53	3173
857.664	3226
857.797	3264
857.931	3287
858.064	3233
858.197	3260
858.331	3230
858.464	3131
858.597	3020
858.731	3173
858.864	3169
858.997	3123
859.13	3180
859.263	3199
859.396	3253
859.529	3123
859.662	3108
859.795	3085
859.928	3192
860.061	3310
860.194	3302
860.327	3169
860.46	3070
860.592	3256
860.725	3294
860.858	3298
860.99	3135
861.123	3085
861.256	3089
861.388	3188
861.521	3743
861.653	3085
861.786	3020
861.918	3055
862.05	3116
862.183	3169
862.315	3146
862.447	3294
862.58	3116
862.712	2982
862.844	2925
862.976	3055
863.108	3089
863.24	3348
863.372	2914
863.504	2990
863.636	2975
863.768	3081
863.9	3013
864.032	2963
864.164	2952
864.296	3043
864.428	3116
864.559	3127
864.691	3077
864.823	3100
864.954	3089
865.086	3070
865.217	3020
865.349	3001
865.48	2994
865.612	3036
865.743	3192
865.875	3043
866.006	2975
866.137	3001
866.269	2963
866.4	2982
866.531	2944
866.662	2929
866.793	2967
866.924	2944
867.055	3020
867.186	2941
867.317	2891
867.448	2899
867.579	2864
867.71	2857
867.841	2853
867.972	2952
868.103	2952
868.233	2925
868.364	2922
868.495	2929
868.625	3119
868.756	3203
868.886	3009
869.017	3028
869.147	3192
869.278	3180
869.408	3097
869.539	3062
869.669	3142
869.799	3039
869.929	3142
870.06	3150
870.19	3397
870.32	3325
870.45	3348
870.58	3389
870.71	3485
870.84	3511
870.97	3351
871.1	3268
871.23	3492
871.36	3534
871.489	3382
871.619	3420
871.749	3454
871.879	3450
872.008	3523
872.138	3351
872.267	3317
872.397	3195
872.526	3119
872.656	3055
872.785	3154
872.915	3310
873.044	3382
873.173	3253
873.303	3264
873.432	3275
873.561	3325
873.69	3184
873.819	3176
873.948	3207
874.077	3142
874.206	3043
874.335	3142
874.464	3237
874.593	3348
874.722	3291
874.851	3454
874.979	3351
875.108	3359
875.237	3237
875.365	3195
875.494	3222
875.623	3283
875.751	3074
875.88	3173
876.008	3211
876.136	3279
876.265	3351
876.393	3538
876.521	3431
876.65	3412
876.778	3397
876.906	3302
877.034	3233
877.162	3249
877.29	3173
877.418	3310
877.546	3294
877.674	3294
877.802	3233
877.93	3241
878.058	3146
878.185	3157
878.313	3199
878.441	3275
878.568	3089
878.696	3157
878.824	3294
878.951	3359
879.079	3481
879.206	3614
879.333	3515
879.461	3382
879.588	3389
879.715	3496
879.842	3614
879.97	3412
880.097	3184
880.224	3176
880.351	3256
880.478	3237
880.605	3264
880.732	3222
880.859	3500
880.986	3310
881.112	3336
881.239	3253
881.366	3112
881.493	3077
881.619	3032
881.746	3108
881.872	3116
881.999	3100
882.125	3176
882.252	3249
882.378	3302
882.505	3469
882.631	3287
882.757	3173
882.883	3230
883.01	3218
883.136	3207
883.262	3112
883.388	3154
883.514	3359
883.64	3367
883.766	3325
883.892	3226
884.018	3287
884.143	3412
884.269	3576
884.395	3249
884.52	3184
884.646	3214
884.772	3165
884.897	3104
885.023	3222
885.148	3363
885.274	3469
885.399	3405
885.524	3313
885.65	3279
885.775	3374
885.9	3306
886.025	3439
886.15	3363
886.275	3325
886.4	3260
886.525	3313
886.65	3283
886.775	3336
886.9	3530
887.025	3629
887.149	3393
887.274	3275
887.399	3222
887.523	3264
887.648	3199
887.773	3253
887.897	3409
888.021	3428
888.146	3344
888.27	3454
888.395	3538
888.519	3412
888.643	3519
888.767	3542
888.891	3336
889.015	3283
889.139	3370
889.263	3283
889.387	3409
889.511	3530
889.635	3500
889.759	3336
889.883	3348
890.006	3431
890.13	3526
890.254	3310
890.377	3355
890.501	3226
890.624	3192
890.748	3359
890.871	3203
890.995	3135
891.118	3081
891.241	3226
891.364	3260
891.488	3332
891.611	3161
891.734	3237
891.857	3287
891.98	3249
892.103	3386
892.226	3310
892.349	3230
892.471	3138
892.594	3249
892.717	3310
892.839	3313
892.962	3348
893.085	3310
893.207	3313
893.33	3180
893.452	3264
893.575	3325
893.697	3272
893.819	3473
893.941	3538
894.064	3477
894.186	3291
894.308	3306
894.43	3500
894.552	3561
894.674	3538
894.796	3302
894.918	3374
895.04	3351
895.161	3401
895.283	3420
895.405	3321
895.526	3359
895.648	3447
895.769	3458
895.891	3454
896.012	3477
896.134	3492
896.255	3485
896.376	3412
896.498	3393
896.619	3431
896.74	3378
896.861	3397
896.982	3736
897.103	3816
897.224	3599
897.345	3580
897.466	3412
897.587	3572
897.708	3637
897.828	3622
897.949	3473
898.07	3374
898.19	3431
898.311	3637
898.431	3485
898.552	3545
898.672	3641
898.792	3614
898.913	3595
899.033	3439
899.153	3306
899.273	3279
899.393	3313
899.513	3351
899.633	3329
899.753	3370
899.873	3321
899.993	3409
900.113	3374
900.232	3393
900.352	3401
900.472	3317
900.591	3237
900.711	3325
900.83	3253
900.95	3439
901.069	3561
901.189	3405
901.308	3180
901.427	3146
901.546	3203
901.665	3313
901.784	3367
901.904	3245
902.023	3150
902.141	3058
902.26	3017
902.379	3161
902.498	3104
902.617	3085
902.735	3226
902.854	3241
902.973	3214
903.091	3089
903.21	3081
903.328	3150
903.446	3119
903.565	3127
903.683	3241
903.801	3161
903.919	3237
904.038	3268
904.156	3173
904.274	3287
904.392	3264
904.51	3283
904.627	3325
904.745	3500
904.863	3526
904.981	3260
905.098	3188
905.216	3268
905.334	3294
905.451	3321
905.569	3306
905.686	3466
905.803	3431
905.921	3332
906.038	3466
906.155	3382
906.272	3317
906.389	3351
906.506	3230
906.623	3298
906.74	3313
906.857	3211
906.974	3287
907.091	3454
907.208	3606
907.324	3511
907.441	3386
907.557	3226
907.674	3272
907.79	3249
907.907	3291
908.023	3416
908.139	3382
908.256	3340
908.372	3409
908.488	3374
908.604	3264
908.72	3279
908.836	3321
908.952	3306
909.068	3367
909.184	3450
909.3	3428
909.415	3511
909.531	3477
909.647	3291
909.762	3294
909.878	3279
909.993	3386
910.108	3412
910.224	3348
910.339	3462
910.454	3355
910.57	3306
910.685	3249
910.8	3584
910.915	3591
911.03	3443
911.145	3268
911.259	3268
911.374	3336
911.489	3256
911.604	3275
911.718	3108
911.833	3142
911.947	3085
912.062	3017
912.176	3222
912.291	3226
912.405	3233
912.519	3458
912.633	3515
912.748	3332
912.862	3313
912.976	3195
913.09	3055
913.204	3180
913.318	3268
913.431	3378
913.545	3332
913.659	3450
913.772	3325
913.886	3241
914	3211
914.113	3386
914.226	3458
914.34	3405
914.453	3245
914.566	3454
914.68	3310
914.793	3344
914.906	3169
915.019	3154
915.132	3104
915.245	3169
915.358	3207
915.47	3230
915.583	3256
915.696	3306
915.809	3454
915.921	3462
916.034	3313
916.146	3256
916.259	3245
916.371	3412
916.483	3439
916.595	3336
916.708	3370
916.82	3340
916.932	3355
917.044	3382
917.156	3378
917.268	3230
917.38	3351
917.491	3310
917.603	3382
917.715	3454
917.826	3469
917.938	3370
918.049	3321
918.161	3462
918.272	3633
918.384	3595
918.495	3515
918.606	3401
918.717	3306
918.828	3374
918.939	3439
919.05	3378
919.161	3359
919.272	3203
919.383	3302
919.494	3507
919.604	3686
919.715	3504
919.826	3447
919.936	3485
920.047	3614
920.157	3606
920.267	3797
920.378	3629
920.488	3587
920.598	3789
920.708	3998
920.818	3857
920.928	3861
921.038	4036
921.148	3998
921.258	3675
921.368	3622
921.477	3576
921.587	3568
921.697	3462
921.806	3675
921.916	3523
922.025	3344
922.134	3359
922.244	3313
922.353	3420
922.462	3310
922.571	3272
922.68	3157
922.789	3116
922.898	3176
923.007	3108
923.116	3218
923.224	3237
923.333	3214
923.442	3116
923.55	3116
923.659	3184
923.767	3207
923.876	3112
923.984	3287
924.092	3119
924.201	3233
924.309	3233
924.417	3268
924.525	3226
924.633	3279
924.741	4242
924.849	3062
924.956	3279
925.064	3112
925.172	3070
925.279	3104
925.387	3237
925.494	3218
925.602	3348
925.709	3348
925.816	3188
925.924	3302
926.031	3374
926.138	3329
926.245	3367
926.352	3279
926.459	3409
926.566	3500
926.673	3332
926.779	3287
926.886	3291
926.993	3157
927.099	3165
927.206	3089
927.312	3154
927.419	3256
927.525	3222
927.631	3313
927.737	3150
927.843	3154
927.95	3017
928.056	3135
928.162	3192
928.267	3245
928.373	3899
928.479	3313
928.585	3085
928.69	3222
928.796	3272
928.901	3199
929.007	3066
929.112	3249
929.218	3195
929.323	3150
929.428	3184
929.533	3325
929.638	3169
929.743	3176
929.848	3291
929.953	3218
930.058	3135
930.163	3039
930.267	3055
930.372	3207
930.477	3055
930.581	3306
930.685	3188
930.79	3070
930.894	3108
930.998	3135
931.103	3275
931.207	2979
931.311	2994
931.415	2963
931.519	2826
931.623	2807
