Data from test_V78500241_931.txt Node
Date: Fri Mar 25 16:21:39 CST 2022
User: usil
Spectrometer: V785-0024
Trigger mode: 0
Integration Time (sec): 4.000000E-1
Scans to average: 1
Nonlinearity correction enabled: false
Boxcar width: 0
Storing dark spectrum: false
XAxis mode: Wavelengths
Number of Pixels in Spectrum: 1024
>>>>>Begin Spectral Data<<<<<
801.071	2891
801.214	2948
801.356	2872
801.499	2883
801.641	2880
801.783	2941
801.926	3051
802.068	2948
802.211	3013
802.353	3013
802.496	2960
802.638	3028
802.78	3055
802.923	3116
803.065	2998
803.208	2891
803.35	2887
803.492	2941
803.635	2918
803.777	2754
803.919	2849
804.061	3203
804.204	2925
804.346	2891
804.488	2842
804.63	2952
804.773	2861
804.915	2899
805.057	3051
805.199	2944
805.341	2971
805.483	3020
805.626	3013
805.768	2956
805.91	3085
806.052	3119
806.194	3009
806.336	3203
806.478	3036
806.62	2910
806.762	2994
806.904	3058
807.046	3150
807.188	2963
807.33	2925
807.472	2982
807.614	2883
807.756	2979
807.898	2880
808.04	2876
808.182	2960
808.324	2925
808.465	2842
808.607	2876
808.749	2819
808.891	2819
809.033	2975
809.174	2979
809.316	2876
809.458	2925
809.6	2769
809.741	2773
809.883	2731
810.025	2849
810.166	2826
810.308	2838
810.45	2826
810.591	2792
810.733	2746
810.875	2811
811.016	2758
811.158	2750
811.299	2853
811.441	2906
811.582	2876
811.724	2823
811.865	2804
812.007	2914
812.148	2891
812.29	2857
812.431	2899
812.573	2922
812.714	2929
812.855	3024
812.997	3055
813.138	3127
813.279	3013
813.421	2975
813.562	2963
813.703	2876
813.845	2864
813.986	2800
814.127	2731
814.268	2830
814.41	2811
814.551	2800
814.692	2872
814.833	2811
814.974	2910
815.115	2937
815.256	2845
815.397	2823
815.539	2857
815.68	2788
815.821	2804
815.962	2956
816.103	2929
816.244	2914
816.385	2872
816.526	2990
816.666	2891
816.807	2739
816.948	2887
817.089	2922
817.23	2838
817.371	2766
817.512	2807
817.653	2792
817.793	2857
817.934	2868
818.075	2956
818.216	2971
818.356	3013
818.497	2895
818.638	2834
818.778	2834
818.919	2758
819.06	2758
819.2	2842
819.341	2785
819.481	2792
819.622	2941
819.762	3062
819.903	3047
820.043	2868
820.184	2918
820.324	2883
820.465	2975
820.605	3009
820.746	3032
820.886	2925
821.026	3104
821.167	3161
821.307	3249
821.447	3298
821.588	3203
821.728	3180
821.868	3161
822.008	3062
822.149	3176
822.289	3214
822.429	3089
822.569	3085
822.709	3176
822.849	3020
822.99	3085
823.13	3157
823.27	3203
823.41	3093
823.55	3131
823.69	3169
823.83	3199
823.97	3081
824.11	2975
824.25	2994
824.389	3043
824.529	3108
824.669	3070
824.809	3203
824.949	3237
825.089	3211
825.228	3165
825.368	2998
825.508	2986
825.648	2960
825.787	3017
825.927	3028
826.067	2941
826.206	2979
826.346	3024
826.485	3085
826.625	3100
826.765	3230
826.904	3195
827.044	2982
827.183	2925
827.323	2868
827.462	2979
827.601	2914
827.741	2922
827.88	2929
828.02	2823
828.159	2979
828.298	3032
828.437	3116
828.577	3028
828.716	3233
828.855	3039
828.994	2895
829.134	2902
829.273	2910
829.412	2895
829.551	2872
829.69	2899
829.829	2948
829.968	3085
830.107	3017
830.246	3028
830.385	2906
830.524	2910
830.663	2811
830.802	2731
830.941	2659
831.08	2644
831.219	2743
831.357	2746
831.496	2948
831.635	2716
831.774	2625
831.913	2670
832.051	2511
832.19	2583
832.329	2678
832.467	2522
832.606	2476
832.744	2575
832.883	2583
833.022	2560
833.16	2629
833.299	2701
833.437	2678
833.576	2712
833.714	2689
833.852	2708
833.991	2754
834.129	2876
834.267	2830
834.406	2758
834.544	2880
834.682	2876
834.821	2864
834.959	3047
835.097	2899
835.235	3093
835.373	2982
835.511	3036
835.65	2895
835.788	2933
835.926	2838
836.064	2796
836.202	2861
836.34	3081
836.478	3146
836.615	3055
836.753	3119
836.891	3195
837.029	3146
837.167	3085
837.305	3085
837.443	3043
837.58	2990
837.718	3077
837.856	3055
837.993	3039
838.131	3119
838.269	3100
838.406	3093
838.544	3085
838.681	2914
838.819	2922
838.956	2807
839.094	2834
839.231	2902
839.369	2986
839.506	3393
839.643	3233
839.781	3001
839.918	2971
840.055	3047
840.193	3028
840.33	3058
840.467	3093
840.604	3131
840.742	3397
840.879	3039
841.016	3051
841.153	3108
841.29	3317
841.427	3317
841.564	3249
841.701	3291
841.838	3203
841.975	3188
842.112	3211
842.249	3108
842.385	3028
842.522	3279
842.659	3081
842.796	3058
842.933	3070
843.069	3024
843.206	3009
843.343	3226
843.479	3093
843.616	3127
843.752	2883
843.889	2872
844.025	3081
844.162	2868
844.298	3077
844.435	2925
844.571	2906
844.708	3047
844.844	3195
844.98	3241
845.117	3176
845.253	3055
845.389	3005
845.525	3100
845.661	3081
845.798	2994
845.934	3150
846.07	3013
846.206	3192
846.342	3313
846.478	3222
846.614	3104
846.75	3047
846.886	3005
847.022	3230
847.158	3127
847.294	3199
847.429	3279
847.565	3203
847.701	3466
847.837	3051
847.972	2975
848.108	3138
848.244	3116
848.379	2994
848.515	2948
848.65	2929
848.786	2956
848.921	3017
849.057	3089
849.192	3119
849.328	3047
849.463	3138
849.598	3062
849.734	3024
849.869	2967
850.004	2910
850.14	2941
850.275	2891
850.41	2823
850.545	2864
850.68	2914
850.815	2944
850.95	2933
851.085	3199
851.22	3100
851.355	3039
851.49	2963
851.625	2998
851.76	3017
851.895	2918
852.03	2880
852.165	3013
852.299	3093
852.434	3192
852.569	3127
852.703	3173
852.838	3249
852.973	3348
853.107	3332
853.242	3161
853.376	3074
853.511	2986
853.645	3039
853.78	3245
853.914	3161
854.048	3074
854.183	3104
854.317	3097
854.451	3298
854.585	3116
854.72	3070
854.854	3241
854.988	3062
855.122	3089
855.256	2990
855.39	3081
855.524	3268
855.658	3123
855.792	3123
855.926	3165
856.06	3233
856.194	3253
856.327	3169
856.461	3070
856.595	3055
856.729	3077
856.862	3233
856.996	3180
857.13	3184
857.263	3241
857.397	3272
857.53	3131
857.664	3169
857.797	3264
857.931	3199
858.064	3157
858.197	3222
858.331	3108
858.464	3070
858.597	2982
858.731	3116
858.864	3119
858.997	3024
859.13	3169
859.263	3180
859.396	3192
859.529	3093
859.662	3127
859.795	3066
859.928	3116
860.061	3260
860.194	3275
860.327	3097
860.46	3089
860.592	3233
860.725	3222
860.858	3287
860.99	3093
861.123	3062
861.256	3043
861.388	3093
861.521	3789
861.653	2998
861.786	2975
861.918	2998
862.05	3055
862.183	3104
862.315	3131
862.447	3176
862.58	3100
862.712	2925
862.844	2853
862.976	2986
863.108	3013
863.24	3443
863.372	2876
863.504	2986
863.636	2929
863.768	3009
863.9	2944
864.032	2872
864.164	2937
864.296	3001
864.428	3062
864.559	3104
864.691	3066
864.823	3032
864.954	3062
865.086	3036
865.217	2986
865.349	2975
865.48	2998
865.612	3017
865.743	3150
865.875	3005
866.006	2941
866.137	2948
866.269	2948
866.4	2948
866.531	2914
866.662	2868
866.793	2883
866.924	2887
867.055	2941
867.186	2864
867.317	2899
867.448	2853
867.579	2842
867.71	2826
867.841	2804
867.972	2883
868.103	2891
868.233	2899
868.364	2876
868.495	2906
868.625	3081
868.756	3150
868.886	2975
869.017	2986
869.147	3176
869.278	3127
869.408	3047
869.539	3051
869.669	3116
869.799	3009
869.929	3127
870.06	3066
870.19	3340
870.32	3287
870.45	3283
870.58	3317
870.71	3435
870.84	3439
870.97	3287
871.1	3226
871.23	3458
871.36	3416
871.489	3313
871.619	3386
871.749	3428
871.879	3416
872.008	3469
872.138	3378
872.267	3298
872.397	3119
872.526	3043
872.656	2990
872.785	3066
872.915	3203
873.044	3264
873.173	3226
873.303	3256
873.432	3214
873.561	3203
873.69	3188
873.819	3135
873.948	3188
874.077	3108
874.206	3058
874.335	3066
874.464	3195
874.593	3344
874.722	3241
874.851	3374
874.979	3344
875.108	3298
875.237	3211
875.365	3176
875.494	3142
875.623	3256
875.751	3066
875.88	3108
876.008	3237
876.136	3237
876.265	3405
876.393	3519
876.521	3374
876.65	3393
876.778	3313
876.906	3268
877.034	3188
877.162	3222
877.29	3173
877.418	3275
877.546	3233
877.674	3192
877.802	3249
877.93	3203
878.058	3184
878.185	3119
878.313	3173
878.441	3245
878.568	3039
878.696	3154
878.824	3226
878.951	3291
879.079	3420
879.206	3580
879.333	3401
879.461	3367
879.588	3363
879.715	3526
879.842	3587
879.97	3378
880.097	3135
880.224	3116
880.351	3214
880.478	3195
880.605	3211
880.732	3184
880.859	3454
880.986	3279
881.112	3325
881.239	3169
881.366	3104
881.493	3043
881.619	2963
881.746	3070
881.872	3089
881.999	3055
882.125	3150
882.252	3211
882.378	3294
882.505	3439
882.631	3218
882.757	3127
882.883	3226
883.01	3222
883.136	3138
883.262	3112
883.388	3112
883.514	3321
883.64	3401
883.766	3294
883.892	3169
884.018	3218
884.143	3420
884.269	3526
884.395	3176
884.52	3188
884.646	3169
884.772	3112
884.897	3093
885.023	3176
885.148	3317
885.274	3428
885.399	3363
885.524	3298
885.65	3256
885.775	3298
885.9	3272
886.025	3405
886.15	3325
886.275	3302
886.4	3237
886.525	3283
886.65	3256
886.775	3294
886.9	3485
887.025	3652
887.149	3382
887.274	3233
887.399	3192
887.523	3218
887.648	3150
887.773	3188
887.897	3355
888.021	3374
888.146	3260
888.27	3420
888.395	3523
888.519	3424
888.643	3466
888.767	3466
888.891	3268
889.015	3249
889.139	3283
889.263	3233
889.387	3401
889.511	3526
889.635	3431
889.759	3302
889.883	3294
890.006	3409
890.13	3477
890.254	3245
890.377	3310
890.501	3207
890.624	3192
890.748	3306
890.871	3146
890.995	3119
891.118	3097
891.241	3218
891.364	3207
891.488	3332
891.611	3192
891.734	3249
891.857	3279
891.98	3226
892.103	3344
892.226	3275
892.349	3192
892.471	3131
892.594	3192
892.717	3317
892.839	3298
892.962	3287
893.085	3355
893.207	3298
893.33	3131
893.452	3222
893.575	3291
893.697	3256
893.819	3458
893.941	3466
894.064	3454
894.186	3283
894.308	3310
894.43	3450
894.552	3504
894.674	3519
894.796	3256
894.918	3317
895.04	3321
895.161	3431
895.283	3370
895.405	3306
895.526	3355
895.648	3424
895.769	3389
895.891	3439
896.012	3466
896.134	3424
896.255	3416
896.376	3397
896.498	3351
896.619	3431
896.74	3348
896.861	3378
896.982	3709
897.103	3861
897.224	3629
897.345	3500
897.466	3401
897.587	3515
897.708	3606
897.828	3515
897.949	3458
898.07	3313
898.19	3397
898.311	3599
898.431	3450
898.552	3545
898.672	3618
898.792	3576
898.913	3477
899.033	3397
899.153	3253
899.273	3226
899.393	3256
899.513	3336
899.633	3283
899.753	3313
899.873	3298
899.993	3332
900.113	3344
900.232	3409
900.352	3321
900.472	3272
900.591	3169
900.711	3253
900.83	3260
900.95	3412
901.069	3458
901.189	3378
901.308	3192
901.427	3142
901.546	3157
901.665	3294
901.784	3321
901.904	3207
902.023	3169
902.141	3017
902.26	2986
902.379	3127
902.498	3074
902.617	3028
902.735	3226
902.854	3233
902.973	3199
903.091	3028
903.21	3039
903.328	3131
903.446	3119
903.565	3081
903.683	3180
903.801	3142
903.919	3253
904.038	3253
904.156	3192
904.274	3275
904.392	3214
904.51	3321
904.627	3336
904.745	3458
904.863	3447
904.981	3249
905.098	3173
905.216	3207
905.334	3325
905.451	3294
905.569	3272
905.686	3424
905.803	3469
905.921	3302
906.038	3416
906.155	3336
906.272	3260
906.389	3313
906.506	3154
906.623	3237
906.74	3298
906.857	3188
906.974	3237
907.091	3428
907.208	3561
907.324	3488
907.441	3367
907.557	3264
907.674	3226
907.79	3237
907.907	3245
908.023	3409
908.139	3393
908.256	3310
908.372	3348
908.488	3348
908.604	3241
908.72	3241
908.836	3256
908.952	3264
909.068	3374
909.184	3488
909.3	3374
909.415	3485
909.531	3473
909.647	3249
909.762	3283
909.878	3230
909.993	3370
910.108	3332
910.224	3313
910.339	3386
910.454	3332
910.57	3272
910.685	3214
910.8	3584
910.915	3519
911.03	3412
911.145	3279
911.259	3313
911.374	3325
911.489	3222
911.604	3214
911.718	3142
911.833	3146
911.947	3032
912.062	2990
912.176	3188
912.291	3173
912.405	3165
912.519	3439
912.633	3458
912.748	3325
912.862	3287
912.976	3100
913.09	3051
913.204	3127
913.318	3211
913.431	3321
913.545	3321
913.659	3386
913.772	3313
913.886	3203
914	3192
914.113	3348
914.226	3397
914.34	3370
914.453	3230
914.566	3382
914.68	3298
914.793	3283
914.906	3131
915.019	3100
915.132	3058
915.245	3131
915.358	3184
915.47	3226
915.583	3256
915.696	3249
915.809	3420
915.921	3348
916.034	3241
916.146	3268
916.259	3249
916.371	3386
916.483	3382
916.595	3253
916.708	3359
916.82	3340
916.932	3359
917.044	3363
917.156	3363
917.268	3268
917.38	3272
917.491	3287
917.603	3363
917.715	3458
917.826	3488
917.938	3370
918.049	3294
918.161	3450
918.272	3561
918.384	3572
918.495	3469
918.606	3336
918.717	3253
918.828	3355
918.939	3374
919.05	3264
919.161	3359
919.272	3199
919.383	3272
919.494	3500
919.604	3675
919.715	3443
919.826	3409
919.936	3454
920.047	3580
920.157	3561
920.267	3755
920.378	3610
920.488	3561
920.598	3785
920.708	3941
920.818	3819
920.928	3800
921.038	4017
921.148	3987
921.258	3690
921.368	3641
921.477	3576
921.587	3542
921.697	3473
921.806	3595
921.916	3530
922.025	3382
922.134	3329
922.244	3294
922.353	3447
922.462	3264
922.571	3180
922.68	3081
922.789	3058
922.898	3138
923.007	3085
923.116	3180
923.224	3176
923.333	3199
923.442	3131
923.55	3085
923.659	3150
923.767	3233
923.876	3081
923.984	3233
924.092	3085
924.201	3199
924.309	3188
924.417	3207
924.525	3169
924.633	3272
924.741	4097
924.849	3062
924.956	3256
925.064	3112
925.172	3043
925.279	3112
925.387	3222
925.494	3188
925.602	3363
925.709	3313
925.816	3157
925.924	3302
926.031	3405
926.138	3321
926.245	3367
926.352	3230
926.459	3431
926.566	3416
926.673	3329
926.779	3169
926.886	3249
926.993	3161
927.099	3119
927.206	3093
927.312	3089
927.419	3218
927.525	3199
927.631	3287
927.737	3127
927.843	3108
927.95	3017
928.056	3161
928.162	3195
928.267	3233
928.373	3842
928.479	3332
928.585	3116
928.69	3195
928.796	3279
928.901	3150
929.007	3036
929.112	3150
929.218	3188
929.323	3108
929.428	3127
929.533	3317
929.638	3104
929.743	3150
929.848	3245
929.953	3180
930.058	3131
930.163	3013
930.267	3081
930.372	3195
930.477	3005
930.581	3253
930.685	3173
930.79	3058
930.894	3131
930.998	3043
931.103	3264
931.207	2960
931.311	2952
931.415	2941
931.519	2731
931.623	2807
