Data from test_V78500241_1555.txt Node
Date: Fri Mar 25 16:25:58 CST 2022
User: usil
Spectrometer: V785-0024
Trigger mode: 0
Integration Time (sec): 4.000000E-1
Scans to average: 1
Nonlinearity correction enabled: false
Boxcar width: 0
Storing dark spectrum: false
XAxis mode: Wavelengths
Number of Pixels in Spectrum: 1024
>>>>>Begin Spectral Data<<<<<
801.071	2880
801.214	2933
801.356	2876
801.499	2910
801.641	2895
801.783	2899
801.926	3047
802.068	2990
802.211	2990
802.353	3047
802.496	2979
802.638	3001
802.78	3009
802.923	3062
803.065	3009
803.208	2895
803.35	2902
803.492	2941
803.635	2868
803.777	2739
803.919	2868
804.061	3180
804.204	2933
804.346	2895
804.488	2811
804.63	2960
804.773	2868
804.915	2861
805.057	3055
805.199	2922
805.341	2975
805.483	3051
805.626	3024
805.768	2937
805.91	3066
806.052	3077
806.194	3070
806.336	3214
806.478	3020
806.62	2971
806.762	2975
806.904	3058
807.046	3127
807.188	2990
807.33	2948
807.472	2967
807.614	2933
807.756	2990
807.898	2914
808.04	2872
808.182	2967
808.324	2948
808.465	2880
808.607	2883
808.749	2804
808.891	2838
809.033	2971
809.174	2956
809.316	2857
809.458	2864
809.6	2754
809.741	2785
809.883	2781
810.025	2853
810.166	2838
810.308	2830
810.45	2891
810.591	2785
810.733	2788
810.875	2853
811.016	2785
811.158	2762
811.299	2834
811.441	2925
811.582	2899
811.724	2830
811.865	2830
812.007	2918
812.148	2895
812.29	2891
812.431	2887
812.573	2922
812.714	2922
812.855	3066
812.997	2990
813.138	3112
813.279	3009
813.421	2998
813.562	2941
813.703	2883
813.845	2887
813.986	2792
814.127	2724
814.268	2823
814.41	2823
814.551	2842
814.692	2902
814.833	2815
814.974	2868
815.115	2941
815.256	2819
815.397	2853
815.539	2857
815.68	2762
815.821	2823
815.962	2922
816.103	2933
816.244	2872
816.385	2834
816.526	2990
816.666	2895
816.807	2746
816.948	2895
817.089	2872
817.23	2853
817.371	2766
817.512	2796
817.653	2807
817.793	2849
817.934	2857
818.075	2956
818.216	2979
818.356	2998
818.497	2868
818.638	2762
818.778	2830
818.919	2815
819.06	2758
819.2	2883
819.341	2830
819.481	2823
819.622	2937
819.762	3097
819.903	3051
820.043	2922
820.184	2887
820.324	2899
820.465	3017
820.605	2986
820.746	3058
820.886	2933
821.026	3116
821.167	3161
821.307	3233
821.447	3294
821.588	3230
821.728	3211
821.868	3222
822.008	3070
822.149	3203
822.289	3218
822.429	3081
822.569	3085
822.709	3195
822.849	3020
822.99	3055
823.13	3146
823.27	3226
823.41	3062
823.55	3135
823.69	3150
823.83	3207
823.97	3081
824.11	3039
824.25	3024
824.389	3066
824.529	3097
824.669	3077
824.809	3207
824.949	3233
825.089	3203
825.228	3157
825.368	3066
825.508	2967
825.648	2963
825.787	3001
825.927	2990
826.067	2937
826.206	2929
826.346	3028
826.485	3085
826.625	3100
826.765	3264
826.904	3233
827.044	2952
827.183	2937
827.323	2849
827.462	2982
827.601	2918
827.741	2929
827.88	2952
828.02	2864
828.159	2975
828.298	2967
828.437	3112
828.577	3013
828.716	3203
828.855	3100
828.994	2883
829.134	2864
829.273	2910
829.412	2891
829.551	2872
829.69	2891
829.829	2967
829.968	3112
830.107	3028
830.246	3009
830.385	2899
830.524	2868
830.663	2815
830.802	2743
830.941	2670
831.08	2667
831.219	2754
831.357	2735
831.496	2929
831.635	2731
831.774	2651
831.913	2636
832.051	2579
832.19	2579
832.329	2686
832.467	2530
832.606	2488
832.744	2579
832.883	2579
833.022	2602
833.16	2651
833.299	2667
833.437	2712
833.576	2689
833.714	2682
833.852	2716
833.991	2735
834.129	2830
834.267	2807
834.406	2785
834.544	2899
834.682	2880
834.821	2861
834.959	3081
835.097	2902
835.235	3062
835.373	3001
835.511	3001
835.65	2982
835.788	2937
835.926	2811
836.064	2834
836.202	2845
836.34	3108
836.478	3146
836.615	3001
836.753	3169
836.891	3195
837.029	3138
837.167	3119
837.305	3097
837.443	3051
837.58	2944
837.718	3104
837.856	3093
837.993	3020
838.131	3085
838.269	3100
838.406	3104
838.544	3043
838.681	2925
838.819	2910
838.956	2788
839.094	2800
839.231	2929
839.369	3036
839.506	3355
839.643	3192
839.781	3028
839.918	2944
840.055	3062
840.193	3039
840.33	3051
840.467	3085
840.604	3184
840.742	3405
840.879	3024
841.016	3055
841.153	3093
841.29	3344
841.427	3256
841.564	3272
841.701	3332
841.838	3211
841.975	3138
842.112	3214
842.249	3070
842.385	3009
842.522	3256
842.659	3119
842.796	3081
842.933	3081
843.069	3036
843.206	3051
843.343	3173
843.479	3089
843.616	3123
843.752	2876
843.889	2849
844.025	3131
844.162	2906
844.298	3051
844.435	2952
844.571	2887
844.708	3062
844.844	3184
844.98	3230
845.117	3214
845.253	3066
845.389	3005
845.525	3093
845.661	3100
845.798	3001
845.934	3108
846.07	3039
846.206	3211
846.342	3317
846.478	3226
846.614	3119
846.75	3058
846.886	3039
847.022	3256
847.158	3131
847.294	3203
847.429	3222
847.565	3192
847.701	3485
847.837	3066
847.972	3005
848.108	3157
848.244	3150
848.379	2975
848.515	2956
848.65	2967
848.786	2937
848.921	2986
849.057	3097
849.192	3146
849.328	3051
849.463	3089
849.598	3036
849.734	3039
849.869	2952
850.004	2895
850.14	2960
850.275	2929
850.41	2861
850.545	2876
850.68	2960
850.815	2967
850.95	2944
851.085	3188
851.22	3066
851.355	3055
851.49	3017
851.625	2994
851.76	2982
851.895	2925
852.03	2922
852.165	3017
852.299	3116
852.434	3180
852.569	3161
852.703	3165
852.838	3233
852.973	3329
853.107	3336
853.242	3154
853.376	3062
853.511	2967
853.645	3047
853.78	3226
853.914	3116
854.048	3127
854.183	3104
854.317	3142
854.451	3268
854.585	3108
854.72	3081
854.854	3199
854.988	3039
855.122	3100
855.256	2982
855.39	3074
855.524	3256
855.658	3199
855.792	3138
855.926	3173
856.06	3207
856.194	3291
856.327	3184
856.461	3074
856.595	3055
856.729	3058
856.862	3218
856.996	3154
857.13	3195
857.263	3260
857.397	3260
857.53	3157
857.664	3161
857.797	3222
857.931	3188
858.064	3127
858.197	3203
858.331	3089
858.464	3077
858.597	3009
858.731	3100
858.864	3135
858.997	3074
859.13	3150
859.263	3161
859.396	3192
859.529	3070
859.662	3100
859.795	3028
859.928	3142
860.061	3268
860.194	3279
860.327	3146
860.46	3093
860.592	3233
860.725	3245
860.858	3199
860.99	3089
861.123	3020
861.256	3039
861.388	3150
861.521	3941
861.653	2982
861.786	2971
861.918	3001
862.05	3070
862.183	3085
862.315	3146
862.447	3188
862.58	3047
862.712	2963
862.844	2853
862.976	3017
863.108	2990
863.24	3325
863.372	2876
863.504	2986
863.636	2925
863.768	2956
863.9	2963
864.032	2883
864.164	2944
864.296	3009
864.428	3097
864.559	3062
864.691	3070
864.823	3062
864.954	3047
865.086	3036
865.217	2975
865.349	2941
865.48	2986
865.612	3017
865.743	3180
865.875	2979
866.006	2948
866.137	2979
866.269	2967
866.4	2887
866.531	2929
866.662	2899
866.793	2864
866.924	2933
867.055	2967
867.186	2937
867.317	2876
867.448	2857
867.579	2842
867.71	2864
867.841	2834
867.972	2918
868.103	2925
868.233	2872
868.364	2864
868.495	2891
868.625	3058
868.756	3169
868.886	2948
869.017	3020
869.147	3161
869.278	3176
869.408	3058
869.539	3017
869.669	3085
869.799	3024
869.929	3135
870.06	3097
870.19	3291
870.32	3306
870.45	3302
870.58	3374
870.71	3416
870.84	3477
870.97	3298
871.1	3214
871.23	3458
871.36	3450
871.489	3329
871.619	3416
871.749	3431
871.879	3424
872.008	3507
872.138	3363
872.267	3275
872.397	3138
872.526	3108
872.656	2982
872.785	3116
872.915	3256
873.044	3298
873.173	3253
873.303	3287
873.432	3207
873.561	3176
873.69	3142
873.819	3112
873.948	3222
874.077	3127
874.206	3028
874.335	3089
874.464	3214
874.593	3363
874.722	3260
874.851	3355
874.979	3386
875.108	3310
875.237	3195
875.365	3142
875.494	3180
875.623	3230
875.751	3062
875.88	3104
876.008	3192
876.136	3203
876.265	3374
876.393	3545
876.521	3431
876.65	3397
876.778	3332
876.906	3275
877.034	3222
877.162	3256
877.29	3138
877.418	3226
877.546	3249
877.674	3222
877.802	3245
877.93	3260
878.058	3146
878.185	3108
878.313	3233
878.441	3192
878.568	3089
878.696	3150
878.824	3237
878.951	3291
879.079	3424
879.206	3648
879.333	3405
879.461	3340
879.588	3355
879.715	3473
879.842	3591
879.97	3351
880.097	3157
880.224	3131
880.351	3192
880.478	3241
880.605	3142
880.732	3176
880.859	3481
880.986	3268
881.112	3325
881.239	3226
881.366	3074
881.493	3036
881.619	3017
881.746	3062
881.872	3070
881.999	3119
882.125	3146
882.252	3233
882.378	3287
882.505	3428
882.631	3241
882.757	3154
882.883	3192
883.01	3249
883.136	3184
883.262	3074
883.388	3119
883.514	3344
883.64	3367
883.766	3268
883.892	3199
884.018	3283
884.143	3378
884.269	3481
884.395	3192
884.52	3161
884.646	3146
884.772	3108
884.897	3104
885.023	3207
885.148	3329
885.274	3397
885.399	3397
885.524	3260
885.65	3233
885.775	3321
885.9	3279
886.025	3458
886.15	3302
886.275	3306
886.4	3233
886.525	3264
886.65	3294
886.775	3230
886.9	3500
887.025	3629
887.149	3378
887.274	3211
887.399	3180
887.523	3165
887.648	3237
887.773	3218
887.897	3374
888.021	3412
888.146	3256
888.27	3431
888.395	3477
888.519	3405
888.643	3469
888.767	3454
888.891	3317
889.015	3237
889.139	3256
889.263	3253
889.387	3435
889.511	3545
889.635	3458
889.759	3294
889.883	3283
890.006	3363
890.13	3473
890.254	3272
890.377	3332
890.501	3195
890.624	3192
890.748	3294
890.871	3176
890.995	3097
891.118	3074
891.241	3199
891.364	3226
891.488	3321
891.611	3184
891.734	3218
891.857	3249
891.98	3253
892.103	3348
892.226	3294
892.349	3249
892.471	3123
892.594	3260
892.717	3226
892.839	3226
892.962	3283
893.085	3340
893.207	3313
893.33	3157
893.452	3199
893.575	3344
893.697	3260
893.819	3481
893.941	3504
894.064	3428
894.186	3256
894.308	3237
894.43	3431
894.552	3542
894.674	3492
894.796	3283
894.918	3283
895.04	3291
895.161	3416
895.283	3370
895.405	3310
895.526	3336
895.648	3447
895.769	3424
895.891	3473
896.012	3466
896.134	3447
896.255	3431
896.376	3374
896.498	3367
896.619	3458
896.74	3382
896.861	3401
896.982	3686
897.103	3819
897.224	3595
897.345	3462
897.466	3401
897.587	3492
897.708	3572
897.828	3549
897.949	3450
898.07	3302
898.19	3412
898.311	3576
898.431	3409
898.552	3549
898.672	3622
898.792	3492
898.913	3553
899.033	3435
899.153	3279
899.273	3226
899.393	3279
899.513	3306
899.633	3294
899.753	3363
899.873	3279
899.993	3393
900.113	3310
900.232	3401
900.352	3317
900.472	3279
900.591	3230
900.711	3298
900.83	3218
900.95	3397
901.069	3496
901.189	3348
901.308	3176
901.427	3127
901.546	3180
901.665	3298
901.784	3298
901.904	3192
902.023	3108
902.141	3013
902.26	2971
902.379	3135
902.498	3085
902.617	3085
902.735	3218
902.854	3207
902.973	3180
903.091	3032
903.21	3081
903.328	3131
903.446	3100
903.565	3127
903.683	3207
903.801	3157
903.919	3214
904.038	3336
904.156	3173
904.274	3283
904.392	3241
904.51	3253
904.627	3313
904.745	3428
904.863	3500
904.981	3192
905.098	3138
905.216	3253
905.334	3279
905.451	3291
905.569	3294
905.686	3363
905.803	3412
905.921	3275
906.038	3443
906.155	3332
906.272	3272
906.389	3329
906.506	3230
906.623	3199
906.74	3249
906.857	3195
906.974	3272
907.091	3469
907.208	3576
907.324	3488
907.441	3431
907.557	3199
907.674	3218
907.79	3218
907.907	3279
908.023	3405
908.139	3374
908.256	3355
908.372	3340
908.488	3355
908.604	3253
908.72	3226
908.836	3298
908.952	3275
909.068	3298
909.184	3469
909.3	3363
909.415	3523
909.531	3454
909.647	3260
909.762	3298
909.878	3218
909.993	3367
910.108	3310
910.224	3348
910.339	3450
910.454	3325
910.57	3287
910.685	3253
910.8	3542
910.915	3557
911.03	3439
911.145	3245
911.259	3287
911.374	3325
911.489	3226
911.604	3203
911.718	3157
911.833	3161
911.947	3005
912.062	2979
912.176	3184
912.291	3184
912.405	3211
912.519	3409
912.633	3450
912.748	3332
912.862	3283
912.976	3169
913.09	3047
913.204	3165
913.318	3199
913.431	3321
913.545	3359
913.659	3397
913.772	3325
913.886	3226
914	3184
914.113	3336
914.226	3420
914.34	3374
914.453	3230
914.566	3389
914.68	3329
914.793	3283
914.906	3157
915.019	3127
915.132	3089
915.245	3161
915.358	3180
915.47	3203
915.583	3264
915.696	3283
915.809	3382
915.921	3466
916.034	3256
916.146	3245
916.259	3218
916.371	3367
916.483	3344
916.595	3268
916.708	3336
916.82	3317
916.932	3321
917.044	3340
917.156	3336
917.268	3253
917.38	3272
917.491	3283
917.603	3348
917.715	3450
917.826	3462
917.938	3420
918.049	3279
918.161	3439
918.272	3561
918.384	3564
918.495	3496
918.606	3313
918.717	3218
918.828	3393
918.939	3405
919.05	3321
919.161	3313
919.272	3222
919.383	3294
919.494	3477
919.604	3679
919.715	3496
919.826	3435
919.936	3477
920.047	3564
920.157	3545
920.267	3743
920.378	3625
920.488	3557
920.598	3755
920.708	3975
920.818	3804
920.928	3827
921.038	4006
921.148	4010
921.258	3717
921.368	3603
921.477	3576
921.587	3504
921.697	3416
921.806	3667
921.916	3530
922.025	3348
922.134	3374
922.244	3302
922.353	3454
922.462	3310
922.571	3241
922.68	3127
922.789	3074
922.898	3112
923.007	3108
923.116	3207
923.224	3165
923.333	3135
923.442	3093
923.55	3108
923.659	3135
923.767	3199
923.876	3089
923.984	3222
924.092	3108
924.201	3199
924.309	3226
924.417	3256
924.525	3176
924.633	3237
924.741	4162
924.849	3055
924.956	3275
925.064	3108
925.172	3051
925.279	3093
925.387	3184
925.494	3260
925.602	3351
925.709	3302
925.816	3211
925.924	3298
926.031	3355
926.138	3348
926.245	3389
926.352	3245
926.459	3447
926.566	3458
926.673	3367
926.779	3245
926.886	3245
926.993	3131
927.099	3165
927.206	3131
927.312	3116
927.419	3214
927.525	3203
927.631	3275
927.737	3108
927.843	3100
927.95	3013
928.056	3173
928.162	3188
928.267	3272
928.373	3797
928.479	3302
928.585	3055
928.69	3207
928.796	3294
928.901	3146
929.007	3085
929.112	3211
929.218	3146
929.323	3150
929.428	3154
929.533	3291
929.638	3119
929.743	3184
929.848	3214
929.953	3214
930.058	3100
930.163	3013
930.267	3017
930.372	3180
930.477	3020
930.581	3310
930.685	3195
930.79	3070
930.894	3093
930.998	3131
931.103	3275
931.207	2948
931.311	2929
931.415	2941
931.519	2766
931.623	2788
