Data from test_V78500241_1241.txt Node
Date: Fri Mar 25 16:23:48 CST 2022
User: usil
Spectrometer: V785-0024
Trigger mode: 0
Integration Time (sec): 4.000000E-1
Scans to average: 1
Nonlinearity correction enabled: false
Boxcar width: 0
Storing dark spectrum: false
XAxis mode: Wavelengths
Number of Pixels in Spectrum: 1024
>>>>>Begin Spectral Data<<<<<
801.071	2944
801.214	2937
801.356	2883
801.499	2925
801.641	2880
801.783	2925
801.926	3062
802.068	2982
802.211	3020
802.353	3043
802.496	2944
802.638	3024
802.78	3043
802.923	3093
803.065	2986
803.208	2895
803.35	2941
803.492	2975
803.635	2944
803.777	2762
803.919	2842
804.061	3211
804.204	2956
804.346	2895
804.488	2830
804.63	2956
804.773	2864
804.915	2876
805.057	3077
805.199	2902
805.341	2967
805.483	3051
805.626	3013
805.768	2986
805.91	3100
806.052	3123
806.194	3043
806.336	3230
806.478	3020
806.62	2967
806.762	3005
806.904	3104
807.046	3180
807.188	2998
807.33	2910
807.472	2982
807.614	2887
807.756	3001
807.898	2925
808.04	2925
808.182	2956
808.324	2979
808.465	2883
808.607	2914
808.749	2788
808.891	2861
809.033	2986
809.174	2975
809.316	2895
809.458	2910
809.6	2785
809.741	2781
809.883	2804
810.025	2876
810.166	2876
810.308	2842
810.45	2853
810.591	2819
810.733	2769
810.875	2807
811.016	2758
811.158	2746
811.299	2823
811.441	2956
811.582	2918
811.724	2796
811.865	2819
812.007	2956
812.148	2830
812.29	2872
812.431	2895
812.573	2971
812.714	2963
812.855	3047
812.997	3028
813.138	3146
813.279	3036
813.421	2979
813.562	2944
813.703	2876
813.845	2857
813.986	2788
814.127	2708
814.268	2815
814.41	2830
814.551	2842
814.692	2891
814.833	2826
814.974	2952
815.115	2944
815.256	2838
815.397	2807
815.539	2899
815.68	2811
815.821	2834
815.962	2933
816.103	2929
816.244	2906
816.385	2918
816.526	2956
816.666	2922
816.807	2766
816.948	2880
817.089	2925
817.23	2910
817.371	2804
817.512	2785
817.653	2864
817.793	2853
817.934	2876
818.075	2963
818.216	2982
818.356	3028
818.497	2902
818.638	2830
818.778	2823
818.919	2807
819.06	2781
819.2	2922
819.341	2826
819.481	2823
819.622	2922
819.762	3062
819.903	3039
820.043	2956
820.184	2914
820.324	2883
820.465	3024
820.605	2994
820.746	3062
820.886	2925
821.026	3108
821.167	3142
821.307	3241
821.447	3310
821.588	3237
821.728	3237
821.868	3180
822.008	3058
822.149	3188
822.289	3260
822.429	3085
822.569	3093
822.709	3218
822.849	3020
822.99	3104
823.13	3173
823.27	3218
823.41	3116
823.55	3157
823.69	3173
823.83	3169
823.97	3131
824.11	2994
824.25	2994
824.389	3039
824.529	3119
824.669	3055
824.809	3176
824.949	3253
825.089	3222
825.228	3165
825.368	2990
825.508	2952
825.648	2937
825.787	3028
825.927	3032
826.067	2963
826.206	2979
826.346	3058
826.485	3108
826.625	3123
826.765	3291
826.904	3211
827.044	3058
827.183	2918
827.323	2830
827.462	2975
827.601	2944
827.741	2933
827.88	2956
828.02	2861
828.159	3017
828.298	3032
828.437	3119
828.577	3020
828.716	3207
828.855	3058
828.994	2944
829.134	2906
829.273	2929
829.412	2826
829.551	2857
829.69	2918
829.829	2971
829.968	3119
830.107	3009
830.246	3051
830.385	2937
830.524	2868
830.663	2819
830.802	2720
830.941	2636
831.08	2693
831.219	2754
831.357	2777
831.496	2944
831.635	2754
831.774	2674
831.913	2667
832.051	2579
832.19	2552
832.329	2708
832.467	2552
832.606	2473
832.744	2610
832.883	2579
833.022	2625
833.16	2667
833.299	2689
833.437	2724
833.576	2716
833.714	2731
833.852	2743
833.991	2766
834.129	2834
834.267	2807
834.406	2792
834.544	2849
834.682	2902
834.821	2868
834.959	3070
835.097	2883
835.235	3047
835.373	3001
835.511	3036
835.65	2982
835.788	2975
835.926	2826
836.064	2834
836.202	2868
836.34	3093
836.478	3104
836.615	3062
836.753	3112
836.891	3169
837.029	3169
837.167	3123
837.305	3077
837.443	3039
837.58	2933
837.718	3138
837.856	3055
837.993	3055
838.131	3097
838.269	3116
838.406	3093
838.544	3093
838.681	2952
838.819	2906
838.956	2800
839.094	2781
839.231	2899
839.369	3013
839.506	3412
839.643	3214
839.781	3032
839.918	2944
840.055	3036
840.193	3058
840.33	3093
840.467	3081
840.604	3135
840.742	3416
840.879	3028
841.016	3047
841.153	3093
841.29	3336
841.427	3306
841.564	3264
841.701	3279
841.838	3226
841.975	3188
842.112	3207
842.249	3070
842.385	3032
842.522	3283
842.659	3104
842.796	3058
842.933	3093
843.069	3005
843.206	3036
843.343	3199
843.479	3077
843.616	3150
843.752	2868
843.889	2880
844.025	3100
844.162	2876
844.298	3070
844.435	2918
844.571	2910
844.708	3085
844.844	3180
844.98	3218
845.117	3195
845.253	3074
845.389	2982
845.525	3089
845.661	3089
845.798	3005
845.934	3116
846.07	3070
846.206	3211
846.342	3302
846.478	3245
846.614	3108
846.75	3001
846.886	3051
847.022	3268
847.158	3127
847.294	3233
847.429	3226
847.565	3222
847.701	3481
847.837	3055
847.972	3009
848.108	3161
848.244	3119
848.379	2956
848.515	2944
848.65	2937
848.786	2979
848.921	2979
849.057	3074
849.192	3138
849.328	3039
849.463	3100
849.598	3055
849.734	3058
849.869	2982
850.004	2895
850.14	2982
850.275	2937
850.41	2868
850.545	2868
850.68	2914
850.815	2986
850.95	2994
851.085	3203
851.22	3097
851.355	3036
851.49	2929
851.625	2982
851.76	3013
851.895	2929
852.03	2895
852.165	3043
852.299	3131
852.434	3184
852.569	3157
852.703	3192
852.838	3241
852.973	3302
853.107	3340
853.242	3161
853.376	3093
853.511	2971
853.645	3051
853.78	3207
853.914	3112
854.048	3142
854.183	3089
854.317	3116
854.451	3332
854.585	3112
854.72	3077
854.854	3211
854.988	3051
855.122	3032
855.256	2952
855.39	3119
855.524	3245
855.658	3146
855.792	3188
855.926	3195
856.06	3214
856.194	3249
856.327	3123
856.461	3039
856.595	3062
856.729	3108
856.862	3199
856.996	3173
857.13	3195
857.263	3233
857.397	3268
857.53	3108
857.664	3207
857.797	3226
857.931	3279
858.064	3154
858.197	3218
858.331	3135
858.464	3100
858.597	2963
858.731	3119
858.864	3119
858.997	3089
859.13	3127
859.263	3116
859.396	3173
859.529	3081
859.662	3066
859.795	3024
859.928	3180
860.061	3287
860.194	3249
860.327	3154
860.46	3074
860.592	3218
860.725	3253
860.858	3260
860.99	3074
861.123	3051
861.256	3043
861.388	3150
861.521	3720
861.653	2986
861.786	2994
861.918	2967
862.05	3055
862.183	3093
862.315	3108
862.447	3173
862.58	3081
862.712	2971
862.844	2876
862.976	3032
863.108	2986
863.24	3329
863.372	2853
863.504	2967
863.636	2944
863.768	3020
863.9	2960
864.032	2887
864.164	2910
864.296	3005
864.428	3093
864.559	3070
864.691	3097
864.823	3047
864.954	3055
865.086	3032
865.217	2963
865.349	2948
865.48	2952
865.612	2986
865.743	3123
865.875	2982
866.006	2967
866.137	2975
866.269	2960
866.4	2941
866.531	2944
866.662	2880
866.793	2872
866.924	2845
867.055	2994
867.186	2929
867.317	2868
867.448	2842
867.579	2834
867.71	2845
867.841	2819
867.972	2876
868.103	2925
868.233	2914
868.364	2891
868.495	2868
868.625	3055
868.756	3131
868.886	2963
869.017	3024
869.147	3142
869.278	3157
869.408	3070
869.539	3039
869.669	3074
869.799	3039
869.929	3142
870.06	3100
870.19	3306
870.32	3275
870.45	3298
870.58	3374
870.71	3447
870.84	3435
870.97	3294
871.1	3207
871.23	3496
871.36	3466
871.489	3363
871.619	3386
871.749	3435
871.879	3405
872.008	3500
872.138	3348
872.267	3294
872.397	3142
872.526	3112
872.656	2998
872.785	3062
872.915	3222
873.044	3325
873.173	3176
873.303	3226
873.432	3272
873.561	3233
873.69	3112
873.819	3127
873.948	3203
874.077	3108
874.206	3024
874.335	3093
874.464	3203
874.593	3325
874.722	3260
874.851	3378
874.979	3336
875.108	3348
875.237	3211
875.365	3180
875.494	3150
875.623	3222
875.751	3070
875.88	3104
876.008	3222
876.136	3226
876.265	3348
876.393	3500
876.521	3416
876.65	3359
876.778	3367
876.906	3260
877.034	3203
877.162	3199
877.29	3222
877.418	3237
877.546	3233
877.674	3245
877.802	3188
877.93	3264
878.058	3192
878.185	3058
878.313	3211
878.441	3214
878.568	3028
878.696	3146
878.824	3211
878.951	3256
879.079	3485
879.206	3618
879.333	3431
879.461	3325
879.588	3348
879.715	3519
879.842	3603
879.97	3348
880.097	3165
880.224	3116
880.351	3203
880.478	3222
880.605	3188
880.732	3176
880.859	3469
880.986	3283
881.112	3340
881.239	3188
881.366	3043
881.493	3043
881.619	3005
881.746	3070
881.872	3104
881.999	3081
882.125	3119
882.252	3233
882.378	3294
882.505	3374
882.631	3283
882.757	3176
882.883	3222
883.01	3226
883.136	3157
883.262	3097
883.388	3112
883.514	3325
883.64	3370
883.766	3302
883.892	3169
884.018	3245
884.143	3439
884.269	3492
884.395	3161
884.52	3146
884.646	3199
884.772	3112
884.897	3097
885.023	3192
885.148	3348
885.274	3370
885.399	3374
885.524	3245
885.65	3287
885.775	3321
885.9	3256
886.025	3409
886.15	3351
886.275	3325
886.4	3241
886.525	3291
886.65	3287
886.775	3249
886.9	3515
887.025	3618
887.149	3412
887.274	3260
887.399	3173
887.523	3180
887.648	3211
887.773	3180
887.897	3355
888.021	3405
888.146	3260
888.27	3412
888.395	3485
888.519	3424
888.643	3424
888.767	3511
888.891	3298
889.015	3233
889.139	3283
889.263	3207
889.387	3389
889.511	3519
889.635	3462
889.759	3294
889.883	3272
890.006	3374
890.13	3500
890.254	3279
890.377	3344
890.501	3184
890.624	3135
890.748	3298
890.871	3127
890.995	3074
891.118	3043
891.241	3176
891.364	3268
891.488	3329
891.611	3192
891.734	3230
891.857	3310
891.98	3218
892.103	3340
892.226	3275
892.349	3180
892.471	3150
892.594	3237
892.717	3302
892.839	3272
892.962	3298
893.085	3344
893.207	3279
893.33	3169
893.452	3180
893.575	3382
893.697	3226
893.819	3485
893.941	3462
894.064	3428
894.186	3287
894.308	3241
894.43	3431
894.552	3504
894.674	3462
894.796	3241
894.918	3287
895.04	3317
895.161	3454
895.283	3401
895.405	3283
895.526	3325
895.648	3416
895.769	3367
895.891	3443
896.012	3412
896.134	3443
896.255	3389
896.376	3367
896.498	3359
896.619	3420
896.74	3351
896.861	3412
896.982	3724
897.103	3838
897.224	3595
897.345	3488
897.466	3416
897.587	3485
897.708	3610
897.828	3549
897.949	3439
898.07	3325
898.19	3409
898.311	3622
898.431	3443
898.552	3500
898.672	3603
898.792	3542
898.913	3488
899.033	3389
899.153	3325
899.273	3207
899.393	3268
899.513	3321
899.633	3321
899.753	3291
899.873	3298
899.993	3355
900.113	3355
900.232	3382
900.352	3344
900.472	3275
900.591	3211
900.711	3256
900.83	3268
900.95	3412
901.069	3492
901.189	3332
901.308	3165
901.427	3123
901.546	3199
901.665	3291
901.784	3325
901.904	3241
902.023	3161
902.141	3009
902.26	2990
902.379	3116
902.498	3066
902.617	3051
902.735	3245
902.854	3203
902.973	3188
903.091	3074
903.21	3066
903.328	3112
903.446	3100
903.565	3135
903.683	3199
903.801	3146
903.919	3230
904.038	3268
904.156	3150
904.274	3283
904.392	3241
904.51	3306
904.627	3336
904.745	3431
904.863	3466
904.981	3245
905.098	3180
905.216	3249
905.334	3317
905.451	3306
905.569	3275
905.686	3420
905.803	3397
905.921	3283
906.038	3435
906.155	3348
906.272	3272
906.389	3325
906.506	3195
906.623	3222
906.74	3275
906.857	3165
906.974	3253
907.091	3447
907.208	3549
907.324	3500
907.441	3420
907.557	3218
907.674	3253
907.79	3184
907.907	3268
908.023	3344
908.139	3370
908.256	3351
908.372	3389
908.488	3355
908.604	3256
908.72	3249
908.836	3272
908.952	3256
909.068	3329
909.184	3458
909.3	3420
909.415	3488
909.531	3485
909.647	3256
909.762	3298
909.878	3302
909.993	3393
910.108	3325
910.224	3313
910.339	3397
910.454	3348
910.57	3268
910.685	3256
910.8	3629
910.915	3542
911.03	3393
911.145	3283
911.259	3291
911.374	3325
911.489	3260
911.604	3211
911.718	3138
911.833	3146
911.947	3051
912.062	2967
912.176	3157
912.291	3218
912.405	3260
912.519	3420
912.633	3454
912.748	3344
912.862	3268
912.976	3161
913.09	3036
913.204	3119
913.318	3207
913.431	3340
913.545	3344
913.659	3401
913.772	3325
913.886	3195
914	3207
914.113	3355
914.226	3405
914.34	3351
914.453	3237
914.566	3401
914.68	3264
914.793	3313
914.906	3154
915.019	3138
915.132	3066
915.245	3165
915.358	3195
915.47	3199
915.583	3256
915.696	3294
915.809	3428
915.921	3359
916.034	3268
916.146	3264
916.259	3218
916.371	3386
916.483	3351
916.595	3268
916.708	3340
916.82	3306
916.932	3332
917.044	3355
917.156	3332
917.268	3245
917.38	3279
917.491	3291
917.603	3302
917.715	3473
917.826	3462
917.938	3344
918.049	3306
918.161	3450
918.272	3557
918.384	3538
918.495	3507
918.606	3325
918.717	3317
918.828	3367
918.939	3370
919.05	3279
919.161	3355
919.272	3161
919.383	3264
919.494	3469
919.604	3652
919.715	3435
919.826	3420
919.936	3454
920.047	3603
920.157	3519
920.267	3751
920.378	3660
920.488	3523
920.598	3762
920.708	3949
920.818	3804
920.928	3816
921.038	4002
921.148	3979
921.258	3705
921.368	3629
921.477	3580
921.587	3534
921.697	3462
921.806	3618
921.916	3507
922.025	3370
922.134	3359
922.244	3329
922.353	3386
922.462	3291
922.571	3256
922.68	3104
922.789	3066
922.898	3108
923.007	3123
923.116	3230
923.224	3169
923.333	3192
923.442	3108
923.55	3097
923.659	3135
923.767	3207
923.876	3119
923.984	3214
924.092	3104
924.201	3199
924.309	3214
924.417	3222
924.525	3218
924.633	3218
924.741	3972
924.849	3062
924.956	3218
925.064	3112
925.172	3058
925.279	3089
925.387	3176
925.494	3176
925.602	3317
925.709	3367
925.816	3154
925.924	3287
926.031	3382
926.138	3325
926.245	3313
926.352	3241
926.459	3424
926.566	3435
926.673	3272
926.779	3256
926.886	3249
926.993	3142
927.099	3104
927.206	3112
927.312	3112
927.419	3226
927.525	3176
927.631	3226
927.737	3150
927.843	3123
927.95	3020
928.056	3131
928.162	3176
928.267	3264
928.373	3846
928.479	3310
928.585	3043
928.69	3188
928.796	3260
928.901	3146
929.007	3047
929.112	3211
929.218	3203
929.323	3176
929.428	3157
929.533	3287
929.638	3112
929.743	3154
929.848	3253
929.953	3188
930.058	3127
930.163	2986
930.267	3051
930.372	3207
930.477	3039
930.581	3291
930.685	3195
930.79	3074
930.894	3104
930.998	3062
931.103	3313
931.207	2975
931.311	2956
931.415	2918
931.519	2785
931.623	2811
