Data from test_V78500241_1150.txt Node
Date: Fri Mar 25 16:23:10 CST 2022
User: usil
Spectrometer: V785-0024
Trigger mode: 0
Integration Time (sec): 4.000000E-1
Scans to average: 1
Nonlinearity correction enabled: false
Boxcar width: 0
Storing dark spectrum: false
XAxis mode: Wavelengths
Number of Pixels in Spectrum: 1024
>>>>>Begin Spectral Data<<<<<
801.071	2918
801.214	2963
801.356	2887
801.499	2902
801.641	2857
801.783	2971
801.926	3039
802.068	2956
802.211	3001
802.353	3032
802.496	2975
802.638	3028
802.78	3028
802.923	3089
803.065	2982
803.208	2857
803.35	2872
803.492	2937
803.635	2941
803.777	2781
803.919	2876
804.061	3180
804.204	2963
804.346	2922
804.488	2853
804.63	2963
804.773	2902
804.915	2929
805.057	3085
805.199	2933
805.341	2956
805.483	3062
805.626	2982
805.768	2956
805.91	3074
806.052	3093
806.194	3032
806.336	3226
806.478	3070
806.62	2948
806.762	2956
806.904	3039
807.046	3135
807.188	2975
807.33	2941
807.472	2990
807.614	2902
807.756	2971
807.898	2914
808.04	2895
808.182	2982
808.324	2986
808.465	2925
808.607	2868
808.749	2800
808.891	2834
809.033	2963
809.174	2971
809.316	2861
809.458	2880
809.6	2769
809.741	2766
809.883	2758
810.025	2834
810.166	2849
810.308	2853
810.45	2834
810.591	2727
810.733	2750
810.875	2807
811.016	2758
811.158	2743
811.299	2819
811.441	2902
811.582	2906
811.724	2819
811.865	2849
812.007	2868
812.148	2849
812.29	2845
812.431	2876
812.573	2933
812.714	2979
812.855	3047
812.997	3055
813.138	3108
813.279	3013
813.421	2967
813.562	2956
813.703	2887
813.845	2853
813.986	2766
814.127	2678
814.268	2826
814.41	2826
814.551	2800
814.692	2861
814.833	2811
814.974	2883
815.115	2960
815.256	2807
815.397	2800
815.539	2883
815.68	2754
815.821	2811
815.962	2925
816.103	2925
816.244	2872
816.385	2861
816.526	2925
816.666	2883
816.807	2762
816.948	2872
817.089	2925
817.23	2819
817.371	2758
817.512	2800
817.653	2826
817.793	2811
817.934	2922
818.075	2956
818.216	2967
818.356	3024
818.497	2895
818.638	2762
818.778	2766
818.919	2823
819.06	2777
819.2	2876
819.341	2823
819.481	2788
819.622	2929
819.762	3089
819.903	3066
820.043	2944
820.184	2891
820.324	2880
820.465	2990
820.605	3001
820.746	3005
820.886	2929
821.026	3074
821.167	3154
821.307	3268
821.447	3298
821.588	3260
821.728	3245
821.868	3230
822.008	3135
822.149	3176
822.289	3226
822.429	3146
822.569	3123
822.709	3195
822.849	3047
822.99	3085
823.13	3207
823.27	3233
823.41	3184
823.55	3180
823.69	3173
823.83	3222
823.97	3138
824.11	3017
824.25	3066
824.389	3112
824.529	3116
824.669	3089
824.809	3279
824.949	3279
825.089	3241
825.228	3173
825.368	3055
825.508	3001
825.648	3043
825.787	3036
825.927	3047
826.067	2971
826.206	2967
826.346	3085
826.485	3100
826.625	3169
826.765	3298
826.904	3237
827.044	3074
827.183	2982
827.323	2899
827.462	3017
827.601	2944
827.741	3009
827.88	2971
828.02	2864
828.159	3032
828.298	3039
828.437	3157
828.577	3070
828.716	3275
828.855	3108
828.994	2922
829.134	2914
829.273	2944
829.412	2933
829.551	2891
829.69	2944
829.829	3058
829.968	3146
830.107	3074
830.246	3039
830.385	2929
830.524	2910
830.663	2864
830.802	2769
830.941	2727
831.08	2667
831.219	2804
831.357	2785
831.496	2990
831.635	2743
831.774	2670
831.913	2716
832.051	2606
832.19	2587
832.329	2678
832.467	2549
832.606	2526
832.744	2610
832.883	2629
833.022	2655
833.16	2708
833.299	2731
833.437	2716
833.576	2731
833.714	2762
833.852	2762
833.991	2819
834.129	2918
834.267	2895
834.406	2830
834.544	2906
834.682	2918
834.821	2906
834.959	3112
835.097	2952
835.235	3077
835.373	3024
835.511	3066
835.65	3005
835.788	3028
835.926	2857
836.064	2834
836.202	2891
836.34	3097
836.478	3207
836.615	3116
836.753	3188
836.891	3249
837.029	3184
837.167	3157
837.305	3055
837.443	3081
837.58	2982
837.718	3165
837.856	3062
837.993	3039
838.131	3138
838.269	3169
838.406	3097
838.544	3142
838.681	2979
838.819	2937
838.956	2834
839.094	2838
839.231	2899
839.369	3039
839.506	3367
839.643	3214
839.781	3024
839.918	2975
840.055	3074
840.193	3062
840.33	3085
840.467	3165
840.604	3157
840.742	3439
840.879	3036
841.016	3081
841.153	3119
841.29	3374
841.427	3306
841.564	3279
841.701	3340
841.838	3253
841.975	3207
842.112	3226
842.249	3100
842.385	3066
842.522	3313
842.659	3112
842.796	3093
842.933	3138
843.069	3085
843.206	3055
843.343	3222
843.479	3161
843.616	3146
843.752	2933
843.889	2899
844.025	3135
844.162	2887
844.298	3100
844.435	2956
844.571	2922
844.708	3116
844.844	3195
844.98	3275
845.117	3226
845.253	3066
845.389	3013
845.525	3123
845.661	3135
845.798	3081
845.934	3150
846.07	3070
846.206	3207
846.342	3340
846.478	3233
846.614	3097
846.75	3100
846.886	3032
847.022	3256
847.158	3154
847.294	3241
847.429	3268
847.565	3287
847.701	3477
847.837	3043
847.972	3043
848.108	3203
848.244	3195
848.379	3001
848.515	2990
848.65	2925
848.786	2979
848.921	3036
849.057	3138
849.192	3161
849.328	3108
849.463	3161
849.598	3112
849.734	3039
849.869	2990
850.004	2944
850.14	2952
850.275	2914
850.41	2895
850.545	2944
850.68	2986
850.815	2956
850.95	2986
851.085	3192
851.22	3119
851.355	3074
851.49	3005
851.625	3043
851.76	3051
851.895	2933
852.03	2914
852.165	3066
852.299	3100
852.434	3199
852.569	3165
852.703	3214
852.838	3279
852.973	3344
853.107	3348
853.242	3192
853.376	3112
853.511	3013
853.645	3074
853.78	3245
853.914	3146
854.048	3123
854.183	3081
854.317	3146
854.451	3332
854.585	3150
854.72	3104
854.854	3199
854.988	3043
855.122	3093
855.256	2948
855.39	3097
855.524	3230
855.658	3218
855.792	3157
855.926	3211
856.06	3264
856.194	3298
856.327	3184
856.461	3074
856.595	3112
856.729	3127
856.862	3264
856.996	3195
857.13	3218
857.263	3218
857.397	3294
857.53	3119
857.664	3218
857.797	3264
857.931	3245
858.064	3195
858.197	3211
858.331	3131
858.464	3100
858.597	2998
858.731	3135
858.864	3154
858.997	3116
859.13	3173
859.263	3180
859.396	3226
859.529	3123
859.662	3116
859.795	3055
859.928	3154
860.061	3298
860.194	3283
860.327	3154
860.46	3112
860.592	3241
860.725	3260
860.858	3249
860.99	3100
861.123	3039
861.256	3097
861.388	3157
861.521	3701
861.653	3039
861.786	3009
861.918	3009
862.05	3112
862.183	3100
862.315	3165
862.447	3184
862.58	3085
862.712	2967
862.844	2880
862.976	3005
863.108	3024
863.24	3359
863.372	2933
863.504	2971
863.636	2960
863.768	3047
863.9	2986
864.032	2944
864.164	2952
864.296	3036
864.428	3108
864.559	3097
864.691	3119
864.823	3070
864.954	3055
865.086	3047
865.217	3013
865.349	2975
865.48	3009
865.612	2998
865.743	3226
865.875	2990
866.006	2956
866.137	2975
866.269	3001
866.4	2967
866.531	2956
866.662	2922
866.793	2887
866.924	2925
867.055	3005
867.186	2960
867.317	2906
867.448	2895
867.579	2819
867.71	2872
867.841	2834
867.972	2922
868.103	2906
868.233	2937
868.364	2842
868.495	2948
868.625	3089
868.756	3180
868.886	2979
869.017	3043
869.147	3211
869.278	3169
869.408	3070
869.539	3051
869.669	3127
869.799	3055
869.929	3138
870.06	3131
870.19	3325
870.32	3317
870.45	3329
870.58	3397
870.71	3466
870.84	3462
870.97	3279
871.1	3298
871.23	3526
871.36	3485
871.489	3355
871.619	3416
871.749	3454
871.879	3473
872.008	3511
872.138	3409
872.267	3260
872.397	3146
872.526	3077
872.656	3028
872.785	3119
872.915	3249
873.044	3272
873.173	3211
873.303	3253
873.432	3241
873.561	3214
873.69	3161
873.819	3146
873.948	3199
874.077	3135
874.206	3047
874.335	3127
874.464	3256
874.593	3363
874.722	3256
874.851	3397
874.979	3325
875.108	3317
875.237	3226
875.365	3165
875.494	3192
875.623	3226
875.751	3100
875.88	3112
876.008	3176
876.136	3245
876.265	3443
876.393	3523
876.521	3439
876.65	3439
876.778	3329
876.906	3272
877.034	3218
877.162	3260
877.29	3188
877.418	3298
877.546	3256
877.674	3249
877.802	3169
877.93	3222
878.058	3165
878.185	3127
878.313	3241
878.441	3237
878.568	3070
878.696	3142
878.824	3260
878.951	3329
879.079	3447
879.206	3629
879.333	3382
879.461	3363
879.588	3378
879.715	3507
879.842	3591
879.97	3370
880.097	3176
880.224	3138
880.351	3241
880.478	3230
880.605	3241
880.732	3176
880.859	3500
880.986	3332
881.112	3321
881.239	3199
881.366	3112
881.493	3032
881.619	3032
881.746	3108
881.872	3104
881.999	3089
882.125	3184
882.252	3256
882.378	3283
882.505	3462
882.631	3287
882.757	3157
882.883	3241
883.01	3241
883.136	3207
883.262	3085
883.388	3127
883.514	3317
883.64	3363
883.766	3302
883.892	3180
884.018	3272
884.143	3420
884.269	3534
884.395	3199
884.52	3169
884.646	3237
884.772	3135
884.897	3112
885.023	3207
885.148	3336
885.274	3405
885.399	3351
885.524	3302
885.65	3275
885.775	3344
885.9	3298
886.025	3439
886.15	3389
886.275	3287
886.4	3222
886.525	3298
886.65	3287
886.775	3310
886.9	3519
887.025	3652
887.149	3397
887.274	3233
887.399	3192
887.523	3180
887.648	3218
887.773	3211
887.897	3351
888.021	3374
888.146	3329
888.27	3409
888.395	3523
888.519	3416
888.643	3454
888.767	3466
888.891	3306
889.015	3279
889.139	3298
889.263	3264
889.387	3412
889.511	3507
889.635	3477
889.759	3275
889.883	3287
890.006	3355
890.13	3496
890.254	3287
890.377	3317
890.501	3226
890.624	3180
890.748	3332
890.871	3199
890.995	3108
891.118	3066
891.241	3226
891.364	3245
891.488	3310
891.611	3146
891.734	3249
891.857	3294
891.98	3272
892.103	3355
892.226	3260
892.349	3233
892.471	3119
892.594	3241
892.717	3283
892.839	3268
892.962	3321
893.085	3374
893.207	3287
893.33	3165
893.452	3188
893.575	3325
893.697	3275
893.819	3496
893.941	3530
894.064	3401
894.186	3253
894.308	3283
894.43	3389
894.552	3519
894.674	3477
894.796	3245
894.918	3310
895.04	3321
895.161	3439
895.283	3370
895.405	3329
895.526	3382
895.648	3462
895.769	3428
895.891	3458
896.012	3431
896.134	3492
896.255	3416
896.376	3382
896.498	3393
896.619	3405
896.74	3389
896.861	3409
896.982	3724
897.103	3831
897.224	3610
897.345	3492
897.466	3450
897.587	3485
897.708	3610
897.828	3572
897.949	3447
898.07	3351
898.19	3450
898.311	3587
898.431	3439
898.552	3504
898.672	3644
898.792	3549
898.913	3526
899.033	3378
899.153	3283
899.273	3192
899.393	3272
899.513	3313
899.633	3348
899.753	3256
899.873	3348
899.993	3428
900.113	3321
900.232	3378
900.352	3359
900.472	3294
900.591	3188
900.711	3332
900.83	3268
900.95	3424
901.069	3500
901.189	3325
901.308	3222
901.427	3077
901.546	3214
901.665	3279
901.784	3355
901.904	3192
902.023	3138
902.141	3032
902.26	3028
902.379	3138
902.498	3093
902.617	3036
902.735	3237
902.854	3218
902.973	3230
903.091	3070
903.21	3081
903.328	3169
903.446	3127
903.565	3112
903.683	3176
903.801	3081
903.919	3272
904.038	3279
904.156	3161
904.274	3249
904.392	3256
904.51	3272
904.627	3329
904.745	3450
904.863	3488
904.981	3253
905.098	3188
905.216	3214
905.334	3264
905.451	3233
905.569	3313
905.686	3424
905.803	3447
905.921	3279
906.038	3424
906.155	3363
906.272	3287
906.389	3378
906.506	3245
906.623	3268
906.74	3260
906.857	3176
906.974	3249
907.091	3458
907.208	3557
907.324	3431
907.441	3412
907.557	3222
907.674	3192
907.79	3199
907.907	3245
908.023	3370
908.139	3340
908.256	3325
908.372	3374
908.488	3355
908.604	3287
908.72	3233
908.836	3302
908.952	3275
909.068	3336
909.184	3477
909.3	3401
909.415	3462
909.531	3443
909.647	3294
909.762	3313
909.878	3283
909.993	3363
910.108	3336
910.224	3313
910.339	3397
910.454	3332
910.57	3287
910.685	3237
910.8	3584
910.915	3542
911.03	3420
911.145	3241
911.259	3253
911.374	3306
911.489	3245
911.604	3203
911.718	3093
911.833	3138
911.947	3055
912.062	2971
912.176	3150
912.291	3173
912.405	3195
912.519	3382
912.633	3443
912.748	3344
912.862	3260
912.976	3157
913.09	3036
913.204	3127
913.318	3188
913.431	3370
913.545	3306
913.659	3389
913.772	3348
913.886	3214
914	3192
914.113	3348
914.226	3424
914.34	3344
914.453	3222
914.566	3462
914.68	3302
914.793	3321
914.906	3135
915.019	3119
915.132	3066
915.245	3157
915.358	3199
915.47	3264
915.583	3237
915.696	3291
915.809	3420
915.921	3386
916.034	3275
916.146	3279
916.259	3222
916.371	3389
916.483	3340
916.595	3237
916.708	3355
916.82	3306
916.932	3340
917.044	3348
917.156	3329
917.268	3253
917.38	3264
917.491	3287
917.603	3355
917.715	3420
917.826	3447
917.938	3370
918.049	3241
918.161	3431
918.272	3568
918.384	3568
918.495	3500
918.606	3321
918.717	3283
918.828	3332
918.939	3435
919.05	3302
919.161	3348
919.272	3180
919.383	3264
919.494	3485
919.604	3671
919.715	3511
919.826	3363
919.936	3447
920.047	3557
920.157	3500
920.267	3755
920.378	3633
920.488	3587
920.598	3819
920.708	3918
920.818	3812
920.928	3808
921.038	4013
921.148	4006
921.258	3732
921.368	3633
921.477	3557
921.587	3564
921.697	3507
921.806	3625
921.916	3530
922.025	3355
922.134	3355
922.244	3340
922.353	3397
922.462	3275
922.571	3253
922.68	3089
922.789	3062
922.898	3146
923.007	3108
923.116	3226
923.224	3173
923.333	3173
923.442	3100
923.55	3077
923.659	3165
923.767	3245
923.876	3093
923.984	3291
924.092	3100
924.201	3176
924.309	3249
924.417	3298
924.525	3195
924.633	3245
924.741	4036
924.849	3043
924.956	3260
925.064	3093
925.172	3043
925.279	3104
925.387	3161
925.494	3203
925.602	3386
925.709	3329
925.816	3192
925.924	3294
926.031	3340
926.138	3340
926.245	3393
926.352	3218
926.459	3431
926.566	3462
926.673	3298
926.779	3237
926.886	3260
926.993	3131
927.099	3138
927.206	3116
927.312	3104
927.419	3226
927.525	3230
927.631	3237
927.737	3146
927.843	3119
927.95	3032
928.056	3127
928.162	3161
928.267	3268
928.373	3869
928.479	3321
928.585	3066
928.69	3218
928.796	3260
928.901	3131
929.007	3062
929.112	3199
929.218	3157
929.323	3154
929.428	3146
929.533	3264
929.638	3112
929.743	3142
929.848	3253
929.953	3188
930.058	3131
930.163	3013
930.267	3039
930.372	3199
930.477	3009
930.581	3298
930.685	3169
930.79	3055
930.894	3138
930.998	3131
931.103	3313
931.207	2963
931.311	2944
931.415	2933
931.519	2766
931.623	2811
