Data from test_V78500241_815.txt Node
Date: Fri Mar 25 16:20:50 CST 2022
User: usil
Spectrometer: V785-0024
Trigger mode: 0
Integration Time (sec): 4.000000E-1
Scans to average: 1
Nonlinearity correction enabled: false
Boxcar width: 0
Storing dark spectrum: false
XAxis mode: Wavelengths
Number of Pixels in Spectrum: 1024
>>>>>Begin Spectral Data<<<<<
801.071	2914
801.214	2990
801.356	2925
801.499	2906
801.641	2899
801.783	2895
801.926	3066
802.068	2982
802.211	2998
802.353	3024
802.496	2998
802.638	3036
802.78	3081
802.923	3100
803.065	2967
803.208	2880
803.35	2910
803.492	2933
803.635	2918
803.777	2758
803.919	2902
804.061	3203
804.204	2956
804.346	2910
804.488	2838
804.63	2971
804.773	2876
804.915	2910
805.057	3081
805.199	2967
805.341	3036
805.483	3047
805.626	3013
805.768	2944
805.91	3058
806.052	3116
806.194	3017
806.336	3241
806.478	3051
806.62	2960
806.762	3009
806.904	3089
807.046	3180
807.188	2990
807.33	2929
807.472	3005
807.614	2906
807.756	3005
807.898	2925
808.04	2937
808.182	2994
808.324	2982
808.465	2883
808.607	2887
808.749	2804
808.891	2838
809.033	3017
809.174	2979
809.316	2899
809.458	2918
809.6	2811
809.741	2766
809.883	2773
810.025	2883
810.166	2880
810.308	2861
810.45	2826
810.591	2804
810.733	2781
810.875	2872
811.016	2758
811.158	2796
811.299	2804
811.441	2944
811.582	2925
811.724	2849
811.865	2815
812.007	2899
812.148	2906
812.29	2845
812.431	2868
812.573	2937
812.714	2963
812.855	3081
812.997	3051
813.138	3123
813.279	2982
813.421	2986
813.562	2933
813.703	2880
813.845	2883
813.986	2781
814.127	2731
814.268	2807
814.41	2834
814.551	2804
814.692	2887
814.833	2830
814.974	2880
815.115	2960
815.256	2857
815.397	2819
815.539	2849
815.68	2769
815.821	2792
815.962	2891
816.103	2937
816.244	2842
816.385	2876
816.526	2933
816.666	2880
816.807	2746
816.948	2861
817.089	2906
817.23	2868
817.371	2788
817.512	2792
817.653	2811
817.793	2796
817.934	2864
818.075	2948
818.216	2982
818.356	3032
818.497	2880
818.638	2796
818.778	2857
818.919	2785
819.06	2758
819.2	2876
819.341	2838
819.481	2811
819.622	2941
819.762	3097
819.903	3036
820.043	2918
820.184	2918
820.324	2910
820.465	3062
820.605	3043
820.746	3066
820.886	2941
821.026	3127
821.167	3176
821.307	3283
821.447	3302
821.588	3268
821.728	3218
821.868	3211
822.008	3085
822.149	3233
822.289	3264
822.429	3081
822.569	3085
822.709	3192
822.849	3077
822.99	3100
823.13	3203
823.27	3230
823.41	3135
823.55	3184
823.69	3192
823.83	3222
823.97	3119
824.11	3032
824.25	3043
824.389	3074
824.529	3176
824.669	3119
824.809	3226
824.949	3294
825.089	3233
825.228	3199
825.368	3032
825.508	2971
825.648	2990
825.787	3051
825.927	3062
826.067	3020
826.206	2967
826.346	3093
826.485	3097
826.625	3154
826.765	3344
826.904	3241
827.044	3024
827.183	2952
827.323	2891
827.462	3047
827.601	2956
827.741	2975
827.88	2990
828.02	2864
828.159	3009
828.298	3074
828.437	3154
828.577	3066
828.716	3294
828.855	3112
828.994	2963
829.134	2933
829.273	2933
829.412	2891
829.551	2918
829.69	2967
829.829	3043
829.968	3142
830.107	3100
830.246	3051
830.385	3005
830.524	2937
830.663	2899
830.802	2796
830.941	2670
831.08	2663
831.219	2788
831.357	2800
831.496	2952
831.635	2792
831.774	2697
831.913	2674
832.051	2571
832.19	2594
832.329	2693
832.467	2575
832.606	2541
832.744	2610
832.883	2621
833.022	2678
833.16	2663
833.299	2750
833.437	2682
833.576	2716
833.714	2754
833.852	2758
833.991	2811
834.129	2880
834.267	2868
834.406	2857
834.544	2922
834.682	2929
834.821	2887
834.959	3074
835.097	2956
835.235	3070
835.373	3039
835.511	3062
835.65	2998
835.788	3001
835.926	2876
836.064	2826
836.202	2918
836.34	3146
836.478	3169
836.615	3077
836.753	3199
836.891	3233
837.029	3195
837.167	3169
837.305	3100
837.443	3081
837.58	3005
837.718	3165
837.856	3119
837.993	3047
838.131	3150
838.269	3142
838.406	3123
838.544	3135
838.681	2982
838.819	2941
838.956	2834
839.094	2883
839.231	2956
839.369	3070
839.506	3389
839.643	3279
839.781	3058
839.918	3009
840.055	3077
840.193	3100
840.33	3108
840.467	3123
840.604	3165
840.742	3435
840.879	3097
841.016	3074
841.153	3161
841.29	3378
841.427	3325
841.564	3317
841.701	3340
841.838	3268
841.975	3192
842.112	3211
842.249	3108
842.385	3066
842.522	3275
842.659	3131
842.796	3157
842.933	3123
843.069	3070
843.206	3074
843.343	3237
843.479	3108
843.616	3138
843.752	2948
843.889	2933
844.025	3089
844.162	2872
844.298	3123
844.435	2994
844.571	2925
844.708	3116
844.844	3230
844.98	3245
845.117	3188
845.253	3093
845.389	3039
845.525	3135
845.661	3142
845.798	3013
845.934	3146
846.07	3055
846.206	3294
846.342	3332
846.478	3230
846.614	3127
846.75	3077
846.886	3062
847.022	3241
847.158	3142
847.294	3230
847.429	3272
847.565	3245
847.701	3500
847.837	3062
847.972	3024
848.108	3161
848.244	3157
848.379	3066
848.515	2986
848.65	2956
848.786	2971
848.921	3009
849.057	3135
849.192	3180
849.328	3081
849.463	3135
849.598	3100
849.734	3093
849.869	3020
850.004	2941
850.14	2975
850.275	2956
850.41	2906
850.545	2883
850.68	2941
850.815	2971
850.95	3001
851.085	3253
851.22	3123
851.355	3058
851.49	3028
851.625	3009
851.76	3047
851.895	2963
852.03	2948
852.165	3058
852.299	3097
852.434	3195
852.569	3161
852.703	3203
852.838	3283
852.973	3348
853.107	3378
853.242	3142
853.376	3131
853.511	2982
853.645	3074
853.78	3287
853.914	3157
854.048	3112
854.183	3135
854.317	3157
854.451	3329
854.585	3131
854.72	3135
854.854	3226
854.988	3085
855.122	3108
855.256	2979
855.39	3127
855.524	3287
855.658	3203
855.792	3218
855.926	3222
856.06	3230
856.194	3279
856.327	3173
856.461	3070
856.595	3097
856.729	3104
856.862	3237
856.996	3192
857.13	3222
857.263	3249
857.397	3279
857.53	3135
857.664	3245
857.797	3226
857.931	3302
858.064	3199
858.197	3222
858.331	3176
858.464	3104
858.597	3062
858.731	3150
858.864	3165
858.997	3100
859.13	3214
859.263	3199
859.396	3207
859.529	3135
859.662	3100
859.795	3077
859.928	3176
860.061	3325
860.194	3310
860.327	3154
860.46	3108
860.592	3230
860.725	3291
860.858	3256
860.99	3119
861.123	3108
861.256	3055
861.388	3176
861.521	3903
861.653	3043
861.786	3005
861.918	3024
862.05	3089
862.183	3131
862.315	3180
862.447	3195
862.58	3127
862.712	2979
862.844	2914
862.976	3074
863.108	3047
863.24	3317
863.372	2918
863.504	2979
863.636	2967
863.768	3058
863.9	3009
864.032	2922
864.164	3001
864.296	3036
864.428	3104
864.559	3123
864.691	3135
864.823	3104
864.954	3028
865.086	3081
865.217	3017
865.349	2971
865.48	3005
865.612	3055
865.743	3188
865.875	3005
866.006	2956
866.137	3005
866.269	2975
866.4	2944
866.531	2971
866.662	2902
866.793	2922
866.924	2914
867.055	2975
867.186	2975
867.317	2925
867.448	2857
867.579	2868
867.71	2853
867.841	2849
867.972	2910
868.103	2910
868.233	2922
868.364	2910
868.495	2922
868.625	3089
868.756	3176
868.886	2979
869.017	3066
869.147	3176
869.278	3218
869.408	3051
869.539	3028
869.669	3116
869.799	3077
869.929	3157
870.06	3104
870.19	3344
870.32	3332
870.45	3317
870.58	3355
870.71	3496
870.84	3485
870.97	3310
871.1	3272
871.23	3496
871.36	3485
871.489	3431
871.619	3431
871.749	3431
871.879	3458
872.008	3481
872.138	3359
872.267	3313
872.397	3230
872.526	3108
872.656	3039
872.785	3077
872.915	3241
873.044	3340
873.173	3237
873.303	3272
873.432	3306
873.561	3264
873.69	3214
873.819	3161
873.948	3199
874.077	3127
874.206	3051
874.335	3070
874.464	3222
874.593	3363
874.722	3260
874.851	3424
874.979	3370
875.108	3355
875.237	3211
875.365	3184
875.494	3176
875.623	3268
875.751	3066
875.88	3131
876.008	3211
876.136	3260
876.265	3374
876.393	3561
876.521	3435
876.65	3401
876.778	3378
876.906	3283
877.034	3256
877.162	3237
877.29	3203
877.418	3283
877.546	3268
877.674	3279
877.802	3214
877.93	3237
878.058	3180
878.185	3112
878.313	3207
878.441	3230
878.568	3104
878.696	3142
878.824	3260
878.951	3317
879.079	3488
879.206	3610
879.333	3469
879.461	3336
879.588	3378
879.715	3515
879.842	3633
879.97	3378
880.097	3169
880.224	3180
880.351	3233
880.478	3230
880.605	3207
880.732	3192
880.859	3507
880.986	3348
881.112	3363
881.239	3207
881.366	3108
881.493	3043
881.619	3028
881.746	3127
881.872	3150
881.999	3116
882.125	3184
882.252	3279
882.378	3332
882.505	3469
882.631	3287
882.757	3207
882.883	3218
883.01	3222
883.136	3154
883.262	3131
883.388	3116
883.514	3386
883.64	3409
883.766	3363
883.892	3214
884.018	3283
884.143	3420
884.269	3542
884.395	3199
884.52	3195
884.646	3192
884.772	3131
884.897	3116
885.023	3207
885.148	3344
885.274	3431
885.399	3389
885.524	3325
885.65	3294
885.775	3306
885.9	3283
886.025	3450
886.15	3378
886.275	3294
886.4	3233
886.525	3329
886.65	3287
886.775	3275
886.9	3504
887.025	3641
887.149	3424
887.274	3272
887.399	3214
887.523	3176
887.648	3207
887.773	3207
887.897	3386
888.021	3382
888.146	3291
888.27	3462
888.395	3568
888.519	3477
888.643	3447
888.767	3481
888.891	3329
889.015	3222
889.139	3313
889.263	3222
889.387	3439
889.511	3523
889.635	3469
889.759	3291
889.883	3332
890.006	3386
890.13	3515
890.254	3245
890.377	3310
890.501	3211
890.624	3203
890.748	3313
890.871	3165
890.995	3097
891.118	3055
891.241	3188
891.364	3211
891.488	3317
891.611	3184
891.734	3226
891.857	3302
891.98	3268
892.103	3348
892.226	3313
892.349	3222
892.471	3138
892.594	3241
892.717	3313
892.839	3279
892.962	3283
893.085	3367
893.207	3336
893.33	3176
893.452	3245
893.575	3329
893.697	3291
893.819	3481
893.941	3504
894.064	3496
894.186	3272
894.308	3275
894.43	3481
894.552	3564
894.674	3473
894.796	3283
894.918	3291
895.04	3336
895.161	3481
895.283	3397
895.405	3363
895.526	3374
895.648	3469
895.769	3435
895.891	3481
896.012	3477
896.134	3511
896.255	3420
896.376	3359
896.498	3340
896.619	3397
896.74	3355
896.861	3431
896.982	3686
897.103	3884
897.224	3576
897.345	3504
897.466	3439
897.587	3488
897.708	3625
897.828	3564
897.949	3450
898.07	3355
898.19	3420
898.311	3610
898.431	3447
898.552	3526
898.672	3576
898.792	3599
898.913	3557
899.033	3435
899.153	3298
899.273	3218
899.393	3306
899.513	3321
899.633	3344
899.753	3355
899.873	3313
899.993	3386
900.113	3310
900.232	3367
900.352	3359
900.472	3321
900.591	3226
900.711	3279
900.83	3256
900.95	3428
901.069	3481
901.189	3359
901.308	3169
901.427	3116
901.546	3173
901.665	3302
901.784	3351
901.904	3222
902.023	3199
902.141	3032
902.26	3013
902.379	3127
902.498	3077
902.617	3047
902.735	3199
902.854	3218
902.973	3226
903.091	3074
903.21	3058
903.328	3157
903.446	3093
903.565	3135
903.683	3230
903.801	3150
903.919	3264
904.038	3325
904.156	3184
904.274	3272
904.392	3298
904.51	3291
904.627	3340
904.745	3416
904.863	3496
904.981	3249
905.098	3142
905.216	3230
905.334	3317
905.451	3291
905.569	3283
905.686	3428
905.803	3428
905.921	3241
906.038	3431
906.155	3382
906.272	3256
906.389	3336
906.506	3222
906.623	3256
906.74	3291
906.857	3207
906.974	3283
907.091	3481
907.208	3587
907.324	3473
907.441	3405
907.557	3253
907.674	3218
907.79	3192
907.907	3275
908.023	3351
908.139	3370
908.256	3336
908.372	3344
908.488	3374
908.604	3275
908.72	3249
908.836	3302
908.952	3275
909.068	3317
909.184	3473
909.3	3367
909.415	3526
909.531	3526
909.647	3306
909.762	3313
909.878	3294
909.993	3386
910.108	3321
910.224	3344
910.339	3435
910.454	3363
910.57	3264
910.685	3256
910.8	3618
910.915	3523
911.03	3443
911.145	3287
911.259	3249
911.374	3332
911.489	3256
911.604	3245
911.718	3142
911.833	3180
911.947	3058
912.062	3005
912.176	3165
912.291	3180
912.405	3222
912.519	3439
912.633	3462
912.748	3340
912.862	3340
912.976	3192
913.09	3081
913.204	3165
913.318	3226
913.431	3386
913.545	3344
913.659	3389
913.772	3313
913.886	3256
914	3230
914.113	3359
914.226	3412
914.34	3378
914.453	3199
914.566	3412
914.68	3321
914.793	3302
914.906	3154
915.019	3112
915.132	3081
915.245	3218
915.358	3184
915.47	3256
915.583	3249
915.696	3321
915.809	3378
915.921	3443
916.034	3294
916.146	3249
916.259	3226
916.371	3382
916.483	3409
916.595	3241
916.708	3374
916.82	3351
916.932	3389
917.044	3340
917.156	3374
917.268	3253
917.38	3306
917.491	3313
917.603	3382
917.715	3431
917.826	3454
917.938	3386
918.049	3321
918.161	3439
918.272	3542
918.384	3545
918.495	3443
918.606	3325
918.717	3283
918.828	3370
918.939	3405
919.05	3317
919.161	3325
919.272	3161
919.383	3310
919.494	3530
919.604	3690
919.715	3481
919.826	3424
919.936	3473
920.047	3584
920.157	3568
920.267	3747
920.378	3584
920.488	3595
920.598	3778
920.708	3972
920.818	3812
920.928	3827
921.038	4017
921.148	3994
921.258	3694
921.368	3637
921.477	3599
921.587	3553
921.697	3428
921.806	3637
921.916	3542
922.025	3340
922.134	3389
922.244	3336
922.353	3393
922.462	3291
922.571	3264
922.68	3116
922.789	3039
922.898	3169
923.007	3116
923.116	3192
923.224	3188
923.333	3184
923.442	3100
923.55	3116
923.659	3146
923.767	3195
923.876	3112
923.984	3222
924.092	3104
924.201	3218
924.309	3241
924.417	3306
924.525	3199
924.633	3260
924.741	4181
924.849	3062
924.956	3302
925.064	3116
925.172	3039
925.279	3112
925.387	3195
925.494	3222
925.602	3363
925.709	3310
925.816	3192
925.924	3321
926.031	3370
926.138	3310
926.245	3370
926.352	3230
926.459	3439
926.566	3485
926.673	3336
926.779	3199
926.886	3230
926.993	3180
927.099	3138
927.206	3104
927.312	3142
927.419	3233
927.525	3218
927.631	3279
927.737	3150
927.843	3108
927.95	3039
928.056	3157
928.162	3184
928.267	3203
928.373	3751
928.479	3321
928.585	3062
928.69	3230
928.796	3264
928.901	3188
929.007	3020
929.112	3199
929.218	3173
929.323	3093
929.428	3116
929.533	3310
929.638	3077
929.743	3165
929.848	3237
929.953	3195
930.058	3165
930.163	3032
930.267	3039
930.372	3207
930.477	3028
930.581	3294
930.685	3123
930.79	3058
930.894	3123
930.998	3157
931.103	3279
931.207	2960
931.311	2929
931.415	2918
931.519	2766
931.623	2766
