Data from test_V78500241_2016.txt Node
Date: Fri Mar 25 16:29:10 CST 2022
User: usil
Spectrometer: V785-0024
Trigger mode: 0
Integration Time (sec): 4.000000E-1
Scans to average: 1
Nonlinearity correction enabled: false
Boxcar width: 0
Storing dark spectrum: false
XAxis mode: Wavelengths
Number of Pixels in Spectrum: 1024
>>>>>Begin Spectral Data<<<<<
801.071	2929
801.214	2967
801.356	2887
801.499	2929
801.641	2902
801.783	2944
801.926	3081
802.068	2971
802.211	3032
802.353	3032
802.496	2982
802.638	3009
802.78	3043
802.923	3093
803.065	3013
803.208	2883
803.35	2937
803.492	2986
803.635	2944
803.777	2769
803.919	2876
804.061	3222
804.204	2963
804.346	2891
804.488	2838
804.63	2994
804.773	2891
804.915	2933
805.057	3123
805.199	2929
805.341	2963
805.483	3039
805.626	3058
805.768	2979
805.91	3066
806.052	3089
806.194	3047
806.336	3237
806.478	3043
806.62	2975
806.762	3001
806.904	3043
807.046	3146
807.188	2960
807.33	2929
807.472	2986
807.614	2922
807.756	2944
807.898	2963
808.04	2883
808.182	2982
808.324	2948
808.465	2902
808.607	2906
808.749	2811
808.891	2834
809.033	2986
809.174	2979
809.316	2887
809.458	2895
809.6	2762
809.741	2758
809.883	2739
810.025	2849
810.166	2857
810.308	2838
810.45	2861
810.591	2785
810.733	2766
810.875	2815
811.016	2788
811.158	2788
811.299	2758
811.441	2922
811.582	2895
811.724	2849
811.865	2819
812.007	2914
812.148	2842
812.29	2864
812.431	2864
812.573	2918
812.714	2933
812.855	3070
812.997	3077
813.138	3089
813.279	3013
813.421	2971
813.562	2929
813.703	2876
813.845	2864
813.986	2727
814.127	2701
814.268	2800
814.41	2796
814.551	2804
814.692	2880
814.833	2800
814.974	2922
815.115	2929
815.256	2826
815.397	2868
815.539	2857
815.68	2788
815.821	2769
815.962	2941
816.103	2937
816.244	2929
816.385	2880
816.526	2990
816.666	2914
816.807	2785
816.948	2849
817.089	2880
817.23	2868
817.371	2796
817.512	2773
817.653	2880
817.793	2792
817.934	2872
818.075	2982
818.216	2963
818.356	2990
818.497	2887
818.638	2773
818.778	2845
818.919	2807
819.06	2785
819.2	2872
819.341	2785
819.481	2800
819.622	2925
819.762	3085
819.903	3024
820.043	2922
820.184	2868
820.324	2899
820.465	3024
820.605	3013
820.746	3028
820.886	2895
821.026	3077
821.167	3142
821.307	3287
821.447	3287
821.588	3256
821.728	3218
821.868	3165
822.008	3081
822.149	3222
822.289	3222
822.429	3097
822.569	3116
822.709	3222
822.849	3043
822.99	3097
823.13	3184
823.27	3188
823.41	3104
823.55	3150
823.69	3154
823.83	3222
823.97	3100
824.11	2986
824.25	3001
824.389	3100
824.529	3154
824.669	3097
824.809	3226
824.949	3283
825.089	3272
825.228	3138
825.368	3043
825.508	3001
825.648	2994
825.787	3066
825.927	3039
826.067	3020
826.206	2990
826.346	3036
826.485	3104
826.625	3138
826.765	3279
826.904	3241
827.044	3039
827.183	2948
827.323	2883
827.462	3009
827.601	2929
827.741	3013
827.88	3009
828.02	2918
828.159	3024
828.298	3116
828.437	3157
828.577	3085
828.716	3313
828.855	3150
828.994	3001
829.134	2899
829.273	2990
829.412	2906
829.551	2922
829.69	2922
829.829	3039
829.968	3123
830.107	3081
830.246	3081
830.385	2975
830.524	2933
830.663	2849
830.802	2773
830.941	2689
831.08	2708
831.219	2804
831.357	2826
831.496	2990
831.635	2743
831.774	2705
831.913	2716
832.051	2552
832.19	2606
832.329	2705
832.467	2579
832.606	2545
832.744	2629
832.883	2617
833.022	2621
833.16	2708
833.299	2712
833.437	2739
833.576	2720
833.714	2750
833.852	2777
833.991	2826
834.129	2883
834.267	2849
834.406	2834
834.544	2906
834.682	2918
834.821	2887
834.959	3131
835.097	2941
835.235	3097
835.373	3051
835.511	3013
835.65	2994
835.788	2990
835.926	2868
836.064	2826
836.202	2853
836.34	3104
836.478	3176
836.615	3058
836.753	3161
836.891	3249
837.029	3214
837.167	3142
837.305	3097
837.443	3104
837.58	3001
837.718	3138
837.856	3112
837.993	3081
838.131	3150
838.269	3127
838.406	3157
838.544	3119
838.681	2990
838.819	2963
838.956	2864
839.094	2891
839.231	2948
839.369	3047
839.506	3409
839.643	3275
839.781	3036
839.918	2994
840.055	3043
840.193	3070
840.33	3100
840.467	3123
840.604	3173
840.742	3393
840.879	3074
841.016	3051
841.153	3116
841.29	3348
841.427	3306
841.564	3298
841.701	3332
841.838	3218
841.975	3214
842.112	3275
842.249	3108
842.385	3036
842.522	3264
842.659	3127
842.796	3100
842.933	3123
843.069	3089
843.206	3051
843.343	3214
843.479	3097
843.616	3173
843.752	2910
843.889	2899
844.025	3081
844.162	2906
844.298	3127
844.435	2967
844.571	2933
844.708	3146
844.844	3207
844.98	3249
845.117	3214
845.253	3104
845.389	3001
845.525	3112
845.661	3146
845.798	3077
845.934	3123
846.07	3070
846.206	3253
846.342	3340
846.478	3249
846.614	3135
846.75	3081
846.886	3070
847.022	3241
847.158	3089
847.294	3218
847.429	3279
847.565	3253
847.701	3504
847.837	3039
847.972	3017
848.108	3123
848.244	3165
848.379	2982
848.515	2944
848.65	2941
848.786	2986
848.921	3043
849.057	3150
849.192	3180
849.328	3100
849.463	3127
849.598	3077
849.734	3055
849.869	3005
850.004	2960
850.14	2994
850.275	2944
850.41	2849
850.545	2902
850.68	2971
850.815	2979
850.95	3005
851.085	3218
851.22	3112
851.355	3062
851.49	3005
851.625	3047
851.76	3051
851.895	2986
852.03	2960
852.165	3058
852.299	3135
852.434	3199
852.569	3138
852.703	3207
852.838	3253
852.973	3370
853.107	3332
853.242	3135
853.376	3104
853.511	2986
853.645	3074
853.78	3222
853.914	3146
854.048	3112
854.183	3157
854.317	3173
854.451	3306
854.585	3138
854.72	3135
854.854	3226
854.988	3077
855.122	3142
855.256	2967
855.39	3150
855.524	3256
855.658	3211
855.792	3173
855.926	3226
856.06	3237
856.194	3264
856.327	3146
856.461	3097
856.595	3119
856.729	3123
856.862	3233
856.996	3165
857.13	3233
857.263	3241
857.397	3272
857.53	3176
857.664	3165
857.797	3260
857.931	3287
858.064	3222
858.197	3241
858.331	3192
858.464	3085
858.597	3070
858.731	3100
858.864	3112
858.997	3119
859.13	3176
859.263	3173
859.396	3245
859.529	3097
859.662	3097
859.795	3085
859.928	3169
860.061	3329
860.194	3325
860.327	3150
860.46	3108
860.592	3256
860.725	3283
860.858	3291
860.99	3119
861.123	3100
861.256	3108
861.388	3180
861.521	3850
861.653	3039
861.786	2990
861.918	3024
862.05	3058
862.183	3138
862.315	3157
862.447	3211
862.58	3131
862.712	3036
862.844	2937
862.976	3017
863.108	2998
863.24	3329
863.372	2891
863.504	2967
863.636	2986
863.768	3036
863.9	3001
864.032	2948
864.164	2975
864.296	3043
864.428	3070
864.559	3116
864.691	3028
864.823	3108
864.954	3039
865.086	3093
865.217	2994
865.349	2963
865.48	3036
865.612	3039
865.743	3146
865.875	3013
866.006	2941
866.137	2963
866.269	2960
866.4	2967
866.531	2941
866.662	2906
866.793	2906
866.924	2914
867.055	3039
867.186	2937
867.317	2891
867.448	2861
867.579	2853
867.71	2876
867.841	2823
867.972	2918
868.103	2956
868.233	2922
868.364	2853
868.495	2918
868.625	3112
868.756	3176
868.886	3005
869.017	3070
869.147	3203
869.278	3192
869.408	3051
869.539	3058
869.669	3100
869.799	3055
869.929	3161
870.06	3150
870.19	3336
870.32	3302
870.45	3321
870.58	3401
870.71	3469
870.84	3450
870.97	3302
871.1	3283
871.23	3519
871.36	3462
871.489	3367
871.619	3393
871.749	3382
871.879	3450
872.008	3481
872.138	3378
872.267	3279
872.397	3123
872.526	3119
872.656	3043
872.785	3112
872.915	3279
873.044	3344
873.173	3249
873.303	3245
873.432	3241
873.561	3279
873.69	3173
873.819	3154
873.948	3180
874.077	3127
874.206	3066
874.335	3089
874.464	3233
874.593	3351
874.722	3264
874.851	3431
874.979	3363
875.108	3332
875.237	3218
875.365	3188
875.494	3184
875.623	3287
875.751	3100
875.88	3157
876.008	3211
876.136	3230
876.265	3386
876.393	3519
876.521	3412
876.65	3416
876.778	3374
876.906	3264
877.034	3173
877.162	3226
877.29	3207
877.418	3279
877.546	3245
877.674	3291
877.802	3256
877.93	3218
878.058	3150
878.185	3104
878.313	3230
878.441	3218
878.568	3074
878.696	3173
878.824	3253
878.951	3313
879.079	3424
879.206	3606
879.333	3431
879.461	3359
879.588	3329
879.715	3488
879.842	3591
879.97	3382
880.097	3188
880.224	3131
880.351	3211
880.478	3233
880.605	3184
880.732	3207
880.859	3526
880.986	3287
881.112	3340
881.239	3169
881.366	3100
881.493	3047
881.619	3017
881.746	3093
881.872	3085
881.999	3093
882.125	3169
882.252	3260
882.378	3306
882.505	3496
882.631	3275
882.757	3180
882.883	3256
883.01	3279
883.136	3154
883.262	3089
883.388	3097
883.514	3367
883.64	3389
883.766	3374
883.892	3180
884.018	3230
884.143	3443
884.269	3564
884.395	3218
884.52	3173
884.646	3195
884.772	3142
884.897	3116
885.023	3214
885.148	3332
885.274	3420
885.399	3329
885.524	3298
885.65	3256
885.775	3329
885.9	3294
886.025	3458
886.15	3382
886.275	3291
886.4	3256
886.525	3317
886.65	3302
886.775	3310
886.9	3557
887.025	3675
887.149	3416
887.274	3260
887.399	3180
887.523	3211
887.648	3188
887.773	3207
887.897	3374
888.021	3443
888.146	3321
888.27	3458
888.395	3534
888.519	3462
888.643	3469
888.767	3481
888.891	3325
889.015	3275
889.139	3306
889.263	3264
889.387	3405
889.511	3488
889.635	3481
889.759	3294
889.883	3272
890.006	3416
890.13	3515
890.254	3294
890.377	3363
890.501	3218
890.624	3207
890.748	3298
890.871	3199
890.995	3104
891.118	3077
891.241	3214
891.364	3218
891.488	3348
891.611	3146
891.734	3211
891.857	3294
891.98	3279
892.103	3329
892.226	3256
892.349	3203
892.471	3138
892.594	3226
892.717	3313
892.839	3272
892.962	3291
893.085	3363
893.207	3302
893.33	3173
893.452	3230
893.575	3348
893.697	3264
893.819	3447
893.941	3500
894.064	3424
894.186	3321
894.308	3222
894.43	3458
894.552	3542
894.674	3462
894.796	3268
894.918	3291
895.04	3321
895.161	3420
895.283	3378
895.405	3325
895.526	3389
895.648	3458
895.769	3439
895.891	3466
896.012	3469
896.134	3462
896.255	3450
896.376	3397
896.498	3340
896.619	3435
896.74	3424
896.861	3412
896.982	3701
897.103	3850
897.224	3595
897.345	3523
897.466	3431
897.587	3515
897.708	3637
897.828	3561
897.949	3439
898.07	3359
898.19	3435
898.311	3603
898.431	3485
898.552	3526
898.672	3625
898.792	3576
898.913	3530
899.033	3458
899.153	3275
899.273	3256
899.393	3291
899.513	3351
899.633	3325
899.753	3325
899.873	3283
899.993	3382
900.113	3325
900.232	3359
900.352	3359
900.472	3336
900.591	3207
900.711	3283
900.83	3249
900.95	3454
901.069	3481
901.189	3363
901.308	3184
901.427	3070
901.546	3226
901.665	3321
901.784	3351
901.904	3207
902.023	3138
902.141	3058
902.26	2979
902.379	3119
902.498	3119
902.617	3085
902.735	3222
902.854	3272
902.973	3173
903.091	3028
903.21	3062
903.328	3180
903.446	3077
903.565	3108
903.683	3199
903.801	3146
903.919	3211
904.038	3249
904.156	3207
904.274	3291
904.392	3260
904.51	3306
904.627	3321
904.745	3450
904.863	3507
904.981	3294
905.098	3161
905.216	3268
905.334	3245
905.451	3325
905.569	3317
905.686	3435
905.803	3424
905.921	3302
906.038	3439
906.155	3397
906.272	3275
906.389	3321
906.506	3226
906.623	3256
906.74	3264
906.857	3214
906.974	3291
907.091	3469
907.208	3580
907.324	3500
907.441	3409
907.557	3203
907.674	3245
907.79	3233
907.907	3291
908.023	3370
908.139	3378
908.256	3321
908.372	3409
908.488	3374
908.604	3287
908.72	3230
908.836	3283
908.952	3253
909.068	3332
909.184	3450
909.3	3386
909.415	3504
909.531	3511
909.647	3298
909.762	3317
909.878	3287
909.993	3355
910.108	3359
910.224	3351
910.339	3393
910.454	3336
910.57	3310
910.685	3245
910.8	3591
910.915	3545
911.03	3397
911.145	3245
911.259	3264
911.374	3287
911.489	3226
911.604	3230
911.718	3112
911.833	3154
911.947	3024
912.062	2971
912.176	3173
912.291	3237
912.405	3260
912.519	3439
912.633	3431
912.748	3321
912.862	3283
912.976	3173
913.09	3043
913.204	3127
913.318	3203
913.431	3355
913.545	3370
913.659	3431
913.772	3351
913.886	3226
914	3203
914.113	3351
914.226	3420
914.34	3355
914.453	3214
914.566	3389
914.68	3310
914.793	3321
914.906	3142
915.019	3123
915.132	3066
915.245	3192
915.358	3230
915.47	3180
915.583	3264
915.696	3313
915.809	3420
915.921	3431
916.034	3279
916.146	3264
916.259	3230
916.371	3409
916.483	3382
916.595	3256
916.708	3363
916.82	3317
916.932	3370
917.044	3344
917.156	3351
917.268	3272
917.38	3329
917.491	3279
917.603	3367
917.715	3416
917.826	3511
917.938	3367
918.049	3245
918.161	3473
918.272	3580
918.384	3591
918.495	3466
918.606	3321
918.717	3291
918.828	3401
918.939	3473
919.05	3332
919.161	3363
919.272	3199
919.383	3264
919.494	3492
919.604	3675
919.715	3488
919.826	3397
919.936	3450
920.047	3584
920.157	3584
920.267	3785
920.378	3622
920.488	3557
920.598	3819
920.708	3956
920.818	3857
920.928	3854
921.038	4002
921.148	4029
921.258	3694
921.368	3644
921.477	3572
921.587	3557
921.697	3428
921.806	3625
921.916	3553
922.025	3367
922.134	3359
922.244	3306
922.353	3378
922.462	3256
922.571	3230
922.68	3131
922.789	3089
922.898	3142
923.007	3077
923.116	3184
923.224	3154
923.333	3154
923.442	3116
923.55	3116
923.659	3138
923.767	3230
923.876	3085
923.984	3291
924.092	3077
924.201	3184
924.309	3256
924.417	3245
924.525	3188
924.633	3253
924.741	4223
924.849	3058
924.956	3268
925.064	3116
925.172	3039
925.279	3074
925.387	3226
925.494	3211
925.602	3351
925.709	3336
925.816	3138
925.924	3264
926.031	3367
926.138	3321
926.245	3367
926.352	3245
926.459	3439
926.566	3458
926.673	3367
926.779	3233
926.886	3256
926.993	3135
927.099	3127
927.206	3112
927.312	3119
927.419	3218
927.525	3199
927.631	3249
927.737	3135
927.843	3169
927.95	2994
928.056	3131
928.162	3180
928.267	3249
928.373	3850
928.479	3306
928.585	3036
928.69	3173
928.796	3253
928.901	3173
929.007	3047
929.112	3199
929.218	3184
929.323	3150
929.428	3085
929.533	3306
929.638	3089
929.743	3180
929.848	3222
929.953	3184
930.058	3169
930.163	2998
930.267	3062
930.372	3207
930.477	3036
930.581	3310
930.685	3154
930.79	3058
930.894	3070
930.998	3100
931.103	3302
931.207	2948
931.311	2937
931.415	2925
931.519	2762
931.623	2811
