Data from test_V78500241_465.txt Node
Date: Fri Mar 25 16:18:25 CST 2022
User: usil
Spectrometer: V785-0024
Trigger mode: 0
Integration Time (sec): 4.000000E-1
Scans to average: 1
Nonlinearity correction enabled: false
Boxcar width: 0
Storing dark spectrum: false
XAxis mode: Wavelengths
Number of Pixels in Spectrum: 1024
>>>>>Begin Spectral Data<<<<<
801.071	2883
801.214	2956
801.356	2853
801.499	2952
801.641	2902
801.783	2925
801.926	3020
802.068	2986
802.211	2967
802.353	3032
802.496	2937
802.638	2994
802.78	3024
802.923	3089
803.065	3017
803.208	2876
803.35	2933
803.492	2902
803.635	2937
803.777	2708
803.919	2872
804.061	3195
804.204	2967
804.346	2906
804.488	2861
804.63	2967
804.773	2880
804.915	2861
805.057	3062
805.199	2902
805.341	2952
805.483	3036
805.626	2979
805.768	2941
805.91	3028
806.052	3112
806.194	3058
806.336	3211
806.478	2994
806.62	2941
806.762	2998
806.904	3055
807.046	3180
807.188	2948
807.33	2899
807.472	2979
807.614	2883
807.756	2975
807.898	2887
808.04	2880
808.182	2960
808.324	2937
808.465	2864
808.607	2861
808.749	2796
808.891	2853
809.033	2971
809.174	2948
809.316	2853
809.458	2887
809.6	2754
809.741	2750
809.883	2777
810.025	2849
810.166	2891
810.308	2853
810.45	2857
810.591	2788
810.733	2754
810.875	2823
811.016	2781
811.158	2762
811.299	2804
811.441	2922
811.582	2899
811.724	2807
811.865	2830
812.007	2880
812.148	2857
812.29	2853
812.431	2876
812.573	2925
812.714	3001
812.855	3077
812.997	3001
813.138	3116
813.279	3020
813.421	2994
813.562	2902
813.703	2842
813.845	2861
813.986	2727
814.127	2727
814.268	2815
814.41	2796
814.551	2773
814.692	2876
814.833	2849
814.974	2883
815.115	2952
815.256	2815
815.397	2796
815.539	2853
815.68	2762
815.821	2785
815.962	2910
816.103	2902
816.244	2883
816.385	2864
816.526	2967
816.666	2918
816.807	2720
816.948	2883
817.089	2895
817.23	2796
817.371	2750
817.512	2792
817.653	2838
817.793	2800
817.934	2883
818.075	2975
818.216	2986
818.356	2998
818.497	2937
818.638	2766
818.778	2807
818.919	2769
819.06	2762
819.2	2845
819.341	2807
819.481	2807
819.622	2914
819.762	3116
819.903	2986
820.043	2948
820.184	2880
820.324	2876
820.465	3005
820.605	3009
820.746	3051
820.886	2910
821.026	3097
821.167	3180
821.307	3237
821.447	3283
821.588	3264
821.728	3218
821.868	3195
822.008	3077
822.149	3218
822.289	3241
822.429	3058
822.569	3100
822.709	3146
822.849	3024
822.99	3020
823.13	3135
823.27	3203
823.41	3108
823.55	3173
823.69	3180
823.83	3192
823.97	3085
824.11	2994
824.25	2967
824.389	3024
824.529	3093
824.669	3051
824.809	3207
824.949	3264
825.089	3188
825.228	3173
825.368	2994
825.508	2933
825.648	2933
825.787	3009
825.927	3039
826.067	2918
826.206	2918
826.346	3036
826.485	3112
826.625	3104
826.765	3249
826.904	3214
827.044	2979
827.183	2933
827.323	2849
827.462	2963
827.601	2899
827.741	2963
827.88	2941
828.02	2845
828.159	2941
828.298	3036
828.437	3112
828.577	3009
828.716	3188
828.855	3089
828.994	2910
829.134	2864
829.273	2929
829.412	2880
829.551	2872
829.69	2883
829.829	2998
829.968	3127
830.107	3017
830.246	3013
830.385	2929
830.524	2876
830.663	2796
830.802	2716
830.941	2659
831.08	2625
831.219	2754
831.357	2727
831.496	2952
831.635	2667
831.774	2659
831.913	2644
832.051	2526
832.19	2579
832.329	2674
832.467	2514
832.606	2473
832.744	2575
832.883	2579
833.022	2571
833.16	2621
833.299	2693
833.437	2701
833.576	2659
833.714	2693
833.852	2735
833.991	2750
834.129	2834
834.267	2796
834.406	2781
834.544	2910
834.682	2887
834.821	2861
834.959	3051
835.097	2872
835.235	3062
835.373	2998
835.511	3043
835.65	2941
835.788	2941
835.926	2857
836.064	2804
836.202	2807
836.34	3089
836.478	3161
836.615	3055
836.753	3100
836.891	3169
837.029	3131
837.167	3100
837.305	3051
837.443	3036
837.58	2979
837.718	3123
837.856	3024
837.993	3024
838.131	3097
838.269	3093
838.406	3077
838.544	3093
838.681	2971
838.819	2918
838.956	2792
839.094	2834
839.231	2910
839.369	3043
839.506	3374
839.643	3214
839.781	3001
839.918	2967
840.055	3047
840.193	3036
840.33	3043
840.467	3062
840.604	3119
840.742	3386
840.879	3036
841.016	3047
841.153	3089
841.29	3321
841.427	3272
841.564	3264
841.701	3279
841.838	3188
841.975	3192
842.112	3218
842.249	3089
842.385	3032
842.522	3264
842.659	3085
842.796	3032
842.933	3062
843.069	3058
843.206	3032
843.343	3150
843.479	3066
843.616	3116
843.752	2857
843.889	2842
844.025	3108
844.162	2891
844.298	3055
844.435	2933
844.571	2906
844.708	3055
844.844	3150
844.98	3192
845.117	3165
845.253	3017
845.389	2994
845.525	3097
845.661	3074
845.798	3032
845.934	3104
846.07	3017
846.206	3161
846.342	3344
846.478	3207
846.614	3066
846.75	3013
846.886	2986
847.022	3211
847.158	3138
847.294	3207
847.429	3241
847.565	3195
847.701	3473
847.837	3036
847.972	3024
848.108	3142
848.244	3142
848.379	2960
848.515	2918
848.65	2918
848.786	2963
848.921	2998
849.057	3119
849.192	3154
849.328	3081
849.463	3058
849.598	3074
849.734	2990
849.869	2975
850.004	2861
850.14	2979
850.275	2941
850.41	2838
850.545	2887
850.68	2895
850.815	2925
850.95	2967
851.085	3195
851.22	3119
851.355	3032
851.49	2967
851.625	2979
851.76	2956
851.895	2849
852.03	2906
852.165	2998
852.299	3123
852.434	3169
852.569	3138
852.703	3165
852.838	3218
852.973	3325
853.107	3310
853.242	3173
853.376	3066
853.511	2929
853.645	3017
853.78	3222
853.914	3154
854.048	3119
854.183	3066
854.317	3154
854.451	3306
854.585	3142
854.72	3055
854.854	3188
854.988	3058
855.122	3070
855.256	2982
855.39	3085
855.524	3199
855.658	3180
855.792	3131
855.926	3176
856.06	3188
856.194	3249
856.327	3112
856.461	3020
856.595	3070
856.729	3066
856.862	3222
856.996	3142
857.13	3150
857.263	3211
857.397	3253
857.53	3074
857.664	3157
857.797	3203
857.931	3237
858.064	3173
858.197	3199
858.331	3116
858.464	3100
858.597	2994
858.731	3077
858.864	3146
858.997	3077
859.13	3142
859.263	3188
859.396	3211
859.529	3066
859.662	3070
859.795	3036
859.928	3131
860.061	3268
860.194	3275
860.327	3135
860.46	3112
860.592	3241
860.725	3275
860.858	3283
860.99	3097
861.123	3055
861.256	3077
861.388	3165
861.521	3972
861.653	3055
861.786	3013
861.918	3032
862.05	3074
862.183	3127
862.315	3207
862.447	3241
862.58	3135
862.712	3001
862.844	2918
862.976	3062
863.108	3032
863.24	3363
863.372	2918
863.504	3024
863.636	2982
863.768	3055
863.9	3005
864.032	2914
864.164	2952
864.296	3055
864.428	3089
864.559	3157
864.691	3112
864.823	3074
864.954	3062
865.086	3055
865.217	3032
865.349	2979
865.48	3020
865.612	3066
865.743	3203
865.875	3028
866.006	2956
866.137	3032
866.269	2948
866.4	2971
866.531	2944
866.662	2918
866.793	2925
866.924	2960
867.055	2998
867.186	2986
867.317	2914
867.448	2876
867.579	2872
867.71	2872
867.841	2845
867.972	2910
868.103	2948
868.233	2925
868.364	2971
868.495	2971
868.625	3112
868.756	3211
868.886	3001
869.017	3058
869.147	3199
869.278	3184
869.408	3081
869.539	3039
869.669	3116
869.799	3077
869.929	3188
870.06	3138
870.19	3370
870.32	3291
870.45	3291
870.58	3409
870.71	3500
870.84	3492
870.97	3298
871.1	3249
871.23	3542
871.36	3492
871.489	3374
871.619	3416
871.749	3428
871.879	3473
872.008	3504
872.138	3378
872.267	3336
872.397	3188
872.526	3123
872.656	3058
872.785	3131
872.915	3302
873.044	3363
873.173	3272
873.303	3287
873.432	3253
873.561	3241
873.69	3184
873.819	3161
873.948	3218
874.077	3127
874.206	3081
874.335	3112
874.464	3241
874.593	3378
874.722	3291
874.851	3359
874.979	3348
875.108	3374
875.237	3203
875.365	3237
875.494	3188
875.623	3268
875.751	3100
875.88	3123
876.008	3203
876.136	3253
876.265	3424
876.393	3519
876.521	3412
876.65	3416
876.778	3348
876.906	3256
877.034	3245
877.162	3291
877.29	3180
877.418	3233
877.546	3264
877.674	3268
877.802	3260
877.93	3260
878.058	3180
878.185	3135
878.313	3199
878.441	3214
878.568	3116
878.696	3173
878.824	3253
878.951	3340
879.079	3500
879.206	3622
879.333	3428
879.461	3329
879.588	3397
879.715	3526
879.842	3625
879.97	3405
880.097	3165
880.224	3161
880.351	3188
880.478	3253
880.605	3233
880.732	3192
880.859	3504
880.986	3317
881.112	3378
881.239	3230
881.366	3127
881.493	3108
881.619	3039
881.746	3093
881.872	3116
881.999	3116
882.125	3207
882.252	3287
882.378	3351
882.505	3447
882.631	3340
882.757	3165
882.883	3245
883.01	3253
883.136	3199
883.262	3116
883.388	3150
883.514	3351
883.64	3363
883.766	3310
883.892	3199
884.018	3230
884.143	3420
884.269	3538
884.395	3230
884.52	3203
884.646	3241
884.772	3180
884.897	3138
885.023	3226
885.148	3351
885.274	3428
885.399	3363
885.524	3321
885.65	3287
885.775	3332
885.9	3321
886.025	3469
886.15	3397
886.275	3336
886.4	3264
886.525	3336
886.65	3294
886.775	3279
886.9	3542
887.025	3671
887.149	3443
887.274	3260
887.399	3203
887.523	3211
887.648	3241
887.773	3195
887.897	3424
888.021	3420
888.146	3348
888.27	3473
888.395	3553
888.519	3462
888.643	3481
888.767	3496
888.891	3359
889.015	3256
889.139	3294
889.263	3268
889.387	3454
889.511	3515
889.635	3477
889.759	3355
889.883	3302
890.006	3405
890.13	3534
890.254	3344
890.377	3386
890.501	3291
890.624	3245
890.748	3317
890.871	3233
890.995	3142
891.118	3051
891.241	3207
891.364	3218
891.488	3363
891.611	3176
891.734	3230
891.857	3329
891.98	3272
892.103	3348
892.226	3272
892.349	3233
892.471	3112
892.594	3268
892.717	3321
892.839	3302
892.962	3317
893.085	3359
893.207	3325
893.33	3199
893.452	3222
893.575	3340
893.697	3294
893.819	3447
893.941	3504
894.064	3477
894.186	3260
894.308	3306
894.43	3443
894.552	3557
894.674	3481
894.796	3245
894.918	3344
895.04	3317
895.161	3473
895.283	3393
895.405	3329
895.526	3409
895.648	3447
895.769	3439
895.891	3504
896.012	3526
896.134	3523
896.255	3443
896.376	3409
896.498	3363
896.619	3435
896.74	3374
896.861	3458
896.982	3713
897.103	3880
897.224	3599
897.345	3511
897.466	3439
897.587	3477
897.708	3625
897.828	3568
897.949	3488
898.07	3344
898.19	3393
898.311	3648
898.431	3428
898.552	3500
898.672	3591
898.792	3572
898.913	3557
899.033	3439
899.153	3355
899.273	3272
899.393	3291
899.513	3310
899.633	3332
899.753	3355
899.873	3344
899.993	3431
900.113	3348
900.232	3401
900.352	3374
900.472	3321
900.591	3245
900.711	3325
900.83	3230
900.95	3405
901.069	3538
901.189	3378
901.308	3154
901.427	3192
901.546	3207
901.665	3325
901.784	3367
901.904	3245
902.023	3207
902.141	3039
902.26	3013
902.379	3154
902.498	3081
902.617	3077
902.735	3176
902.854	3237
902.973	3226
903.091	3058
903.21	3089
903.328	3142
903.446	3123
903.565	3127
903.683	3211
903.801	3150
903.919	3237
904.038	3310
904.156	3207
904.274	3298
904.392	3245
904.51	3275
904.627	3363
904.745	3466
904.863	3534
904.981	3256
905.098	3218
905.216	3260
905.334	3317
905.451	3283
905.569	3294
905.686	3454
905.803	3477
905.921	3310
906.038	3466
906.155	3397
906.272	3351
906.389	3378
906.506	3222
906.623	3294
906.74	3321
906.857	3230
906.974	3302
907.091	3504
907.208	3599
907.324	3458
907.441	3447
907.557	3249
907.674	3256
907.79	3188
907.907	3313
908.023	3393
908.139	3389
908.256	3355
908.372	3340
908.488	3389
908.604	3294
908.72	3279
908.836	3291
908.952	3332
909.068	3302
909.184	3500
909.3	3397
909.415	3504
909.531	3477
909.647	3279
909.762	3344
909.878	3245
909.993	3367
910.108	3367
910.224	3367
910.339	3386
910.454	3344
910.57	3275
910.685	3249
910.8	3606
910.915	3576
911.03	3443
911.145	3283
911.259	3279
911.374	3283
911.489	3294
911.604	3222
911.718	3142
911.833	3142
911.947	3043
912.062	2994
912.176	3154
912.291	3192
912.405	3218
912.519	3416
912.633	3492
912.748	3302
912.862	3298
912.976	3180
913.09	3100
913.204	3131
913.318	3233
913.431	3374
913.545	3348
913.659	3405
913.772	3351
913.886	3207
914	3203
914.113	3397
914.226	3420
914.34	3370
914.453	3245
914.566	3443
914.68	3279
914.793	3313
914.906	3161
915.019	3131
915.132	3081
915.245	3188
915.358	3272
915.47	3260
915.583	3294
915.696	3294
915.809	3424
915.921	3412
916.034	3272
916.146	3256
916.259	3264
916.371	3401
916.483	3378
916.595	3298
916.708	3355
916.82	3336
916.932	3351
917.044	3340
917.156	3355
917.268	3256
917.38	3344
917.491	3302
917.603	3386
917.715	3450
917.826	3507
917.938	3359
918.049	3264
918.161	3420
918.272	3587
918.384	3580
918.495	3504
918.606	3382
918.717	3275
918.828	3359
918.939	3416
919.05	3325
919.161	3393
919.272	3207
919.383	3298
919.494	3500
919.604	3652
919.715	3515
919.826	3431
919.936	3466
920.047	3629
920.157	3557
920.267	3770
920.378	3633
920.488	3561
920.598	3774
920.708	3956
920.818	3835
920.928	3812
921.038	4093
921.148	4017
921.258	3667
921.368	3641
921.477	3572
921.587	3545
921.697	3458
921.806	3660
921.916	3542
922.025	3359
922.134	3382
922.244	3355
922.353	3428
922.462	3264
922.571	3226
922.68	3135
922.789	3108
922.898	3165
923.007	3150
923.116	3233
923.224	3165
923.333	3203
923.442	3112
923.55	3062
923.659	3142
923.767	3237
923.876	3100
923.984	3275
924.092	3112
924.201	3237
924.309	3256
924.417	3245
924.525	3203
924.633	3230
924.741	3987
924.849	3055
924.956	3256
925.064	3108
925.172	3024
925.279	3116
925.387	3184
925.494	3211
925.602	3382
925.709	3348
925.816	3203
925.924	3294
926.031	3397
926.138	3302
926.245	3359
926.352	3264
926.459	3386
926.566	3485
926.673	3355
926.779	3272
926.886	3287
926.993	3165
927.099	3135
927.206	3131
927.312	3135
927.419	3268
927.525	3233
927.631	3302
927.737	3203
927.843	3157
927.95	3020
928.056	3184
928.162	3237
928.267	3287
928.373	3781
928.479	3355
928.585	3104
928.69	3268
928.796	3336
928.901	3180
929.007	3097
929.112	3218
929.218	3226
929.323	3195
929.428	3211
929.533	3370
929.638	3154
929.743	3199
929.848	3272
929.953	3237
930.058	3195
930.163	3009
930.267	3108
930.372	3226
930.477	3066
930.581	3348
930.685	3275
930.79	3108
930.894	3161
930.998	3157
931.103	3359
931.207	3001
931.311	2990
931.415	2979
931.519	2819
931.623	2834
