Data from test_V78500241_1883.txt Node
Date: Fri Mar 25 16:28:14 CST 2022
User: usil
Spectrometer: V785-0024
Trigger mode: 0
Integration Time (sec): 4.000000E-1
Scans to average: 1
Nonlinearity correction enabled: false
Boxcar width: 0
Storing dark spectrum: false
XAxis mode: Wavelengths
Number of Pixels in Spectrum: 1024
>>>>>Begin Spectral Data<<<<<
801.071	2876
801.214	2948
801.356	2872
801.499	2902
801.641	2861
801.783	2902
801.926	3047
802.068	2944
802.211	2990
802.353	3024
802.496	2933
802.638	2998
802.78	3070
802.923	3039
803.065	2998
803.208	2899
803.35	2910
803.492	2925
803.635	2922
803.777	2769
803.919	2876
804.061	3203
804.204	2941
804.346	2906
804.488	2834
804.63	2975
804.773	2895
804.915	2914
805.057	3081
805.199	2929
805.341	2975
805.483	3036
805.626	3058
805.768	2910
805.91	3093
806.052	3116
806.194	3028
806.336	3253
806.478	3043
806.62	2944
806.762	3013
806.904	3058
807.046	3165
807.188	2975
807.33	2929
807.472	2998
807.614	2906
807.756	2975
807.898	2906
808.04	2925
808.182	2960
808.324	2944
808.465	2864
808.607	2853
808.749	2807
808.891	2906
809.033	2967
809.174	3005
809.316	2891
809.458	2857
809.6	2788
809.741	2754
809.883	2739
810.025	2845
810.166	2811
810.308	2853
810.45	2880
810.591	2815
810.733	2769
810.875	2788
811.016	2773
811.158	2731
811.299	2785
811.441	2941
811.582	2895
811.724	2834
811.865	2811
812.007	2899
812.148	2891
812.29	2834
812.431	2899
812.573	2948
812.714	2944
812.855	3036
812.997	3055
813.138	3138
813.279	2994
813.421	2994
813.562	2944
813.703	2864
813.845	2891
813.986	2788
814.127	2712
814.268	2823
814.41	2853
814.551	2773
814.692	2861
814.833	2823
814.974	2895
815.115	2986
815.256	2826
815.397	2807
815.539	2864
815.68	2769
815.821	2796
815.962	2963
816.103	2891
816.244	2853
816.385	2842
816.526	2975
816.666	2891
816.807	2739
816.948	2910
817.089	2918
817.23	2834
817.371	2785
817.512	2788
817.653	2872
817.793	2857
817.934	2914
818.075	2956
818.216	2994
818.356	3043
818.497	2891
818.638	2781
818.778	2807
818.919	2796
819.06	2758
819.2	2864
819.341	2800
819.481	2777
819.622	2891
819.762	3058
819.903	3051
820.043	2914
820.184	2880
820.324	2933
820.465	3028
820.605	3013
820.746	2990
820.886	2914
821.026	3100
821.167	3154
821.307	3253
821.447	3294
821.588	3249
821.728	3214
821.868	3241
822.008	3085
822.149	3203
822.289	3249
822.429	3058
822.569	3070
822.709	3180
822.849	3013
822.99	3062
823.13	3173
823.27	3207
823.41	3093
823.55	3123
823.69	3135
823.83	3157
823.97	3093
824.11	3013
824.25	2990
824.389	3077
824.529	3074
824.669	3058
824.809	3195
824.949	3241
825.089	3214
825.228	3188
825.368	2967
825.508	2956
825.648	2979
825.787	2986
825.927	3009
826.067	2990
826.206	2956
826.346	3013
826.485	3036
826.625	3131
826.765	3275
826.904	3207
827.044	2952
827.183	2918
827.323	2861
827.462	2979
827.601	2941
827.741	2906
827.88	2952
828.02	2872
828.159	2937
828.298	2994
828.437	3089
828.577	3039
828.716	3237
828.855	3100
828.994	2891
829.134	2872
829.273	2960
829.412	2853
829.551	2891
829.69	2887
829.829	2963
829.968	3138
830.107	3028
830.246	3043
830.385	2925
830.524	2876
830.663	2842
830.802	2750
830.941	2678
831.08	2659
831.219	2777
831.357	2727
831.496	2941
831.635	2735
831.774	2629
831.913	2663
832.051	2518
832.19	2587
832.329	2708
832.467	2552
832.606	2457
832.744	2579
832.883	2571
833.022	2587
833.16	2667
833.299	2667
833.437	2716
833.576	2724
833.714	2701
833.852	2743
833.991	2758
834.129	2834
834.267	2800
834.406	2792
834.544	2842
834.682	2845
834.821	2880
834.959	3028
835.097	2929
835.235	3036
835.373	2986
835.511	3028
835.65	2941
835.788	2925
835.926	2857
836.064	2823
836.202	2834
836.34	3100
836.478	3108
836.615	3005
836.753	3119
836.891	3195
837.029	3146
837.167	3093
837.305	3058
837.443	3032
837.58	2971
837.718	3150
837.856	3100
837.993	3055
838.131	3138
838.269	3146
838.406	3074
838.544	3055
838.681	2944
838.819	2910
838.956	2830
839.094	2796
839.231	2929
839.369	3005
839.506	3367
839.643	3218
839.781	3005
839.918	2979
840.055	3036
840.193	3020
840.33	3039
840.467	3077
840.604	3116
840.742	3378
840.879	3036
841.016	3047
841.153	3116
841.29	3325
841.427	3279
841.564	3260
841.701	3294
841.838	3222
841.975	3188
842.112	3218
842.249	3051
842.385	3077
842.522	3230
842.659	3074
842.796	3055
842.933	3135
843.069	2994
843.206	3039
843.343	3165
843.479	3097
843.616	3116
843.752	2876
843.889	2868
844.025	3066
844.162	2887
844.298	3104
844.435	2922
844.571	2910
844.708	3097
844.844	3199
844.98	3226
845.117	3165
845.253	3074
845.389	3024
845.525	3097
845.661	3104
845.798	3005
845.934	3138
846.07	3051
846.206	3226
846.342	3306
846.478	3195
846.614	3077
846.75	3020
846.886	3020
847.022	3226
847.158	3097
847.294	3184
847.429	3249
847.565	3207
847.701	3424
847.837	2982
847.972	2967
848.108	3195
848.244	3154
848.379	3013
848.515	2918
848.65	2933
848.786	2937
848.921	2982
849.057	3085
849.192	3131
849.328	3058
849.463	3127
849.598	3058
849.734	3020
849.869	2960
850.004	2906
850.14	2956
850.275	2918
850.41	2834
850.545	2880
850.68	2937
850.815	2956
850.95	2967
851.085	3188
851.22	3116
851.355	3062
851.49	2998
851.625	3017
851.76	2979
851.895	2910
852.03	2910
852.165	3020
852.299	3108
852.434	3161
852.569	3116
852.703	3131
852.838	3291
852.973	3370
853.107	3332
853.242	3135
853.376	3070
853.511	3001
853.645	3066
853.78	3233
853.914	3108
854.048	3127
854.183	3089
854.317	3138
854.451	3275
854.585	3150
854.72	3081
854.854	3188
854.988	3116
855.122	3062
855.256	2982
855.39	3081
855.524	3226
855.658	3123
855.792	3142
855.926	3157
856.06	3226
856.194	3256
856.327	3108
856.461	3089
856.595	3077
856.729	3062
856.862	3199
856.996	3180
857.13	3192
857.263	3241
857.397	3253
857.53	3093
857.664	3176
857.797	3226
857.931	3230
858.064	3161
858.197	3207
858.331	3169
858.464	3066
858.597	3013
858.731	3131
858.864	3116
858.997	3062
859.13	3135
859.263	3195
859.396	3176
859.529	3085
859.662	3097
859.795	3017
859.928	3119
860.061	3275
860.194	3287
860.327	3100
860.46	3104
860.592	3233
860.725	3249
860.858	3264
860.99	3093
861.123	3017
861.256	3024
861.388	3142
861.521	3785
861.653	2998
861.786	2982
861.918	3005
862.05	3070
862.183	3093
862.315	3154
862.447	3199
862.58	3047
862.712	2956
862.844	2880
862.976	3020
863.108	2971
863.24	3367
863.372	2849
863.504	2960
863.636	2948
863.768	3043
863.9	2929
864.032	2895
864.164	2914
864.296	2994
864.428	3066
864.559	3100
864.691	3047
864.823	3051
864.954	3024
865.086	3001
865.217	2963
865.349	2963
865.48	2929
865.612	2998
865.743	3157
865.875	2960
866.006	2941
866.137	2979
866.269	2925
866.4	2952
866.531	2914
866.662	2906
866.793	2891
866.924	2910
867.055	2956
867.186	2937
867.317	2914
867.448	2823
867.579	2849
867.71	2845
867.841	2819
867.972	2891
868.103	2864
868.233	2880
868.364	2899
868.495	2891
868.625	3077
868.756	3135
868.886	2963
869.017	3001
869.147	3131
869.278	3138
869.408	3032
869.539	3024
869.669	3070
869.799	3017
869.929	3146
870.06	3089
870.19	3306
870.32	3275
870.45	3253
870.58	3359
870.71	3454
870.84	3420
870.97	3321
871.1	3214
871.23	3488
871.36	3393
871.489	3389
871.619	3374
871.749	3382
871.879	3435
872.008	3473
872.138	3340
872.267	3237
872.397	3097
872.526	3116
872.656	2998
872.785	3055
872.915	3245
873.044	3275
873.173	3203
873.303	3214
873.432	3249
873.561	3241
873.69	3161
873.819	3131
873.948	3192
874.077	3108
874.206	3024
874.335	3070
874.464	3192
874.593	3374
874.722	3245
874.851	3344
874.979	3298
875.108	3321
875.237	3199
875.365	3138
875.494	3169
875.623	3222
875.751	3077
875.88	3074
876.008	3173
876.136	3230
876.265	3348
876.393	3507
876.521	3420
876.65	3393
876.778	3351
876.906	3268
877.034	3222
877.162	3226
877.29	3161
877.418	3249
877.546	3230
877.674	3264
877.802	3230
877.93	3222
878.058	3154
878.185	3081
878.313	3211
878.441	3192
878.568	3070
878.696	3157
878.824	3283
878.951	3253
879.079	3439
879.206	3606
879.333	3447
879.461	3298
879.588	3378
879.715	3469
879.842	3580
879.97	3401
880.097	3192
880.224	3150
880.351	3188
880.478	3218
880.605	3211
880.732	3188
880.859	3466
880.986	3313
881.112	3275
881.239	3176
881.366	3104
881.493	3017
881.619	3039
881.746	3081
881.872	3074
881.999	3100
882.125	3142
882.252	3253
882.378	3283
882.505	3409
882.631	3241
882.757	3142
882.883	3230
883.01	3173
883.136	3142
883.262	3097
883.388	3135
883.514	3302
883.64	3355
883.766	3313
883.892	3195
884.018	3207
884.143	3428
884.269	3561
884.395	3233
884.52	3146
884.646	3169
884.772	3112
884.897	3123
885.023	3195
885.148	3310
885.274	3447
885.399	3344
885.524	3249
885.65	3233
885.775	3321
885.9	3264
886.025	3389
886.15	3351
886.275	3279
886.4	3264
886.525	3287
886.65	3291
886.775	3241
886.9	3481
887.025	3603
887.149	3389
887.274	3283
887.399	3150
887.523	3214
887.648	3173
887.773	3169
887.897	3348
888.021	3405
888.146	3302
888.27	3405
888.395	3481
888.519	3466
888.643	3450
888.767	3435
888.891	3313
889.015	3249
889.139	3325
889.263	3226
889.387	3439
889.511	3507
889.635	3462
889.759	3283
889.883	3302
890.006	3363
890.13	3492
890.254	3256
890.377	3344
890.501	3207
890.624	3180
890.748	3321
890.871	3173
890.995	3108
891.118	3066
891.241	3184
891.364	3287
891.488	3283
891.611	3161
891.734	3226
891.857	3264
891.98	3241
892.103	3310
892.226	3233
892.349	3203
892.471	3116
892.594	3245
892.717	3249
892.839	3241
892.962	3272
893.085	3351
893.207	3275
893.33	3123
893.452	3184
893.575	3313
893.697	3260
893.819	3485
893.941	3538
894.064	3488
894.186	3222
894.308	3249
894.43	3397
894.552	3549
894.674	3431
894.796	3298
894.918	3294
895.04	3264
895.161	3424
895.283	3412
895.405	3302
895.526	3359
895.648	3462
895.769	3420
895.891	3511
896.012	3477
896.134	3435
896.255	3420
896.376	3401
896.498	3332
896.619	3416
896.74	3336
896.861	3439
896.982	3682
897.103	3789
897.224	3603
897.345	3538
897.466	3424
897.587	3492
897.708	3629
897.828	3519
897.949	3469
898.07	3374
898.19	3374
898.311	3568
898.431	3469
898.552	3530
898.672	3564
898.792	3557
898.913	3545
899.033	3386
899.153	3298
899.273	3188
899.393	3317
899.513	3302
899.633	3310
899.753	3329
899.873	3321
899.993	3389
900.113	3336
900.232	3363
900.352	3329
900.472	3340
900.591	3192
900.711	3294
900.83	3264
900.95	3393
901.069	3519
901.189	3363
901.308	3146
901.427	3138
901.546	3195
901.665	3241
901.784	3332
901.904	3279
902.023	3150
902.141	3009
902.26	2956
902.379	3146
902.498	3058
902.617	3100
902.735	3226
902.854	3241
902.973	3211
903.091	3028
903.21	3066
903.328	3123
903.446	3085
903.565	3104
903.683	3207
903.801	3142
903.919	3260
904.038	3260
904.156	3180
904.274	3294
904.392	3233
904.51	3291
904.627	3329
904.745	3466
904.863	3443
904.981	3249
905.098	3165
905.216	3180
905.334	3237
905.451	3283
905.569	3291
905.686	3462
905.803	3466
905.921	3268
906.038	3450
906.155	3325
906.272	3264
906.389	3325
906.506	3176
906.623	3256
906.74	3253
906.857	3157
906.974	3279
907.091	3447
907.208	3572
907.324	3466
907.441	3389
907.557	3230
907.674	3192
907.79	3184
907.907	3256
908.023	3378
908.139	3370
908.256	3332
908.372	3370
908.488	3332
908.604	3275
908.72	3195
908.836	3272
908.952	3245
909.068	3348
909.184	3511
909.3	3412
909.415	3473
909.531	3435
909.647	3268
909.762	3272
909.878	3268
909.993	3355
910.108	3321
910.224	3344
910.339	3382
910.454	3355
910.57	3291
910.685	3237
910.8	3580
910.915	3557
911.03	3469
911.145	3253
911.259	3279
911.374	3329
911.489	3268
911.604	3203
911.718	3074
911.833	3165
911.947	3001
912.062	2975
912.176	3150
912.291	3195
912.405	3230
912.519	3435
912.633	3469
912.748	3340
912.862	3275
912.976	3165
913.09	3039
913.204	3135
913.318	3226
913.431	3332
913.545	3317
913.659	3428
913.772	3275
913.886	3192
914	3169
914.113	3355
914.226	3370
914.34	3340
914.453	3207
914.566	3412
914.68	3272
914.793	3283
914.906	3081
915.019	3085
915.132	3062
915.245	3195
915.358	3180
915.47	3241
915.583	3260
915.696	3294
915.809	3382
915.921	3382
916.034	3272
916.146	3237
916.259	3195
916.371	3386
916.483	3370
916.595	3306
916.708	3332
916.82	3344
916.932	3344
917.044	3340
917.156	3336
917.268	3245
917.38	3302
917.491	3275
917.603	3351
917.715	3450
917.826	3450
917.938	3363
918.049	3237
918.161	3439
918.272	3553
918.384	3584
918.495	3458
918.606	3325
918.717	3306
918.828	3359
918.939	3428
919.05	3268
919.161	3332
919.272	3192
919.383	3275
919.494	3511
919.604	3686
919.715	3477
919.826	3443
919.936	3450
920.047	3553
920.157	3580
920.267	3759
920.378	3587
920.488	3572
920.598	3759
920.708	3964
920.818	3793
920.928	3823
921.038	4006
921.148	4002
921.258	3713
921.368	3622
921.477	3603
921.587	3564
921.697	3447
921.806	3622
921.916	3477
922.025	3359
922.134	3370
922.244	3298
922.353	3397
922.462	3268
922.571	3203
922.68	3116
922.789	3074
922.898	3127
923.007	3085
923.116	3226
923.224	3173
923.333	3154
923.442	3077
923.55	3127
923.659	3150
923.767	3199
923.876	3089
923.984	3241
924.092	3097
924.201	3214
924.309	3218
924.417	3253
924.525	3226
924.633	3272
924.741	3998
924.849	3043
924.956	3279
925.064	3089
925.172	3074
925.279	3100
925.387	3180
925.494	3192
925.602	3332
925.709	3294
925.816	3199
925.924	3310
926.031	3389
926.138	3378
926.245	3363
926.352	3253
926.459	3405
926.566	3500
926.673	3313
926.779	3237
926.886	3260
926.993	3165
927.099	3142
927.206	3077
927.312	3138
927.419	3203
927.525	3195
927.631	3237
927.737	3142
927.843	3093
927.95	3058
928.056	3127
928.162	3161
928.267	3245
928.373	3720
928.479	3279
928.585	3077
928.69	3195
928.796	3294
928.901	3161
929.007	2998
929.112	3199
929.218	3150
929.323	3138
929.428	3150
929.533	3302
929.638	3135
929.743	3150
929.848	3253
929.953	3199
930.058	3165
930.163	3020
930.267	3116
930.372	3176
930.477	3032
930.581	3332
930.685	3195
930.79	3013
930.894	3112
930.998	3100
931.103	3287
931.207	2979
931.311	2944
931.415	2922
931.519	2773
931.623	2781
