Data from test_V78500241_2029.txt Node
Date: Fri Mar 25 16:29:15 CST 2022
User: usil
Spectrometer: V785-0024
Trigger mode: 0
Integration Time (sec): 4.000000E-1
Scans to average: 1
Nonlinearity correction enabled: false
Boxcar width: 0
Storing dark spectrum: false
XAxis mode: Wavelengths
Number of Pixels in Spectrum: 1024
>>>>>Begin Spectral Data<<<<<
801.071	2941
801.214	2979
801.356	2883
801.499	2933
801.641	2914
801.783	2922
801.926	3020
802.068	2971
802.211	3047
802.353	3062
802.496	2994
802.638	2994
802.78	3043
802.923	3127
803.065	3039
803.208	2925
803.35	2914
803.492	2948
803.635	2998
803.777	2800
803.919	2838
804.061	3203
804.204	2952
804.346	2902
804.488	2864
804.63	2994
804.773	2853
804.915	2914
805.057	3062
805.199	2933
805.341	2990
805.483	3039
805.626	3024
805.768	2998
805.91	3093
806.052	3104
806.194	3051
806.336	3199
806.478	3062
806.62	2967
806.762	2986
806.904	3039
807.046	3256
807.188	3001
807.33	2937
807.472	3005
807.614	2933
807.756	2998
807.898	2948
808.04	2918
808.182	3058
808.324	2952
808.465	2902
808.607	2868
808.749	2819
808.891	2887
809.033	2986
809.174	3009
809.316	2910
809.458	2918
809.6	2773
809.741	2785
809.883	2769
810.025	2807
810.166	2868
810.308	2861
810.45	2899
810.591	2788
810.733	2758
810.875	2853
811.016	2792
811.158	2781
811.299	2842
811.441	2944
811.582	2902
811.724	2842
811.865	2868
812.007	2914
812.148	2887
812.29	2842
812.431	2910
812.573	2948
812.714	2967
812.855	3032
812.997	3051
813.138	3161
813.279	3009
813.421	2990
813.562	2990
813.703	2899
813.845	2933
813.986	2777
814.127	2735
814.268	2861
814.41	2842
814.551	2819
814.692	2872
814.833	2826
814.974	2925
815.115	2967
815.256	2857
815.397	2845
815.539	2895
815.68	2769
815.821	2838
815.962	2922
816.103	2937
816.244	2891
816.385	2872
816.526	2990
816.666	2929
816.807	2777
816.948	2895
817.089	2944
817.23	2872
817.371	2785
817.512	2830
817.653	2891
817.793	2830
817.934	2861
818.075	2990
818.216	3001
818.356	3020
818.497	2906
818.638	2857
818.778	2819
818.919	2781
819.06	2804
819.2	2880
819.341	2826
819.481	2857
819.622	2967
819.762	3108
819.903	3070
820.043	2952
820.184	2941
820.324	2906
820.465	3005
820.605	3020
820.746	3066
820.886	2948
821.026	3131
821.167	3157
821.307	3260
821.447	3283
821.588	3279
821.728	3256
821.868	3222
822.008	3100
822.149	3188
822.289	3218
822.429	3097
822.569	3100
822.709	3195
822.849	3024
822.99	3066
823.13	3165
823.27	3214
823.41	3123
823.55	3173
823.69	3176
823.83	3241
823.97	3108
824.11	3017
824.25	3005
824.389	3093
824.529	3142
824.669	3077
824.809	3218
824.949	3256
825.089	3211
825.228	3176
825.368	3005
825.508	2971
825.648	2994
825.787	3013
825.927	3055
826.067	2994
826.206	3001
826.346	3047
826.485	3070
826.625	3127
826.765	3272
826.904	3237
827.044	2994
827.183	2975
827.323	2906
827.462	3001
827.601	2941
827.741	2937
827.88	2967
828.02	2883
828.159	2963
828.298	3043
828.437	3108
828.577	3085
828.716	3260
828.855	3097
828.994	2929
829.134	2902
829.273	2899
829.412	2895
829.551	2868
829.69	2922
829.829	2998
829.968	3116
830.107	3043
830.246	3043
830.385	2933
830.524	2902
830.663	2872
830.802	2701
830.941	2670
831.08	2648
831.219	2762
831.357	2758
831.496	2967
831.635	2720
831.774	2648
831.913	2663
832.051	2552
832.19	2621
832.329	2701
832.467	2560
832.606	2511
832.744	2602
832.883	2587
833.022	2613
833.16	2659
833.299	2708
833.437	2712
833.576	2731
833.714	2727
833.852	2731
833.991	2754
834.129	2849
834.267	2872
834.406	2815
834.544	2883
834.682	2891
834.821	2857
834.959	3070
835.097	2868
835.235	3100
835.373	2979
835.511	2975
835.65	2956
835.788	2956
835.926	2857
836.064	2823
836.202	2876
836.34	3104
836.478	3142
836.615	3032
836.753	3146
836.891	3237
837.029	3176
837.167	3108
837.305	3043
837.443	3051
837.58	2963
837.718	3138
837.856	3070
837.993	3039
838.131	3165
838.269	3108
838.406	3100
838.544	3104
838.681	2956
838.819	2883
838.956	2838
839.094	2830
839.231	2914
839.369	2990
839.506	3386
839.643	3211
839.781	3024
839.918	2967
840.055	3066
840.193	3047
840.33	3081
840.467	3123
840.604	3154
840.742	3439
840.879	3047
841.016	3081
841.153	3123
841.29	3310
841.427	3298
841.564	3287
841.701	3321
841.838	3268
841.975	3203
842.112	3180
842.249	3100
842.385	3001
842.522	3283
842.659	3097
842.796	3039
842.933	3116
843.069	3081
843.206	3066
843.343	3192
843.479	3123
843.616	3161
843.752	2906
843.889	2910
844.025	3093
844.162	2845
844.298	3131
844.435	2944
844.571	2895
844.708	3100
844.844	3192
844.98	3241
845.117	3226
845.253	3081
845.389	3020
845.525	3093
845.661	3123
845.798	3036
845.934	3131
846.07	3070
846.206	3237
846.342	3317
846.478	3249
846.614	3066
846.75	3051
846.886	3013
847.022	3241
847.158	3161
847.294	3222
847.429	3264
847.565	3184
847.701	3466
847.837	3020
847.972	2982
848.108	3150
848.244	3142
848.379	3013
848.515	2952
848.65	2944
848.786	2933
848.921	3001
849.057	3093
849.192	3138
849.328	3089
849.463	3154
849.598	3058
849.734	3043
849.869	3017
850.004	2914
850.14	2975
850.275	2937
850.41	2887
850.545	2899
850.68	2960
850.815	2952
850.95	3051
851.085	3233
851.22	3180
851.355	3051
851.49	3047
851.625	3020
851.76	3020
851.895	2986
852.03	2922
852.165	3097
852.299	3157
852.434	3192
852.569	3195
852.703	3222
852.838	3245
852.973	3336
853.107	3370
853.242	3188
853.376	3154
853.511	3005
853.645	3062
853.78	3260
853.914	3131
854.048	3142
854.183	3097
854.317	3192
854.451	3332
854.585	3188
854.72	3119
854.854	3253
854.988	3062
855.122	3127
855.256	3024
855.39	3135
855.524	3253
855.658	3207
855.792	3192
855.926	3230
856.06	3249
856.194	3340
856.327	3199
856.461	3161
856.595	3104
856.729	3116
856.862	3253
856.996	3161
857.13	3233
857.263	3237
857.397	3313
857.53	3169
857.664	3249
857.797	3245
857.931	3275
858.064	3176
858.197	3279
858.331	3188
858.464	3138
858.597	3043
858.731	3150
858.864	3192
858.997	3123
859.13	3161
859.263	3199
859.396	3241
859.529	3135
859.662	3116
859.795	3077
859.928	3180
860.061	3344
860.194	3313
860.327	3192
860.46	3108
860.592	3275
860.725	3268
860.858	3256
860.99	3157
861.123	3062
861.256	3085
861.388	3173
861.521	3876
861.653	3058
861.786	3009
861.918	3032
862.05	3142
862.183	3173
862.315	3157
862.447	3226
862.58	3154
862.712	2979
862.844	2910
862.976	3032
863.108	3020
863.24	3321
863.372	2922
863.504	3001
863.636	2967
863.768	3097
863.9	3024
864.032	2937
864.164	2990
864.296	3039
864.428	3142
864.559	3127
864.691	3097
864.823	3047
864.954	3077
865.086	3074
865.217	3036
865.349	2937
865.48	2986
865.612	3070
865.743	3154
865.875	3013
866.006	2960
866.137	2986
866.269	2994
866.4	3024
866.531	2914
866.662	2937
866.793	2902
866.924	2944
867.055	3017
867.186	2941
867.317	2941
867.448	2830
867.579	2883
867.71	2872
867.841	2864
867.972	2883
868.103	2948
868.233	2891
868.364	2895
868.495	2948
868.625	3093
868.756	3188
868.886	2994
869.017	3081
869.147	3165
869.278	3218
869.408	3093
869.539	3055
869.669	3142
869.799	3051
869.929	3192
870.06	3173
870.19	3336
870.32	3287
870.45	3340
870.58	3439
870.71	3504
870.84	3477
870.97	3325
871.1	3279
871.23	3492
871.36	3485
871.489	3401
871.619	3439
871.749	3450
871.879	3458
872.008	3515
872.138	3378
872.267	3348
872.397	3199
872.526	3123
872.656	3032
872.785	3131
872.915	3294
873.044	3351
873.173	3222
873.303	3268
873.432	3283
873.561	3268
873.69	3184
873.819	3176
873.948	3222
874.077	3131
874.206	3077
874.335	3123
874.464	3214
874.593	3405
874.722	3283
874.851	3378
874.979	3401
875.108	3359
875.237	3233
875.365	3173
875.494	3218
875.623	3294
875.751	3112
875.88	3165
876.008	3188
876.136	3237
876.265	3412
876.393	3507
876.521	3439
876.65	3435
876.778	3359
876.906	3310
877.034	3226
877.162	3275
877.29	3203
877.418	3287
877.546	3283
877.674	3283
877.802	3253
877.93	3237
878.058	3154
878.185	3169
878.313	3283
878.441	3226
878.568	3100
878.696	3199
878.824	3298
878.951	3321
879.079	3523
879.206	3637
879.333	3439
879.461	3405
879.588	3405
879.715	3504
879.842	3599
879.97	3458
880.097	3173
880.224	3146
880.351	3203
880.478	3245
880.605	3241
880.732	3237
880.859	3538
880.986	3310
881.112	3344
881.239	3214
881.366	3112
881.493	3085
881.619	3051
881.746	3100
881.872	3131
881.999	3135
882.125	3207
882.252	3275
882.378	3348
882.505	3462
882.631	3321
882.757	3180
882.883	3226
883.01	3237
883.136	3169
883.262	3112
883.388	3165
883.514	3313
883.64	3397
883.766	3317
883.892	3207
884.018	3294
884.143	3447
884.269	3534
884.395	3260
884.52	3226
884.646	3184
884.772	3157
884.897	3176
885.023	3226
885.148	3332
885.274	3439
885.399	3401
885.524	3306
885.65	3268
885.775	3336
885.9	3306
886.025	3454
886.15	3378
886.275	3313
886.4	3268
886.525	3325
886.65	3302
886.775	3268
886.9	3507
887.025	3637
887.149	3450
887.274	3298
887.399	3211
887.523	3237
887.648	3211
887.773	3184
887.897	3409
888.021	3439
888.146	3378
888.27	3462
888.395	3553
888.519	3458
888.643	3500
888.767	3538
888.891	3340
889.015	3218
889.139	3325
889.263	3237
889.387	3401
889.511	3549
889.635	3443
889.759	3332
889.883	3313
890.006	3382
890.13	3500
890.254	3291
890.377	3348
890.501	3214
890.624	3195
890.748	3313
890.871	3203
890.995	3116
891.118	3074
891.241	3245
891.364	3260
891.488	3325
891.611	3188
891.734	3253
891.857	3298
891.98	3245
892.103	3355
892.226	3287
892.349	3207
892.471	3142
892.594	3230
892.717	3348
892.839	3275
892.962	3310
893.085	3378
893.207	3359
893.33	3154
893.452	3241
893.575	3386
893.697	3268
893.819	3462
893.941	3515
894.064	3447
894.186	3272
894.308	3272
894.43	3511
894.552	3534
894.674	3473
894.796	3283
894.918	3321
895.04	3351
895.161	3435
895.283	3424
895.405	3283
895.526	3435
895.648	3393
895.769	3473
895.891	3500
896.012	3530
896.134	3466
896.255	3412
896.376	3412
896.498	3355
896.619	3447
896.74	3386
896.861	3424
896.982	3713
897.103	3880
897.224	3587
897.345	3523
897.466	3450
897.587	3519
897.708	3629
897.828	3561
897.949	3477
898.07	3355
898.19	3424
898.311	3595
898.431	3473
898.552	3523
898.672	3576
898.792	3633
898.913	3538
899.033	3424
899.153	3302
899.273	3222
899.393	3287
899.513	3367
899.633	3306
899.753	3325
899.873	3306
899.993	3420
900.113	3344
900.232	3409
900.352	3363
900.472	3340
900.591	3241
900.711	3321
900.83	3272
900.95	3420
901.069	3492
901.189	3370
901.308	3203
901.427	3123
901.546	3241
901.665	3298
901.784	3313
901.904	3203
902.023	3165
902.141	3047
902.26	2990
902.379	3169
902.498	3081
902.617	3070
902.735	3241
902.854	3245
902.973	3226
903.091	3058
903.21	3108
903.328	3165
903.446	3150
903.565	3093
903.683	3226
903.801	3142
903.919	3264
904.038	3298
904.156	3173
904.274	3268
904.392	3275
904.51	3340
904.627	3336
904.745	3439
904.863	3523
904.981	3298
905.098	3226
905.216	3253
905.334	3291
905.451	3298
905.569	3340
905.686	3424
905.803	3462
905.921	3298
906.038	3454
906.155	3389
906.272	3287
906.389	3401
906.506	3260
906.623	3283
906.74	3275
906.857	3211
906.974	3279
907.091	3450
907.208	3599
907.324	3488
907.441	3420
907.557	3233
907.674	3279
907.79	3249
907.907	3279
908.023	3378
908.139	3367
908.256	3355
908.372	3435
908.488	3382
908.604	3272
908.72	3237
908.836	3287
908.952	3329
909.068	3340
909.184	3515
909.3	3397
909.415	3511
909.531	3496
909.647	3294
909.762	3298
909.878	3294
909.993	3370
910.108	3359
910.224	3317
910.339	3469
910.454	3363
910.57	3306
910.685	3302
910.8	3595
910.915	3542
911.03	3439
911.145	3283
911.259	3260
911.374	3336
911.489	3237
911.604	3253
911.718	3135
911.833	3161
911.947	3058
912.062	2963
912.176	3173
912.291	3173
912.405	3279
912.519	3389
912.633	3450
912.748	3344
912.862	3279
912.976	3199
913.09	3070
913.204	3161
913.318	3218
913.431	3344
913.545	3378
913.659	3382
913.772	3329
913.886	3256
914	3199
914.113	3382
914.226	3420
914.34	3378
914.453	3260
914.566	3435
914.68	3310
914.793	3283
914.906	3169
915.019	3138
915.132	3058
915.245	3176
915.358	3199
915.47	3226
915.583	3264
915.696	3302
915.809	3416
915.921	3397
916.034	3237
916.146	3249
916.259	3253
916.371	3386
916.483	3374
916.595	3310
916.708	3325
916.82	3340
916.932	3336
917.044	3367
917.156	3363
917.268	3256
917.38	3336
917.491	3272
917.603	3351
917.715	3485
917.826	3473
917.938	3424
918.049	3287
918.161	3412
918.272	3561
918.384	3625
918.495	3462
918.606	3355
918.717	3279
918.828	3420
918.939	3412
919.05	3283
919.161	3378
919.272	3211
919.383	3302
919.494	3523
919.604	3724
919.715	3477
919.826	3389
919.936	3469
920.047	3595
920.157	3564
920.267	3766
920.378	3572
920.488	3584
920.598	3797
920.708	3922
920.818	3838
920.928	3857
921.038	4032
921.148	4029
921.258	3720
921.368	3641
921.477	3553
921.587	3561
921.697	3443
921.806	3648
921.916	3542
922.025	3378
922.134	3401
922.244	3351
922.353	3439
922.462	3279
922.571	3245
922.68	3142
922.789	3100
922.898	3135
923.007	3093
923.116	3207
923.224	3169
923.333	3192
923.442	3116
923.55	3108
923.659	3157
923.767	3241
923.876	3116
923.984	3222
924.092	3123
924.201	3188
924.309	3230
924.417	3294
924.525	3195
924.633	3207
924.741	4173
924.849	3058
924.956	3287
925.064	3100
925.172	3074
925.279	3138
925.387	3146
925.494	3245
925.602	3370
925.709	3351
925.816	3184
925.924	3275
926.031	3393
926.138	3351
926.245	3370
926.352	3264
926.459	3401
926.566	3507
926.673	3310
926.779	3268
926.886	3237
926.993	3108
927.099	3127
927.206	3104
927.312	3112
927.419	3272
927.525	3192
927.631	3291
927.737	3169
927.843	3138
927.95	3039
928.056	3138
928.162	3188
928.267	3275
928.373	3854
928.479	3310
928.585	3089
928.69	3245
928.796	3287
928.901	3157
929.007	3055
929.112	3203
929.218	3192
929.323	3176
929.428	3146
929.533	3310
929.638	3150
929.743	3188
929.848	3272
929.953	3211
930.058	3112
930.163	3005
930.267	3043
930.372	3222
930.477	3039
930.581	3332
930.685	3184
930.79	3047
930.894	3142
930.998	3089
931.103	3283
931.207	2914
931.311	2922
931.415	2948
931.519	2807
931.623	2838
