Data from test_V78500241_1925.txt Node
Date: Fri Mar 25 16:28:32 CST 2022
User: usil
Spectrometer: V785-0024
Trigger mode: 0
Integration Time (sec): 4.000000E-1
Scans to average: 1
Nonlinearity correction enabled: false
Boxcar width: 0
Storing dark spectrum: false
XAxis mode: Wavelengths
Number of Pixels in Spectrum: 1024
>>>>>Begin Spectral Data<<<<<
801.071	2925
801.214	2937
801.356	2868
801.499	2864
801.641	2861
801.783	2910
801.926	3020
802.068	2994
802.211	2971
802.353	3032
802.496	2956
802.638	2994
802.78	3047
802.923	3036
803.065	2986
803.208	2887
803.35	2952
803.492	2906
803.635	2910
803.777	2712
803.919	2849
804.061	3176
804.204	2944
804.346	2902
804.488	2823
804.63	2998
804.773	2876
804.915	2899
805.057	3058
805.199	2918
805.341	2998
805.483	3005
805.626	3009
805.768	2937
805.91	3104
806.052	3093
806.194	3009
806.336	3195
806.478	3047
806.62	2944
806.762	2952
806.904	3032
807.046	3165
807.188	2975
807.33	2899
807.472	2994
807.614	2880
807.756	2971
807.898	2925
808.04	2883
808.182	2960
808.324	2941
808.465	2914
808.607	2861
808.749	2800
808.891	2838
809.033	2952
809.174	2975
809.316	2914
809.458	2861
809.6	2769
809.741	2754
809.883	2769
810.025	2849
810.166	2876
810.308	2819
810.45	2842
810.591	2773
810.733	2792
810.875	2811
811.016	2754
811.158	2731
811.299	2804
811.441	2929
811.582	2895
811.724	2834
811.865	2819
812.007	2918
812.148	2891
812.29	2849
812.431	2906
812.573	2956
812.714	2994
812.855	3058
812.997	3032
813.138	3123
813.279	3009
813.421	2967
813.562	2960
813.703	2861
813.845	2880
813.986	2792
814.127	2720
814.268	2834
814.41	2838
814.551	2792
814.692	2872
814.833	2807
814.974	2891
815.115	2960
815.256	2826
815.397	2785
815.539	2826
815.68	2777
815.821	2796
815.962	2941
816.103	2933
816.244	2887
816.385	2914
816.526	2982
816.666	2925
816.807	2777
816.948	2899
817.089	2895
817.23	2857
817.371	2754
817.512	2781
817.653	2815
817.793	2796
817.934	2902
818.075	2933
818.216	2982
818.356	3051
818.497	2880
818.638	2804
818.778	2842
818.919	2781
819.06	2754
819.2	2834
819.341	2785
819.481	2766
819.622	2922
819.762	3108
819.903	3039
820.043	2914
820.184	2895
820.324	2876
820.465	2982
820.605	3039
820.746	3005
820.886	2952
821.026	3077
821.167	3142
821.307	3260
821.447	3268
821.588	3222
821.728	3237
821.868	3192
822.008	3062
822.149	3222
822.289	3184
822.429	3089
822.569	3051
822.709	3207
822.849	3024
822.99	3043
823.13	3146
823.27	3207
823.41	3116
823.55	3112
823.69	3173
823.83	3199
823.97	3066
824.11	3009
824.25	2975
824.389	3058
824.529	3074
824.669	3085
824.809	3154
824.949	3222
825.089	3214
825.228	3157
825.368	2990
825.508	2929
825.648	2948
825.787	2994
825.927	3028
826.067	2952
826.206	2929
826.346	3047
826.485	3036
826.625	3097
826.765	3268
826.904	3211
827.044	2960
827.183	2967
827.323	2857
827.462	3013
827.601	2948
827.741	2910
827.88	2975
828.02	2861
828.159	2967
828.298	2986
828.437	3131
828.577	3024
828.716	3245
828.855	3097
828.994	2941
829.134	2876
829.273	2922
829.412	2838
829.551	2823
829.69	2910
829.829	2994
829.968	3104
830.107	3001
830.246	2990
830.385	2918
830.524	2899
830.663	2834
830.802	2705
830.941	2629
831.08	2632
831.219	2743
831.357	2724
831.496	2967
831.635	2712
831.774	2674
831.913	2644
832.051	2522
832.19	2590
832.329	2663
832.467	2549
832.606	2492
832.744	2552
832.883	2613
833.022	2590
833.16	2674
833.299	2686
833.437	2689
833.576	2682
833.714	2739
833.852	2701
833.991	2762
834.129	2849
834.267	2819
834.406	2769
834.544	2845
834.682	2849
834.821	2883
834.959	3055
835.097	2864
835.235	3047
835.373	3017
835.511	3013
835.65	2922
835.788	2899
835.926	2861
836.064	2823
836.202	2842
836.34	3062
836.478	3157
836.615	3036
836.753	3138
836.891	3195
837.029	3157
837.167	3119
837.305	3055
837.443	2971
837.58	2929
837.718	3100
837.856	3085
837.993	3024
838.131	3169
838.269	3119
838.406	3074
838.544	3047
838.681	2929
838.819	2929
838.956	2823
839.094	2819
839.231	2891
839.369	2975
839.506	3355
839.643	3226
839.781	3032
839.918	2952
840.055	3028
840.193	3028
840.33	3055
840.467	3070
840.604	3142
840.742	3389
840.879	3013
841.016	2998
841.153	3127
841.29	3306
841.427	3355
841.564	3287
841.701	3279
841.838	3195
841.975	3176
842.112	3203
842.249	3062
842.385	3058
842.522	3275
842.659	3070
842.796	3081
842.933	3077
843.069	3032
843.206	3066
843.343	3199
843.479	3112
843.616	3138
843.752	2899
843.889	2887
844.025	3055
844.162	2906
844.298	3047
844.435	2933
844.571	2922
844.708	3066
844.844	3176
844.98	3241
845.117	3211
845.253	3036
845.389	3028
845.525	3093
845.661	3116
845.798	3020
845.934	3131
846.07	3043
846.206	3180
846.342	3313
846.478	3188
846.614	3089
846.75	3024
846.886	2998
847.022	3214
847.158	3135
847.294	3173
847.429	3256
847.565	3207
847.701	3477
847.837	3051
847.972	3013
848.108	3154
848.244	3142
848.379	2963
848.515	2891
848.65	2910
848.786	2952
848.921	2986
849.057	3131
849.192	3131
849.328	3081
849.463	3085
849.598	3058
849.734	3039
849.869	3001
850.004	2899
850.14	2979
850.275	2902
850.41	2857
850.545	2902
850.68	2979
850.815	2952
850.95	2971
851.085	3211
851.22	3093
851.355	3020
851.49	2975
851.625	2998
851.76	3005
851.895	2895
852.03	2929
852.165	3066
852.299	3055
852.434	3157
852.569	3127
852.703	3154
852.838	3203
852.973	3310
853.107	3340
853.242	3146
853.376	3070
853.511	2929
853.645	3036
853.78	3214
853.914	3116
854.048	3104
854.183	3116
854.317	3108
854.451	3298
854.585	3119
854.72	3089
854.854	3199
854.988	3024
855.122	3116
855.256	2967
855.39	3123
855.524	3226
855.658	3199
855.792	3135
855.926	3169
856.06	3207
856.194	3237
856.327	3150
856.461	3043
856.595	3055
856.729	3089
856.862	3241
856.996	3127
857.13	3211
857.263	3188
857.397	3249
857.53	3116
857.664	3192
857.797	3230
857.931	3298
858.064	3157
858.197	3222
858.331	3146
858.464	3108
858.597	2998
858.731	3089
858.864	3108
858.997	3074
859.13	3184
859.263	3184
859.396	3180
859.529	3047
859.662	3047
859.795	3036
859.928	3119
860.061	3245
860.194	3272
860.327	3138
860.46	3070
860.592	3260
860.725	3237
860.858	3237
860.99	3131
861.123	3032
861.256	2975
861.388	3161
861.521	3835
861.653	3005
861.786	2975
861.918	2982
862.05	3055
862.183	3112
862.315	3131
862.447	3207
862.58	3108
862.712	2960
862.844	2876
862.976	3005
863.108	3028
863.24	3302
863.372	2887
863.504	2952
863.636	2914
863.768	3047
863.9	2975
864.032	2891
864.164	2929
864.296	2975
864.428	3055
864.559	3089
864.691	3066
864.823	3020
864.954	3017
865.086	3024
865.217	2986
865.349	2910
865.48	2941
865.612	2998
865.743	3161
865.875	2971
866.006	2986
866.137	2960
866.269	2963
866.4	2948
866.531	2902
866.662	2857
866.793	2910
866.924	2933
867.055	2944
867.186	2925
867.317	2895
867.448	2834
867.579	2857
867.71	2902
867.841	2807
867.972	2891
868.103	2880
868.233	2876
868.364	2876
868.495	2899
868.625	3066
868.756	3169
868.886	2979
869.017	3009
869.147	3165
869.278	3184
869.408	3036
869.539	3032
869.669	3085
869.799	3009
869.929	3146
870.06	3089
870.19	3355
870.32	3287
870.45	3279
870.58	3367
870.71	3458
870.84	3439
870.97	3272
871.1	3253
871.23	3458
871.36	3454
871.489	3389
871.619	3367
871.749	3409
871.879	3443
872.008	3500
872.138	3378
872.267	3279
872.397	3119
872.526	3089
872.656	3013
872.785	3093
872.915	3203
873.044	3298
873.173	3218
873.303	3245
873.432	3214
873.561	3237
873.69	3154
873.819	3146
873.948	3207
874.077	3074
874.206	3036
874.335	3074
874.464	3199
874.593	3332
874.722	3218
874.851	3351
874.979	3340
875.108	3306
875.237	3169
875.365	3161
875.494	3188
875.623	3230
875.751	3036
875.88	3100
876.008	3173
876.136	3268
876.265	3340
876.393	3515
876.521	3359
876.65	3378
876.778	3355
876.906	3249
877.034	3192
877.162	3237
877.29	3188
877.418	3287
877.546	3226
877.674	3211
877.802	3222
877.93	3203
878.058	3104
878.185	3116
878.313	3222
878.441	3195
878.568	3039
878.696	3135
878.824	3245
878.951	3283
879.079	3447
879.206	3595
879.333	3462
879.461	3313
879.588	3351
879.715	3500
879.842	3595
879.97	3359
880.097	3157
880.224	3169
880.351	3192
880.478	3222
880.605	3188
880.732	3195
880.859	3477
880.986	3351
881.112	3363
881.239	3180
881.366	3108
881.493	3009
881.619	3001
881.746	3089
881.872	3100
881.999	3074
882.125	3195
882.252	3222
882.378	3272
882.505	3454
882.631	3275
882.757	3138
882.883	3203
883.01	3195
883.136	3173
883.262	3097
883.388	3123
883.514	3279
883.64	3332
883.766	3317
883.892	3165
884.018	3218
884.143	3428
884.269	3534
884.395	3207
884.52	3142
884.646	3176
884.772	3138
884.897	3108
885.023	3237
885.148	3336
885.274	3428
885.399	3367
885.524	3306
885.65	3268
885.775	3294
885.9	3249
886.025	3428
886.15	3363
886.275	3344
886.4	3218
886.525	3298
886.65	3260
886.775	3237
886.9	3496
887.025	3603
887.149	3401
887.274	3272
887.399	3195
887.523	3199
887.648	3169
887.773	3146
887.897	3374
888.021	3420
888.146	3310
888.27	3428
888.395	3538
888.519	3435
888.643	3405
888.767	3416
888.891	3317
889.015	3207
889.139	3294
889.263	3230
889.387	3428
889.511	3515
889.635	3469
889.759	3306
889.883	3325
890.006	3348
890.13	3462
890.254	3241
890.377	3367
890.501	3218
890.624	3195
890.748	3272
890.871	3127
890.995	3138
891.118	3070
891.241	3195
891.364	3256
891.488	3310
891.611	3116
891.734	3192
891.857	3275
891.98	3256
892.103	3310
892.226	3298
892.349	3203
892.471	3074
892.594	3192
892.717	3302
892.839	3264
892.962	3275
893.085	3363
893.207	3306
893.33	3127
893.452	3230
893.575	3317
893.697	3256
893.819	3424
893.941	3481
894.064	3428
894.186	3260
894.308	3260
894.43	3447
894.552	3504
894.674	3439
894.796	3294
894.918	3298
895.04	3279
895.161	3439
895.283	3325
895.405	3283
895.526	3389
895.648	3443
895.769	3447
895.891	3485
896.012	3420
896.134	3466
896.255	3435
896.376	3412
896.498	3355
896.619	3424
896.74	3393
896.861	3393
896.982	3660
897.103	3846
897.224	3572
897.345	3488
897.466	3431
897.587	3511
897.708	3641
897.828	3515
897.949	3428
898.07	3348
898.19	3409
898.311	3633
898.431	3393
898.552	3526
898.672	3614
898.792	3580
898.913	3500
899.033	3424
899.153	3321
899.273	3249
899.393	3283
899.513	3340
899.633	3279
899.753	3313
899.873	3306
899.993	3393
900.113	3317
900.232	3397
900.352	3321
900.472	3313
900.591	3184
900.711	3313
900.83	3283
900.95	3382
901.069	3469
901.189	3344
901.308	3195
901.427	3097
901.546	3211
901.665	3283
901.784	3279
901.904	3214
902.023	3127
902.141	2990
902.26	3001
902.379	3150
902.498	3055
902.617	3051
902.735	3176
902.854	3211
902.973	3203
903.091	3001
903.21	3047
903.328	3169
903.446	3108
903.565	3089
903.683	3195
903.801	3100
903.919	3233
904.038	3291
904.156	3176
904.274	3283
904.392	3237
904.51	3268
904.627	3302
904.745	3435
904.863	3485
904.981	3241
905.098	3195
905.216	3218
905.334	3260
905.451	3279
905.569	3275
905.686	3420
905.803	3458
905.921	3325
906.038	3367
906.155	3332
906.272	3264
906.389	3332
906.506	3241
906.623	3245
906.74	3283
906.857	3188
906.974	3264
907.091	3431
907.208	3584
907.324	3466
907.441	3340
907.557	3195
907.674	3237
907.79	3226
907.907	3264
908.023	3336
908.139	3378
908.256	3325
908.372	3382
908.488	3359
908.604	3256
908.72	3260
908.836	3279
908.952	3256
909.068	3302
909.184	3492
909.3	3370
909.415	3492
909.531	3473
909.647	3268
909.762	3313
909.878	3264
909.993	3363
910.108	3306
910.224	3378
910.339	3397
910.454	3317
910.57	3313
910.685	3249
910.8	3568
910.915	3519
911.03	3401
911.145	3279
911.259	3253
911.374	3302
911.489	3233
911.604	3283
911.718	3104
911.833	3127
911.947	2982
912.062	3020
912.176	3176
912.291	3199
912.405	3222
912.519	3428
912.633	3443
912.748	3355
912.862	3275
912.976	3184
913.09	3058
913.204	3135
913.318	3226
913.431	3321
913.545	3348
913.659	3424
913.772	3348
913.886	3188
914	3222
914.113	3367
914.226	3370
914.34	3386
914.453	3203
914.566	3374
914.68	3275
914.793	3260
914.906	3154
915.019	3127
915.132	3036
915.245	3157
915.358	3199
915.47	3199
915.583	3245
915.696	3272
915.809	3378
915.921	3428
916.034	3226
916.146	3241
916.259	3169
916.371	3378
916.483	3332
916.595	3260
916.708	3291
916.82	3302
916.932	3367
917.044	3306
917.156	3325
917.268	3253
917.38	3272
917.491	3287
917.603	3344
917.715	3454
917.826	3424
917.938	3336
918.049	3264
918.161	3382
918.272	3564
918.384	3530
918.495	3473
918.606	3348
918.717	3268
918.828	3359
918.939	3412
919.05	3294
919.161	3359
919.272	3138
919.383	3268
919.494	3485
919.604	3671
919.715	3420
919.826	3348
919.936	3469
920.047	3603
920.157	3553
920.267	3785
920.378	3603
920.488	3576
920.598	3751
920.708	3941
920.818	3797
920.928	3838
921.038	3979
921.148	4017
921.258	3743
921.368	3606
921.477	3572
921.587	3504
921.697	3458
921.806	3648
921.916	3511
922.025	3348
922.134	3329
922.244	3336
922.353	3405
922.462	3260
922.571	3260
922.68	3097
922.789	3089
922.898	3161
923.007	3100
923.116	3199
923.224	3173
923.333	3188
923.442	3112
923.55	3077
923.659	3154
923.767	3226
923.876	3157
923.984	3230
924.092	3131
924.201	3195
924.309	3260
924.417	3230
924.525	3211
924.633	3253
924.741	4207
924.849	3043
924.956	3287
925.064	3100
925.172	3077
925.279	3112
925.387	3218
925.494	3237
925.602	3393
925.709	3348
925.816	3222
925.924	3306
926.031	3405
926.138	3355
926.245	3416
926.352	3332
926.459	3458
926.566	3488
926.673	3348
926.779	3260
926.886	3294
926.993	3161
927.099	3184
927.206	3184
927.312	3169
927.419	3272
927.525	3260
927.631	3287
927.737	3192
927.843	3135
927.95	3051
928.056	3173
928.162	3195
928.267	3306
928.373	3903
928.479	3336
928.585	3116
928.69	3287
928.796	3313
928.901	3211
929.007	3104
929.112	3249
929.218	3211
929.323	3180
929.428	3211
929.533	3389
929.638	3142
929.743	3173
929.848	3241
929.953	3245
930.058	3199
930.163	3051
930.267	3100
930.372	3226
930.477	3085
930.581	3370
930.685	3173
930.79	3097
930.894	3184
930.998	3131
931.103	3306
931.207	2963
931.311	2956
931.415	2937
931.519	2819
931.623	2872
