Data from test_V78500241_896.txt Node
Date: Fri Mar 25 16:21:24 CST 2022
User: usil
Spectrometer: V785-0024
Trigger mode: 0
Integration Time (sec): 4.000000E-1
Scans to average: 1
Nonlinearity correction enabled: false
Boxcar width: 0
Storing dark spectrum: false
XAxis mode: Wavelengths
Number of Pixels in Spectrum: 1024
>>>>>Begin Spectral Data<<<<<
801.071	2902
801.214	2925
801.356	2887
801.499	2910
801.641	2864
801.783	2906
801.926	3043
802.068	3001
802.211	2975
802.353	3047
802.496	2937
802.638	3005
802.78	3062
802.923	3081
803.065	2986
803.208	2887
803.35	2937
803.492	2929
803.635	2914
803.777	2754
803.919	2842
804.061	3180
804.204	2922
804.346	2872
804.488	2872
804.63	2998
804.773	2853
804.915	2922
805.057	3085
805.199	2925
805.341	2990
805.483	2986
805.626	2971
805.768	2933
805.91	3058
806.052	3131
806.194	3024
806.336	3249
806.478	3039
806.62	2941
806.762	2963
806.904	3081
807.046	3142
807.188	2975
807.33	2914
807.472	3001
807.614	2902
807.756	2956
807.898	2941
808.04	2872
808.182	3005
808.324	2941
808.465	2853
808.607	2849
808.749	2781
808.891	2830
809.033	2963
809.174	2963
809.316	2872
809.458	2883
809.6	2826
809.741	2750
809.883	2750
810.025	2880
810.166	2868
810.308	2823
810.45	2849
810.591	2773
810.733	2735
810.875	2845
811.016	2754
811.158	2769
811.299	2807
811.441	2963
811.582	2872
811.724	2819
811.865	2819
812.007	2891
812.148	2883
812.29	2830
812.431	2864
812.573	2872
812.714	2956
812.855	3036
812.997	3043
813.138	3119
813.279	2990
813.421	2979
813.562	2979
813.703	2872
813.845	2861
813.986	2792
814.127	2750
814.268	2815
814.41	2815
814.551	2804
814.692	2838
814.833	2811
814.974	2891
815.115	2944
815.256	2826
815.397	2792
815.539	2853
815.68	2758
815.821	2811
815.962	2944
816.103	2899
816.244	2880
816.385	2876
816.526	2971
816.666	2906
816.807	2758
816.948	2880
817.089	2872
817.23	2830
817.371	2796
817.512	2769
817.653	2838
817.793	2788
817.934	2895
818.075	2918
818.216	2982
818.356	3020
818.497	2864
818.638	2800
818.778	2845
818.919	2807
819.06	2785
819.2	2880
819.341	2815
819.481	2766
819.622	2914
819.762	3085
819.903	3013
820.043	2933
820.184	2883
820.324	2906
820.465	2990
820.605	3013
820.746	3039
820.886	2922
821.026	3142
821.167	3173
821.307	3256
821.447	3260
821.588	3218
821.728	3195
821.868	3192
822.008	3066
822.149	3203
822.289	3199
822.429	3047
822.569	3077
822.709	3176
822.849	3009
822.99	3017
823.13	3165
823.27	3203
823.41	3058
823.55	3146
823.69	3157
823.83	3203
823.97	3119
824.11	2960
824.25	2990
824.389	3036
824.529	3089
824.669	3085
824.809	3169
824.949	3249
825.089	3218
825.228	3157
825.368	3005
825.508	2933
825.648	2948
825.787	3051
825.927	3009
826.067	2982
826.206	2971
826.346	3058
826.485	3074
826.625	3097
826.765	3256
826.904	3199
827.044	2986
827.183	2941
827.323	2838
827.462	2986
827.601	2895
827.741	2910
827.88	2979
828.02	2868
828.159	2986
828.298	3058
828.437	3100
828.577	3013
828.716	3264
828.855	3058
828.994	2906
829.134	2872
829.273	2948
829.412	2880
829.551	2895
829.69	2883
829.829	2975
829.968	3123
830.107	2982
830.246	2982
830.385	2944
830.524	2891
830.663	2800
830.802	2693
830.941	2636
831.08	2651
831.219	2746
831.357	2773
831.496	2948
831.635	2731
831.774	2617
831.913	2640
832.051	2552
832.19	2552
832.329	2674
832.467	2514
832.606	2492
832.744	2541
832.883	2598
833.022	2587
833.16	2617
833.299	2678
833.437	2693
833.576	2682
833.714	2701
833.852	2724
833.991	2777
834.129	2811
834.267	2819
834.406	2769
834.544	2910
834.682	2857
834.821	2857
834.959	3009
835.097	2868
835.235	3058
835.373	3001
835.511	3013
835.65	2933
835.788	2941
835.926	2807
836.064	2811
836.202	2800
836.34	3062
836.478	3138
836.615	3039
836.753	3127
836.891	3169
837.029	3180
837.167	3142
837.305	3047
837.443	3005
837.58	2933
837.718	3146
837.856	3085
837.993	3005
838.131	3112
838.269	3081
838.406	3112
838.544	3074
838.681	2925
838.819	2880
838.956	2804
839.094	2830
839.231	2937
839.369	3043
839.506	3355
839.643	3207
839.781	2990
839.918	2963
840.055	3047
840.193	3020
840.33	3062
840.467	3028
840.604	3146
840.742	3393
840.879	3051
841.016	3058
841.153	3138
841.29	3340
841.427	3325
841.564	3237
841.701	3287
841.838	3264
841.975	3146
842.112	3218
842.249	3081
842.385	3024
842.522	3207
842.659	3100
842.796	3074
842.933	3089
843.069	3062
843.206	3024
843.343	3188
843.479	3127
843.616	3127
843.752	2883
843.889	2864
844.025	3070
844.162	2906
844.298	3070
844.435	2948
844.571	2895
844.708	3055
844.844	3180
844.98	3184
845.117	3218
845.253	3039
845.389	2994
845.525	3112
845.661	3058
845.798	2979
845.934	3138
846.07	3066
846.206	3184
846.342	3310
846.478	3230
846.614	3074
846.75	3028
846.886	3024
847.022	3203
847.158	3150
847.294	3188
847.429	3233
847.565	3199
847.701	3481
847.837	3024
847.972	2990
848.108	3135
848.244	3127
848.379	2971
848.515	2922
848.65	2933
848.786	2918
848.921	2963
849.057	3100
849.192	3127
849.328	3066
849.463	3100
849.598	3085
849.734	3070
849.869	2971
850.004	2933
850.14	2982
850.275	2937
850.41	2826
850.545	2880
850.68	2925
850.815	2937
850.95	2952
851.085	3165
851.22	3119
851.355	3028
851.49	2990
851.625	3009
851.76	3028
851.895	2944
852.03	2895
852.165	3028
852.299	3089
852.434	3192
852.569	3165
852.703	3169
852.838	3207
852.973	3325
853.107	3351
853.242	3131
853.376	3093
853.511	2982
853.645	3036
853.78	3199
853.914	3127
854.048	3119
854.183	3055
854.317	3116
854.451	3279
854.585	3116
854.72	3066
854.854	3233
854.988	3017
855.122	3100
855.256	2929
855.39	3127
855.524	3245
855.658	3131
855.792	3157
855.926	3169
856.06	3199
856.194	3268
856.327	3119
856.461	3039
856.595	3104
856.729	3062
856.862	3192
856.996	3127
857.13	3188
857.263	3203
857.397	3283
857.53	3127
857.664	3218
857.797	3233
857.931	3275
858.064	3150
858.197	3207
858.331	3100
858.464	3108
858.597	3005
858.731	3119
858.864	3108
858.997	3100
859.13	3176
859.263	3184
859.396	3165
859.529	3089
859.662	3032
859.795	3043
859.928	3135
860.061	3249
860.194	3279
860.327	3127
860.46	3100
860.592	3226
860.725	3222
860.858	3207
860.99	3108
861.123	3077
861.256	3058
861.388	3138
861.521	3808
861.653	3020
861.786	2986
861.918	3001
862.05	3043
862.183	3066
862.315	3116
862.447	3192
862.58	3100
862.712	2944
862.844	2868
862.976	3032
863.108	2998
863.24	3298
863.372	2834
863.504	2971
863.636	2952
863.768	3005
863.9	2998
864.032	2933
864.164	2960
864.296	2982
864.428	3097
864.559	3093
864.691	3062
864.823	3051
864.954	3024
865.086	3047
865.217	3055
865.349	2929
865.48	2963
865.612	2998
865.743	3142
865.875	3001
866.006	2937
866.137	2982
866.269	2956
866.4	2883
866.531	2937
866.662	2918
866.793	2899
866.924	2880
867.055	2979
867.186	2925
867.317	2906
867.448	2815
867.579	2838
867.71	2830
867.841	2796
867.972	2899
868.103	2883
868.233	2861
868.364	2876
868.495	2891
868.625	3055
868.756	3135
868.886	2967
869.017	3024
869.147	3165
869.278	3142
869.408	3039
869.539	3013
869.669	3097
869.799	3047
869.929	3154
870.06	3093
870.19	3332
870.32	3275
870.45	3302
870.58	3359
870.71	3450
870.84	3431
870.97	3256
871.1	3237
871.23	3447
871.36	3439
871.489	3359
871.619	3409
871.749	3401
871.879	3439
872.008	3504
872.138	3344
872.267	3272
872.397	3154
872.526	3070
872.656	2982
872.785	3093
872.915	3260
873.044	3310
873.173	3211
873.303	3253
873.432	3230
873.561	3233
873.69	3154
873.819	3150
873.948	3165
874.077	3108
874.206	3020
874.335	3081
874.464	3180
874.593	3348
874.722	3199
874.851	3378
874.979	3344
875.108	3310
875.237	3192
875.365	3165
875.494	3150
875.623	3256
875.751	3074
875.88	3135
876.008	3218
876.136	3203
876.265	3340
876.393	3496
876.521	3386
876.65	3386
876.778	3321
876.906	3237
877.034	3150
877.162	3264
877.29	3173
877.418	3306
877.546	3260
877.674	3256
877.802	3237
877.93	3199
878.058	3154
878.185	3070
878.313	3176
878.441	3211
878.568	3089
878.696	3138
878.824	3241
878.951	3275
879.079	3428
879.206	3610
879.333	3424
879.461	3325
879.588	3344
879.715	3477
879.842	3606
879.97	3412
880.097	3131
880.224	3119
880.351	3165
880.478	3199
880.605	3222
880.732	3173
880.859	3488
880.986	3272
881.112	3291
881.239	3199
881.366	3119
881.493	3005
881.619	3020
881.746	3047
881.872	3077
881.999	3081
882.125	3093
882.252	3214
882.378	3268
882.505	3416
882.631	3310
882.757	3161
882.883	3192
883.01	3203
883.136	3150
883.262	3097
883.388	3142
883.514	3321
883.64	3374
883.766	3283
883.892	3173
884.018	3214
884.143	3412
884.269	3545
884.395	3169
884.52	3169
884.646	3195
884.772	3123
884.897	3097
885.023	3176
885.148	3310
885.274	3428
885.399	3409
885.524	3298
885.65	3214
885.775	3275
885.9	3287
886.025	3409
886.15	3367
886.275	3287
886.4	3195
886.525	3321
886.65	3275
886.775	3283
886.9	3488
887.025	3663
887.149	3412
887.274	3256
887.399	3135
887.523	3188
887.648	3180
887.773	3180
887.897	3405
888.021	3397
888.146	3279
888.27	3439
888.395	3507
888.519	3420
888.643	3424
888.767	3443
888.891	3283
889.015	3241
889.139	3287
889.263	3264
889.387	3389
889.511	3523
889.635	3462
889.759	3294
889.883	3287
890.006	3363
890.13	3447
890.254	3256
890.377	3351
890.501	3192
890.624	3184
890.748	3287
890.871	3180
890.995	3066
891.118	3051
891.241	3176
891.364	3233
891.488	3310
891.611	3184
891.734	3237
891.857	3260
891.98	3249
892.103	3344
892.226	3264
892.349	3180
892.471	3104
892.594	3237
892.717	3313
892.839	3260
892.962	3279
893.085	3348
893.207	3283
893.33	3127
893.452	3218
893.575	3310
893.697	3222
893.819	3485
893.941	3447
894.064	3450
894.186	3245
894.308	3298
894.43	3443
894.552	3530
894.674	3454
894.796	3283
894.918	3283
895.04	3268
895.161	3412
895.283	3336
895.405	3291
895.526	3348
895.648	3393
895.769	3431
895.891	3447
896.012	3504
896.134	3500
896.255	3401
896.376	3370
896.498	3363
896.619	3401
896.74	3325
896.861	3409
896.982	3671
897.103	3812
897.224	3610
897.345	3466
897.466	3439
897.587	3477
897.708	3599
897.828	3553
897.949	3454
898.07	3283
898.19	3416
898.311	3606
898.431	3428
898.552	3504
898.672	3591
898.792	3572
898.913	3515
899.033	3359
899.153	3275
899.273	3195
899.393	3237
899.513	3268
899.633	3317
899.753	3340
899.873	3306
899.993	3378
900.113	3348
900.232	3389
900.352	3359
900.472	3268
900.591	3195
900.711	3287
900.83	3245
900.95	3397
901.069	3481
901.189	3336
901.308	3116
901.427	3104
901.546	3214
901.665	3272
901.784	3310
901.904	3188
902.023	3173
902.141	2994
902.26	3005
902.379	3157
902.498	3051
902.617	3020
902.735	3233
902.854	3211
902.973	3176
903.091	3028
903.21	3074
903.328	3127
903.446	3112
903.565	3123
903.683	3169
903.801	3127
903.919	3226
904.038	3256
904.156	3146
904.274	3283
904.392	3233
904.51	3294
904.627	3325
904.745	3454
904.863	3473
904.981	3230
905.098	3176
905.216	3245
905.334	3272
905.451	3253
905.569	3264
905.686	3443
905.803	3420
905.921	3268
906.038	3405
906.155	3355
906.272	3256
906.389	3317
906.506	3188
906.623	3279
906.74	3218
906.857	3180
906.974	3253
907.091	3477
907.208	3584
907.324	3481
907.441	3393
907.557	3237
907.674	3233
907.79	3230
907.907	3249
908.023	3359
908.139	3344
908.256	3287
908.372	3317
908.488	3329
908.604	3260
908.72	3237
908.836	3256
908.952	3283
909.068	3306
909.184	3481
909.3	3386
909.415	3466
909.531	3420
909.647	3245
909.762	3321
909.878	3230
909.993	3359
910.108	3302
910.224	3313
910.339	3397
910.454	3367
910.57	3306
910.685	3264
910.8	3568
910.915	3572
911.03	3420
911.145	3272
911.259	3260
911.374	3294
911.489	3233
911.604	3222
911.718	3157
911.833	3184
911.947	2994
912.062	2982
912.176	3157
912.291	3192
912.405	3211
912.519	3454
912.633	3481
912.748	3329
912.862	3264
912.976	3199
913.09	3108
913.204	3131
913.318	3214
913.431	3382
913.545	3382
913.659	3405
913.772	3363
913.886	3253
914	3203
914.113	3374
914.226	3435
914.34	3409
914.453	3226
914.566	3401
914.68	3298
914.793	3370
914.906	3188
915.019	3146
915.132	3127
915.245	3195
915.358	3264
915.47	3306
915.583	3332
915.696	3348
915.809	3435
915.921	3428
916.034	3272
916.146	3272
916.259	3279
916.371	3416
916.483	3416
916.595	3340
916.708	3378
916.82	3382
916.932	3386
917.044	3374
917.156	3393
917.268	3287
917.38	3344
917.491	3370
917.603	3416
917.715	3485
917.826	3534
917.938	3378
918.049	3294
918.161	3477
918.272	3614
918.384	3629
918.495	3538
918.606	3363
918.717	3321
918.828	3389
918.939	3469
919.05	3367
919.161	3447
919.272	3184
919.383	3329
919.494	3519
919.604	3740
919.715	3485
919.826	3401
919.936	3507
920.047	3603
920.157	3561
920.267	3797
920.378	3648
920.488	3603
920.598	3838
920.708	3975
920.818	3899
920.928	3873
921.038	4074
921.148	4040
921.258	3755
921.368	3629
921.477	3610
921.587	3580
921.697	3507
921.806	3644
921.916	3561
922.025	3420
922.134	3397
922.244	3351
922.353	3466
922.462	3332
922.571	3260
922.68	3169
922.789	3142
922.898	3138
923.007	3138
923.116	3268
923.224	3195
923.333	3222
923.442	3142
923.55	3119
923.659	3173
923.767	3245
923.876	3165
923.984	3279
924.092	3154
924.201	3264
924.309	3218
924.417	3291
924.525	3192
924.633	3272
924.741	4230
924.849	3100
924.956	3283
925.064	3154
925.172	3081
925.279	3131
925.387	3256
925.494	3226
925.602	3401
925.709	3367
925.816	3226
925.924	3313
926.031	3386
926.138	3348
926.245	3389
926.352	3325
926.459	3420
926.566	3504
926.673	3332
926.779	3264
926.886	3283
926.993	3169
927.099	3169
927.206	3112
927.312	3165
927.419	3214
927.525	3233
927.631	3317
927.737	3184
927.843	3188
927.95	3039
928.056	3161
928.162	3207
928.267	3279
928.373	3907
928.479	3386
928.585	3089
928.69	3230
928.796	3310
928.901	3195
929.007	3043
929.112	3241
929.218	3222
929.323	3161
929.428	3176
929.533	3351
929.638	3142
929.743	3173
929.848	3302
929.953	3272
930.058	3165
930.163	3036
930.267	3066
930.372	3180
930.477	3093
930.581	3355
930.685	3188
930.79	3108
930.894	3119
930.998	3138
931.103	3332
931.207	3013
931.311	2986
931.415	2952
931.519	2804
931.623	2842
