Data from test_V78500241_189.txt Node
Date: Fri Mar 25 16:16:30 CST 2022
User: usil
Spectrometer: V785-0024
Trigger mode: 0
Integration Time (sec): 4.000000E-1
Scans to average: 1
Nonlinearity correction enabled: false
Boxcar width: 0
Storing dark spectrum: false
XAxis mode: Wavelengths
Number of Pixels in Spectrum: 1024
>>>>>Begin Spectral Data<<<<<
801.071	2986
801.214	2975
801.356	2899
801.499	2902
801.641	2895
801.783	2975
801.926	3089
802.068	3001
802.211	3028
802.353	3081
802.496	3001
802.638	3070
802.78	3116
802.923	3108
803.065	3020
803.208	2937
803.35	2937
803.492	2960
803.635	2960
803.777	2800
803.919	2891
804.061	3214
804.204	3005
804.346	2952
804.488	2864
804.63	3017
804.773	2880
804.915	2944
805.057	3108
805.199	2963
805.341	3013
805.483	3043
805.626	3028
805.768	2986
805.91	3119
806.052	3135
806.194	3024
806.336	3253
806.478	3055
806.62	2967
806.762	2990
806.904	3081
807.046	3157
807.188	3036
807.33	2967
807.472	3005
807.614	2906
807.756	3024
807.898	2956
808.04	2925
808.182	2986
808.324	2998
808.465	2918
808.607	2906
808.749	2811
808.891	2849
809.033	3036
809.174	3009
809.316	2944
809.458	2902
809.6	2811
809.741	2807
809.883	2762
810.025	2864
810.166	2876
810.308	2857
810.45	2872
810.591	2804
810.733	2766
810.875	2876
811.016	2823
811.158	2807
811.299	2834
811.441	2963
811.582	2925
811.724	2811
811.865	2838
812.007	2918
812.148	2914
812.29	2872
812.431	2937
812.573	2971
812.714	2986
812.855	3077
812.997	3062
813.138	3138
813.279	3001
813.421	3013
813.562	2971
813.703	2922
813.845	2914
813.986	2785
814.127	2796
814.268	2857
814.41	2845
814.551	2842
814.692	2891
814.833	2849
814.974	2937
815.115	2971
815.256	2861
815.397	2845
815.539	2914
815.68	2823
815.821	2804
815.962	2925
816.103	2998
816.244	2910
816.385	2914
816.526	2971
816.666	2941
816.807	2777
816.948	2941
817.089	2948
817.23	2872
817.371	2815
817.512	2845
817.653	2876
817.793	2857
817.934	2918
818.075	2986
818.216	3036
818.356	3039
818.497	2925
818.638	2819
818.778	2857
818.919	2819
819.06	2781
819.2	2910
819.341	2823
819.481	2826
819.622	2944
819.762	3142
819.903	3070
820.043	2929
820.184	2883
820.324	2910
820.465	3047
820.605	3036
820.746	3020
820.886	2990
821.026	3150
821.167	3161
821.307	3310
821.447	3321
821.588	3294
821.728	3241
821.868	3192
822.008	3089
822.149	3226
822.289	3268
822.429	3100
822.569	3089
822.709	3203
822.849	3055
822.99	3085
823.13	3184
823.27	3226
823.41	3119
823.55	3195
823.69	3138
823.83	3214
823.97	3093
824.11	3036
824.25	3009
824.389	3085
824.529	3131
824.669	3070
824.809	3241
824.949	3279
825.089	3260
825.228	3165
825.368	3017
825.508	2982
825.648	2975
825.787	3058
825.927	3020
826.067	2994
826.206	2979
826.346	3058
826.485	3108
826.625	3131
826.765	3310
826.904	3237
827.044	3028
827.183	2967
827.323	2880
827.462	3024
827.601	2925
827.741	2941
827.88	2979
828.02	2895
828.159	2994
828.298	3074
828.437	3138
828.577	3055
828.716	3275
828.855	3089
828.994	2914
829.134	2910
829.273	2941
829.412	2880
829.551	2918
829.69	2899
829.829	2994
829.968	3142
830.107	3043
830.246	2990
830.385	2952
830.524	2880
830.663	2834
830.802	2735
830.941	2678
831.08	2670
831.219	2792
831.357	2781
831.496	2960
831.635	2731
831.774	2670
831.913	2682
832.051	2632
832.19	2598
832.329	2697
832.467	2549
832.606	2526
832.744	2583
832.883	2606
833.022	2602
833.16	2617
833.299	2682
833.437	2754
833.576	2689
833.714	2731
833.852	2720
833.991	2781
834.129	2876
834.267	2872
834.406	2800
834.544	2883
834.682	2861
834.821	2902
834.959	3039
835.097	2929
835.235	3066
835.373	3013
835.511	3058
835.65	2944
835.788	2986
835.926	2861
836.064	2853
836.202	2895
836.34	3104
836.478	3157
836.615	3055
836.753	3173
836.891	3241
837.029	3161
837.167	3127
837.305	3108
837.443	3039
837.58	2998
837.718	3150
837.856	3081
837.993	3055
838.131	3150
838.269	3123
838.406	3089
838.544	3100
838.681	2960
838.819	2956
838.956	2807
839.094	2853
839.231	2922
839.369	3013
839.506	3412
839.643	3237
839.781	3009
839.918	2975
840.055	3097
840.193	3089
840.33	3089
840.467	3165
840.604	3169
840.742	3435
840.879	3081
841.016	3093
841.153	3119
841.29	3382
841.427	3313
841.564	3294
841.701	3302
841.838	3222
841.975	3176
842.112	3260
842.249	3100
842.385	3093
842.522	3294
842.659	3116
842.796	3093
842.933	3142
843.069	3070
843.206	3077
843.343	3222
843.479	3097
843.616	3173
843.752	2887
843.889	2925
844.025	3104
844.162	2895
844.298	3089
844.435	3001
844.571	2933
844.708	3093
844.844	3195
844.98	3264
845.117	3218
845.253	3089
845.389	3070
845.525	3138
845.661	3116
845.798	2998
845.934	3135
846.07	3074
846.206	3237
846.342	3355
846.478	3195
846.614	3104
846.75	3089
846.886	3051
847.022	3249
847.158	3165
847.294	3195
847.429	3226
847.565	3237
847.701	3443
847.837	3043
847.972	3024
848.108	3127
848.244	3157
848.379	3024
848.515	2914
848.65	2963
848.786	2967
848.921	3020
849.057	3116
849.192	3207
849.328	3066
849.463	3085
849.598	3043
849.734	3097
849.869	2990
850.004	2933
850.14	3032
850.275	2933
850.41	2887
850.545	2891
850.68	2960
850.815	2971
850.95	2979
851.085	3260
851.22	3119
851.355	3051
851.49	2998
851.625	3024
851.76	3058
851.895	2933
852.03	2952
852.165	3043
852.299	3112
852.434	3169
852.569	3165
852.703	3157
852.838	3264
852.973	3344
853.107	3321
853.242	3146
853.376	3077
853.511	2998
853.645	3085
853.78	3241
853.914	3108
854.048	3116
854.183	3100
854.317	3135
854.451	3317
854.585	3142
854.72	3116
854.854	3283
854.988	3058
855.122	3093
855.256	2994
855.39	3146
855.524	3226
855.658	3165
855.792	3180
855.926	3222
856.06	3237
856.194	3287
856.327	3142
856.461	3089
856.595	3085
856.729	3100
856.862	3222
856.996	3192
857.13	3260
857.263	3245
857.397	3317
857.53	3127
857.664	3184
857.797	3283
857.931	3253
858.064	3199
858.197	3237
858.331	3131
858.464	3112
858.597	3036
858.731	3142
858.864	3100
858.997	3081
859.13	3154
859.263	3207
859.396	3230
859.529	3138
859.662	3077
859.795	3058
859.928	3142
860.061	3287
860.194	3287
860.327	3142
860.46	3112
860.592	3291
860.725	3268
860.858	3313
860.99	3108
861.123	3074
861.256	3043
861.388	3157
861.521	3751
861.653	3043
861.786	3028
861.918	3028
862.05	3047
862.183	3131
862.315	3176
862.447	3222
862.58	3077
862.712	2967
862.844	2937
862.976	3047
863.108	2986
863.24	3359
863.372	2891
863.504	2994
863.636	2982
863.768	3058
863.9	2975
864.032	2956
864.164	2948
864.296	3024
864.428	3089
864.559	3108
864.691	3062
864.823	3070
864.954	3043
865.086	3055
865.217	2994
865.349	2994
865.48	2975
865.612	3024
865.743	3154
865.875	3009
866.006	2941
866.137	3001
866.269	2952
866.4	2941
866.531	2914
866.662	2918
866.793	2910
866.924	2906
867.055	2956
867.186	2944
867.317	2925
867.448	2864
867.579	2868
867.71	2842
867.841	2849
867.972	2941
868.103	2910
868.233	2914
868.364	2891
868.495	2922
868.625	3100
868.756	3157
868.886	2982
869.017	3043
869.147	3176
869.278	3192
869.408	3081
869.539	3017
869.669	3085
869.799	3077
869.929	3089
870.06	3142
870.19	3332
870.32	3321
870.45	3321
870.58	3355
870.71	3466
870.84	3412
870.97	3287
871.1	3260
871.23	3485
871.36	3473
871.489	3359
871.619	3405
871.749	3405
871.879	3450
872.008	3511
872.138	3401
872.267	3298
872.397	3127
872.526	3112
872.656	3001
872.785	3116
872.915	3230
873.044	3287
873.173	3253
873.303	3272
873.432	3256
873.561	3272
873.69	3173
873.819	3165
873.948	3199
874.077	3127
874.206	3058
874.335	3100
874.464	3256
874.593	3355
874.722	3249
874.851	3363
874.979	3340
875.108	3355
875.237	3192
875.365	3150
875.494	3195
875.623	3268
875.751	3047
875.88	3108
876.008	3207
876.136	3218
876.265	3397
876.393	3534
876.521	3397
876.65	3450
876.778	3363
876.906	3279
877.034	3214
877.162	3253
877.29	3169
877.418	3260
877.546	3268
877.674	3260
877.802	3207
877.93	3253
878.058	3176
878.185	3077
878.313	3211
878.441	3203
878.568	3089
878.696	3165
878.824	3279
878.951	3302
879.079	3462
879.206	3584
879.333	3412
879.461	3351
879.588	3378
879.715	3557
879.842	3610
879.97	3397
880.097	3176
880.224	3157
880.351	3195
880.478	3192
880.605	3233
880.732	3222
880.859	3500
880.986	3348
881.112	3359
881.239	3199
881.366	3100
881.493	3028
881.619	3062
881.746	3070
881.872	3108
881.999	3097
882.125	3146
882.252	3268
882.378	3298
882.505	3458
882.631	3313
882.757	3165
882.883	3230
883.01	3245
883.136	3161
883.262	3081
883.388	3104
883.514	3336
883.64	3382
883.766	3348
883.892	3214
884.018	3279
884.143	3401
884.269	3549
884.395	3214
884.52	3214
884.646	3211
884.772	3184
884.897	3108
885.023	3294
885.148	3329
885.274	3431
885.399	3351
885.524	3317
885.65	3264
885.775	3340
885.9	3279
886.025	3439
886.15	3359
886.275	3306
886.4	3233
886.525	3298
886.65	3279
886.775	3291
886.9	3492
887.025	3660
887.149	3454
887.274	3253
887.399	3176
887.523	3184
887.648	3161
887.773	3199
887.897	3397
888.021	3439
888.146	3313
888.27	3450
888.395	3526
888.519	3481
888.643	3435
888.767	3462
888.891	3313
889.015	3268
889.139	3279
889.263	3272
889.387	3439
889.511	3515
889.635	3450
889.759	3306
889.883	3287
890.006	3424
890.13	3496
890.254	3249
890.377	3348
890.501	3203
890.624	3195
890.748	3317
890.871	3188
890.995	3085
891.118	3093
891.241	3184
891.364	3245
891.488	3317
891.611	3214
891.734	3260
891.857	3325
891.98	3279
892.103	3321
892.226	3294
892.349	3214
892.471	3112
892.594	3302
892.717	3264
892.839	3268
892.962	3306
893.085	3370
893.207	3291
893.33	3165
893.452	3256
893.575	3306
893.697	3253
893.819	3454
893.941	3481
894.064	3450
894.186	3268
894.308	3302
894.43	3469
894.552	3553
894.674	3488
894.796	3275
894.918	3306
895.04	3264
895.161	3420
895.283	3401
895.405	3351
895.526	3405
895.648	3473
895.769	3447
895.891	3504
896.012	3530
896.134	3466
896.255	3447
896.376	3424
896.498	3382
896.619	3401
896.74	3374
896.861	3435
896.982	3671
897.103	3876
897.224	3606
897.345	3458
897.466	3412
897.587	3515
897.708	3622
897.828	3530
897.949	3454
898.07	3344
898.19	3412
898.311	3633
898.431	3488
898.552	3534
898.672	3618
898.792	3580
898.913	3515
899.033	3378
899.153	3287
899.273	3199
899.393	3294
899.513	3321
899.633	3340
899.753	3370
899.873	3363
899.993	3378
900.113	3336
900.232	3401
900.352	3344
900.472	3279
900.591	3226
900.711	3329
900.83	3272
900.95	3435
901.069	3530
901.189	3355
901.308	3211
901.427	3116
901.546	3237
901.665	3287
901.784	3344
901.904	3253
902.023	3157
902.141	3043
902.26	2994
902.379	3176
902.498	3093
902.617	3066
902.735	3230
902.854	3253
902.973	3203
903.091	3043
903.21	3058
903.328	3127
903.446	3123
903.565	3081
903.683	3207
903.801	3157
903.919	3214
904.038	3279
904.156	3207
904.274	3279
904.392	3291
904.51	3317
904.627	3340
904.745	3450
904.863	3488
904.981	3253
905.098	3188
905.216	3237
905.334	3283
905.451	3329
905.569	3310
905.686	3382
905.803	3405
905.921	3306
906.038	3443
906.155	3431
906.272	3279
906.389	3367
906.506	3249
906.623	3283
906.74	3272
906.857	3214
906.974	3272
907.091	3447
907.208	3595
907.324	3507
907.441	3405
907.557	3283
907.674	3237
907.79	3226
907.907	3272
908.023	3424
908.139	3378
908.256	3351
908.372	3378
908.488	3386
908.604	3260
908.72	3195
908.836	3294
908.952	3310
909.068	3344
909.184	3500
909.3	3435
909.415	3519
909.531	3492
909.647	3298
909.762	3298
909.878	3313
909.993	3351
910.108	3336
910.224	3344
910.339	3409
910.454	3370
910.57	3329
910.685	3230
910.8	3584
910.915	3519
911.03	3462
911.145	3298
911.259	3298
911.374	3279
911.489	3275
911.604	3233
911.718	3154
911.833	3180
911.947	3062
912.062	2990
912.176	3184
912.291	3188
912.405	3233
912.519	3477
912.633	3462
912.748	3363
912.862	3306
912.976	3169
913.09	3062
913.204	3150
913.318	3256
913.431	3374
913.545	3367
913.659	3420
913.772	3344
913.886	3222
914	3207
914.113	3401
914.226	3412
914.34	3374
914.453	3218
914.566	3416
914.68	3306
914.793	3306
914.906	3161
915.019	3100
915.132	3100
915.245	3173
915.358	3226
915.47	3245
915.583	3264
915.696	3313
915.809	3424
915.921	3435
916.034	3287
916.146	3256
916.259	3256
916.371	3370
916.483	3405
916.595	3298
916.708	3355
916.82	3355
916.932	3351
917.044	3351
917.156	3336
917.268	3272
917.38	3279
917.491	3310
917.603	3370
917.715	3462
917.826	3466
917.938	3367
918.049	3298
918.161	3428
918.272	3557
918.384	3564
918.495	3477
918.606	3348
918.717	3272
918.828	3363
918.939	3435
919.05	3332
919.161	3382
919.272	3169
919.383	3294
919.494	3519
919.604	3720
919.715	3496
919.826	3450
919.936	3450
920.047	3591
920.157	3584
920.267	3770
920.378	3644
920.488	3561
920.598	3804
920.708	3953
920.818	3861
920.928	3907
921.038	4017
921.148	4002
921.258	3717
921.368	3637
921.477	3610
921.587	3557
921.697	3458
921.806	3614
921.916	3526
922.025	3378
922.134	3348
922.244	3344
922.353	3412
922.462	3245
922.571	3260
922.68	3112
922.789	3081
922.898	3131
923.007	3108
923.116	3226
923.224	3165
923.333	3230
923.442	3127
923.55	3089
923.659	3142
923.767	3253
923.876	3146
923.984	3230
924.092	3142
924.201	3222
924.309	3233
924.417	3249
924.525	3188
924.633	3241
924.741	4188
924.849	3108
924.956	3253
925.064	3150
925.172	3066
925.279	3093
925.387	3199
925.494	3233
925.602	3340
925.709	3336
925.816	3165
925.924	3317
926.031	3397
926.138	3340
926.245	3401
926.352	3272
926.459	3401
926.566	3492
926.673	3359
926.779	3287
926.886	3264
926.993	3146
927.099	3150
927.206	3081
927.312	3127
927.419	3245
927.525	3222
927.631	3302
927.737	3112
927.843	3161
927.95	3043
928.056	3154
928.162	3161
928.267	3268
928.373	3846
928.479	3329
928.585	3062
928.69	3211
928.796	3272
928.901	3180
929.007	3119
929.112	3253
929.218	3184
929.323	3180
929.428	3150
929.533	3321
929.638	3154
929.743	3203
929.848	3260
929.953	3218
930.058	3138
930.163	3032
930.267	3055
930.372	3222
930.477	3058
930.581	3302
930.685	3195
930.79	3100
930.894	3154
930.998	3100
931.103	3317
931.207	2925
931.311	2956
931.415	2929
931.519	2815
931.623	2811
