Data from test_V78500241_456.txt Node
Date: Fri Mar 25 16:18:21 CST 2022
User: usil
Spectrometer: V785-0024
Trigger mode: 0
Integration Time (sec): 4.000000E-1
Scans to average: 1
Nonlinearity correction enabled: false
Boxcar width: 0
Storing dark spectrum: false
XAxis mode: Wavelengths
Number of Pixels in Spectrum: 1024
>>>>>Begin Spectral Data<<<<<
801.071	2895
801.214	2925
801.356	2876
801.499	2891
801.641	2864
801.783	2899
801.926	3055
802.068	2948
802.211	2975
802.353	3066
802.496	2963
802.638	3009
802.78	3051
802.923	3055
803.065	2998
803.208	2861
803.35	2914
803.492	2895
803.635	2933
803.777	2727
803.919	2853
804.061	3218
804.204	2948
804.346	2902
804.488	2880
804.63	2979
804.773	2868
804.915	2960
805.057	3036
805.199	2963
805.341	2960
805.483	3043
805.626	2967
805.768	2941
805.91	3085
806.052	3142
806.194	3024
806.336	3211
806.478	3017
806.62	2914
806.762	2979
806.904	3036
807.046	3195
807.188	2960
807.33	2899
807.472	2971
807.614	2895
807.756	2986
807.898	2929
808.04	2880
808.182	2967
808.324	2944
808.465	2895
808.607	2906
808.749	2800
808.891	2826
809.033	2956
809.174	2975
809.316	2868
809.458	2914
809.6	2754
809.741	2781
809.883	2746
810.025	2811
810.166	2853
810.308	2815
810.45	2853
810.591	2781
810.733	2739
810.875	2834
811.016	2819
811.158	2746
811.299	2773
811.441	2933
811.582	2902
811.724	2830
811.865	2842
812.007	2891
812.148	2853
812.29	2826
812.431	2857
812.573	2929
812.714	2967
812.855	3043
812.997	3036
813.138	3093
813.279	3013
813.421	2994
813.562	2960
813.703	2895
813.845	2880
813.986	2796
814.127	2727
814.268	2838
814.41	2876
814.551	2811
814.692	2876
814.833	2788
814.974	2861
815.115	2956
815.256	2800
815.397	2792
815.539	2842
815.68	2788
815.821	2788
815.962	2922
816.103	2906
816.244	2857
816.385	2853
816.526	2937
816.666	2910
816.807	2739
816.948	2883
817.089	2891
817.23	2853
817.371	2758
817.512	2815
817.653	2838
817.793	2815
817.934	2876
818.075	2952
818.216	2963
818.356	3020
818.497	2887
818.638	2788
818.778	2830
818.919	2804
819.06	2743
819.2	2861
819.341	2804
819.481	2819
819.622	2941
819.762	3085
819.903	3028
820.043	2960
820.184	2933
820.324	2872
820.465	3043
820.605	3013
820.746	3039
820.886	2918
821.026	3074
821.167	3116
821.307	3272
821.447	3253
821.588	3233
821.728	3161
821.868	3195
822.008	3104
822.149	3161
822.289	3310
822.429	3089
822.569	3051
822.709	3169
822.849	3032
822.99	3055
823.13	3146
823.27	3207
823.41	3097
823.55	3161
823.69	3173
823.83	3188
823.97	3127
824.11	2986
824.25	3024
824.389	3077
824.529	3131
824.669	3047
824.809	3176
824.949	3275
825.089	3211
825.228	3173
825.368	3036
825.508	2967
825.648	2960
825.787	3013
825.927	3043
826.067	2925
826.206	2960
826.346	3024
826.485	3074
826.625	3119
826.765	3283
826.904	3188
827.044	2982
827.183	2937
827.323	2857
827.462	2933
827.601	2918
827.741	2925
827.88	2914
828.02	2864
828.159	2922
828.298	3043
828.437	3108
828.577	3028
828.716	3230
828.855	3070
828.994	2914
829.134	2887
829.273	2895
829.412	2861
829.551	2845
829.69	2864
829.829	2956
829.968	3138
830.107	3024
830.246	3028
830.385	2902
830.524	2861
830.663	2845
830.802	2731
830.941	2610
831.08	2644
831.219	2754
831.357	2720
831.496	2956
831.635	2712
831.774	2640
831.913	2625
832.051	2541
832.19	2568
832.329	2682
832.467	2503
832.606	2488
832.744	2560
832.883	2583
833.022	2560
833.16	2610
833.299	2682
833.437	2701
833.576	2670
833.714	2735
833.852	2712
833.991	2731
834.129	2811
834.267	2823
834.406	2807
834.544	2887
834.682	2857
834.821	2876
834.959	3058
835.097	2899
835.235	3085
835.373	2975
835.511	3013
835.65	2944
835.788	2971
835.926	2830
836.064	2811
836.202	2807
836.34	3081
836.478	3112
836.615	3051
836.753	3093
836.891	3165
837.029	3157
837.167	3085
837.305	3055
837.443	3085
837.58	2929
837.718	3108
837.856	3058
837.993	3005
838.131	3093
838.269	3089
838.406	3070
838.544	3085
838.681	2902
838.819	2914
838.956	2777
839.094	2807
839.231	2883
839.369	3005
839.506	3386
839.643	3199
839.781	3039
839.918	2929
840.055	3062
840.193	3013
840.33	3055
840.467	3093
840.604	3142
840.742	3424
840.879	3036
841.016	3036
841.153	3097
841.29	3340
841.427	3287
841.564	3245
841.701	3306
841.838	3184
841.975	3161
842.112	3230
842.249	3066
842.385	3013
842.522	3253
842.659	3036
842.796	3081
842.933	3116
843.069	3043
843.206	3036
843.343	3173
843.479	3119
843.616	3123
843.752	2872
843.889	2857
844.025	3055
844.162	2834
844.298	3093
844.435	2952
844.571	2925
844.708	3058
844.844	3165
844.98	3214
845.117	3161
845.253	3051
845.389	3028
845.525	3070
845.661	3104
845.798	3020
845.934	3108
846.07	3055
846.206	3199
846.342	3272
846.478	3211
846.614	3047
846.75	3043
846.886	3001
847.022	3245
847.158	3097
847.294	3184
847.429	3260
847.565	3207
847.701	3481
847.837	2967
847.972	2971
848.108	3146
848.244	3135
848.379	2948
848.515	2937
848.65	2960
848.786	2933
848.921	3013
849.057	3070
849.192	3104
849.328	3100
849.463	3097
849.598	3036
849.734	3051
849.869	2956
850.004	2906
850.14	2906
850.275	2941
850.41	2819
850.545	2883
850.68	2902
850.815	2956
850.95	2963
851.085	3211
851.22	3097
851.355	3013
851.49	2967
851.625	2948
851.76	3020
851.895	2906
852.03	2899
852.165	3043
852.299	3085
852.434	3150
852.569	3169
852.703	3146
852.838	3233
852.973	3344
853.107	3329
853.242	3135
853.376	3127
853.511	2952
853.645	3001
853.78	3214
853.914	3123
854.048	3089
854.183	3047
854.317	3123
854.451	3325
854.585	3161
854.72	3055
854.854	3165
854.988	3028
855.122	3047
855.256	2967
855.39	3123
855.524	3249
855.658	3154
855.792	3176
855.926	3180
856.06	3211
856.194	3272
856.327	3119
856.461	3074
856.595	3062
856.729	3055
856.862	3188
856.996	3138
857.13	3180
857.263	3157
857.397	3268
857.53	3108
857.664	3165
857.797	3199
857.931	3218
858.064	3157
858.197	3237
858.331	3127
858.464	3085
858.597	3017
858.731	3108
858.864	3142
858.997	3077
859.13	3169
859.263	3161
859.396	3222
859.529	3093
859.662	3100
859.795	3043
859.928	3135
860.061	3256
860.194	3253
860.327	3150
860.46	3077
860.592	3268
860.725	3245
860.858	3256
860.99	3066
861.123	3047
861.256	3074
861.388	3135
861.521	3968
861.653	2998
861.786	2971
861.918	2986
862.05	3093
862.183	3058
862.315	3116
862.447	3188
862.58	3108
862.712	2948
862.844	2880
862.976	3001
863.108	2982
863.24	3283
863.372	2849
863.504	2948
863.636	2914
863.768	2975
863.9	2990
864.032	2891
864.164	2948
864.296	2994
864.428	3074
864.559	3100
864.691	3058
864.823	3024
864.954	3024
865.086	3017
865.217	2971
865.349	2929
865.48	2979
865.612	3009
865.743	3150
865.875	2979
866.006	2918
866.137	2979
866.269	2914
866.4	2929
866.531	2914
866.662	2868
866.793	2891
866.924	2872
867.055	2963
867.186	2883
867.317	2895
867.448	2864
867.579	2857
867.71	2842
867.841	2796
867.972	2876
868.103	2906
868.233	2830
868.364	2845
868.495	2853
868.625	3062
868.756	3161
868.886	2960
869.017	3020
869.147	3173
869.278	3157
869.408	3009
869.539	3013
869.669	3135
869.799	3047
869.929	3131
870.06	3127
870.19	3302
870.32	3287
870.45	3306
870.58	3332
870.71	3416
870.84	3412
870.97	3279
871.1	3188
871.23	3447
871.36	3466
871.489	3329
871.619	3378
871.749	3355
871.879	3412
872.008	3469
872.138	3340
872.267	3279
872.397	3108
872.526	3058
872.656	2990
872.785	3127
872.915	3272
873.044	3256
873.173	3211
873.303	3226
873.432	3214
873.561	3230
873.69	3161
873.819	3146
873.948	3214
874.077	3089
874.206	3047
874.335	3085
874.464	3203
874.593	3325
874.722	3268
874.851	3382
874.979	3310
875.108	3294
875.237	3199
875.365	3150
875.494	3131
875.623	3241
875.751	3062
875.88	3108
876.008	3165
876.136	3245
876.265	3321
876.393	3488
876.521	3420
876.65	3401
876.778	3329
876.906	3207
877.034	3207
877.162	3211
877.29	3211
877.418	3222
877.546	3230
877.674	3283
877.802	3218
877.93	3241
878.058	3138
878.185	3085
878.313	3203
878.441	3199
878.568	3085
878.696	3135
878.824	3233
878.951	3264
879.079	3473
879.206	3580
879.333	3424
879.461	3306
879.588	3313
879.715	3488
879.842	3542
879.97	3359
880.097	3154
880.224	3116
880.351	3157
880.478	3222
880.605	3192
880.732	3184
880.859	3458
880.986	3245
881.112	3310
881.239	3207
881.366	3081
881.493	3013
881.619	3024
881.746	3077
881.872	3058
881.999	3108
882.125	3150
882.252	3230
882.378	3275
882.505	3412
882.631	3264
882.757	3131
882.883	3218
883.01	3203
883.136	3146
883.262	3081
883.388	3108
883.514	3344
883.64	3344
883.766	3287
883.892	3184
884.018	3214
884.143	3431
884.269	3534
884.395	3188
884.52	3161
884.646	3184
884.772	3119
884.897	3097
885.023	3195
885.148	3336
885.274	3367
885.399	3348
885.524	3272
885.65	3230
885.775	3264
885.9	3268
886.025	3454
886.15	3344
886.275	3317
886.4	3203
886.525	3313
886.65	3279
886.775	3214
886.9	3492
887.025	3641
887.149	3367
887.274	3230
887.399	3157
887.523	3176
887.648	3199
887.773	3199
887.897	3355
888.021	3348
888.146	3268
888.27	3431
888.395	3492
888.519	3386
888.643	3435
888.767	3469
888.891	3275
889.015	3245
889.139	3260
889.263	3199
889.387	3370
889.511	3530
889.635	3428
889.759	3294
889.883	3245
890.006	3397
890.13	3523
890.254	3245
890.377	3348
890.501	3241
890.624	3180
890.748	3325
890.871	3218
890.995	3104
891.118	3066
891.241	3176
891.364	3260
891.488	3294
891.611	3199
891.734	3214
891.857	3313
891.98	3245
892.103	3389
892.226	3272
892.349	3226
892.471	3104
892.594	3245
892.717	3313
892.839	3260
892.962	3294
893.085	3359
893.207	3340
893.33	3192
893.452	3218
893.575	3344
893.697	3275
893.819	3481
893.941	3572
894.064	3504
894.186	3325
894.308	3321
894.43	3447
894.552	3557
894.674	3542
894.796	3294
894.918	3325
895.04	3310
895.161	3447
895.283	3431
895.405	3344
895.526	3397
895.648	3511
895.769	3443
895.891	3477
896.012	3515
896.134	3507
896.255	3481
896.376	3439
896.498	3420
896.619	3462
896.74	3431
896.861	3416
896.982	3713
897.103	3876
897.224	3644
897.345	3561
897.466	3454
897.587	3500
897.708	3648
897.828	3591
897.949	3466
898.07	3382
898.19	3378
898.311	3591
898.431	3504
898.552	3561
898.672	3675
898.792	3595
898.913	3587
899.033	3409
899.153	3340
899.273	3272
899.393	3329
899.513	3344
899.633	3367
899.753	3363
899.873	3329
899.993	3450
900.113	3374
900.232	3401
900.352	3348
900.472	3325
900.591	3245
900.711	3355
900.83	3264
900.95	3447
901.069	3511
901.189	3359
901.308	3226
901.427	3169
901.546	3226
901.665	3294
901.784	3389
901.904	3260
902.023	3184
902.141	3055
902.26	3005
902.379	3154
902.498	3085
902.617	3093
902.735	3241
902.854	3264
902.973	3233
903.091	3077
903.21	3081
903.328	3135
903.446	3104
903.565	3119
903.683	3233
903.801	3169
903.919	3268
904.038	3367
904.156	3207
904.274	3313
904.392	3294
904.51	3321
904.627	3351
904.745	3500
904.863	3511
904.981	3302
905.098	3199
905.216	3272
905.334	3321
905.451	3332
905.569	3310
905.686	3500
905.803	3469
905.921	3351
906.038	3439
906.155	3389
906.272	3294
906.389	3355
906.506	3211
906.623	3291
906.74	3313
906.857	3245
906.974	3287
907.091	3496
907.208	3618
907.324	3507
907.441	3447
907.557	3272
907.674	3313
907.79	3241
907.907	3313
908.023	3412
908.139	3389
908.256	3351
908.372	3393
908.488	3397
908.604	3298
908.72	3253
908.836	3325
908.952	3306
909.068	3348
909.184	3511
909.3	3424
909.415	3557
909.531	3504
909.647	3298
909.762	3344
909.878	3264
909.993	3382
910.108	3340
910.224	3359
910.339	3466
910.454	3340
910.57	3344
910.685	3268
910.8	3610
910.915	3591
911.03	3530
911.145	3313
911.259	3306
911.374	3382
911.489	3245
911.604	3256
911.718	3131
911.833	3169
911.947	3066
912.062	3028
912.176	3161
912.291	3245
912.405	3230
912.519	3420
912.633	3504
912.748	3340
912.862	3260
912.976	3207
913.09	3085
913.204	3195
913.318	3226
913.431	3310
913.545	3397
913.659	3420
913.772	3317
913.886	3218
914	3241
914.113	3386
914.226	3409
914.34	3409
914.453	3237
914.566	3492
914.68	3325
914.793	3344
914.906	3150
915.019	3154
915.132	3112
915.245	3188
915.358	3268
915.47	3249
915.583	3306
915.696	3291
915.809	3431
915.921	3492
916.034	3291
916.146	3310
916.259	3241
916.371	3412
916.483	3374
916.595	3291
916.708	3382
916.82	3412
916.932	3348
917.044	3374
917.156	3393
917.268	3272
917.38	3317
917.491	3317
917.603	3370
917.715	3492
917.826	3477
917.938	3370
918.049	3306
918.161	3488
918.272	3625
918.384	3576
918.495	3485
918.606	3393
918.717	3298
918.828	3386
918.939	3447
919.05	3340
919.161	3370
919.272	3203
919.383	3332
919.494	3564
919.604	3713
919.715	3515
919.826	3450
919.936	3488
920.047	3603
920.157	3534
920.267	3816
920.378	3610
920.488	3549
920.598	3789
920.708	3998
920.818	3835
920.928	3850
921.038	4051
921.148	4006
921.258	3736
921.368	3671
921.477	3629
921.587	3526
921.697	3454
921.806	3637
921.916	3545
922.025	3363
922.134	3389
922.244	3336
922.353	3466
922.462	3294
922.571	3241
922.68	3127
922.789	3097
922.898	3169
923.007	3146
923.116	3253
923.224	3184
923.333	3176
923.442	3104
923.55	3131
923.659	3165
923.767	3222
923.876	3135
923.984	3249
924.092	3108
924.201	3211
924.309	3222
924.417	3291
924.525	3211
924.633	3275
924.741	4048
924.849	3081
924.956	3256
925.064	3150
925.172	3043
925.279	3093
925.387	3230
925.494	3230
925.602	3401
925.709	3401
925.816	3226
925.924	3287
926.031	3389
926.138	3306
926.245	3389
926.352	3302
926.459	3466
926.566	3496
926.673	3306
926.779	3279
926.886	3279
926.993	3176
927.099	3157
927.206	3150
927.312	3127
927.419	3226
927.525	3272
927.631	3291
927.737	3165
927.843	3150
927.95	3047
928.056	3154
928.162	3176
928.267	3279
928.373	3812
928.479	3348
928.585	3100
928.69	3222
928.796	3313
928.901	3195
929.007	3077
929.112	3253
929.218	3203
929.323	3135
929.428	3211
929.533	3336
929.638	3165
929.743	3207
929.848	3283
929.953	3203
930.058	3161
930.163	3047
930.267	3093
930.372	3211
930.477	3039
930.581	3332
930.685	3157
930.79	3074
930.894	3112
930.998	3104
931.103	3279
931.207	3001
931.311	2982
931.415	2910
931.519	2796
931.623	2838
