Data from test_V78500241_2025.txt Node
Date: Fri Mar 25 16:29:13 CST 2022
User: usil
Spectrometer: V785-0024
Trigger mode: 0
Integration Time (sec): 4.000000E-1
Scans to average: 1
Nonlinearity correction enabled: false
Boxcar width: 0
Storing dark spectrum: false
XAxis mode: Wavelengths
Number of Pixels in Spectrum: 1024
>>>>>Begin Spectral Data<<<<<
801.071	2941
801.214	2975
801.356	2906
801.499	2944
801.641	2941
801.783	2990
801.926	3100
802.068	3032
802.211	3024
802.353	3062
802.496	3005
802.638	3058
802.78	3051
802.923	3161
803.065	3020
803.208	2922
803.35	2956
803.492	2971
803.635	2979
803.777	2830
803.919	2880
804.061	3218
804.204	2990
804.346	2922
804.488	2876
804.63	3005
804.773	2929
804.915	2929
805.057	3108
805.199	2960
805.341	3001
805.483	3062
805.626	3024
805.768	3013
805.91	3108
806.052	3142
806.194	3066
806.336	3272
806.478	3047
806.62	2982
806.762	3028
806.904	3074
807.046	3203
807.188	2998
807.33	2925
807.472	3005
807.614	2944
807.756	3005
807.898	2971
808.04	2861
808.182	3024
808.324	2982
808.465	2918
808.607	2910
808.749	2849
808.891	2861
809.033	2986
809.174	2967
809.316	2925
809.458	2937
809.6	2800
809.741	2815
809.883	2834
810.025	2891
810.166	2910
810.308	2853
810.45	2880
810.591	2834
810.733	2838
810.875	2883
811.016	2819
811.158	2781
811.299	2861
811.441	2986
811.582	2906
811.724	2880
811.865	2872
812.007	2956
812.148	2906
812.29	2887
812.431	2899
812.573	2948
812.714	2990
812.855	3081
812.997	3077
813.138	3165
813.279	3005
813.421	3005
813.562	3013
813.703	2880
813.845	2891
813.986	2788
814.127	2743
814.268	2838
814.41	2857
814.551	2811
814.692	2880
814.833	2849
814.974	2948
815.115	2990
815.256	2868
815.397	2857
815.539	2842
815.68	2800
815.821	2807
815.962	2975
816.103	2918
816.244	2891
816.385	2880
816.526	2986
816.666	2952
816.807	2773
816.948	2902
817.089	2933
817.23	2876
817.371	2800
817.512	2819
817.653	2857
817.793	2849
817.934	2899
818.075	2967
818.216	3005
818.356	3047
818.497	2872
818.638	2804
818.778	2842
818.919	2845
819.06	2826
819.2	2948
819.341	2819
819.481	2853
819.622	2925
819.762	3123
819.903	3039
820.043	2994
820.184	2880
820.324	2914
820.465	3036
820.605	3024
820.746	3070
820.886	2937
821.026	3112
821.167	3180
821.307	3264
821.447	3332
821.588	3279
821.728	3226
821.868	3176
822.008	3066
822.149	3199
822.289	3283
822.429	3097
822.569	3138
822.709	3218
822.849	3066
822.99	3108
823.13	3173
823.27	3199
823.41	3085
823.55	3184
823.69	3184
823.83	3169
823.97	3108
824.11	3001
824.25	3009
824.389	3093
824.529	3127
824.669	3070
824.809	3230
824.949	3245
825.089	3222
825.228	3173
825.368	3024
825.508	2967
825.648	3001
825.787	3039
825.927	3032
826.067	2948
826.206	2971
826.346	3066
826.485	3100
826.625	3104
826.765	3298
826.904	3184
827.044	3020
827.183	2929
827.323	2880
827.462	3032
827.601	2960
827.741	2944
827.88	2979
828.02	2872
828.159	2998
828.298	3077
828.437	3165
828.577	3047
828.716	3233
828.855	3108
828.994	2891
829.134	2902
829.273	2944
829.412	2902
829.551	2880
829.69	2937
829.829	3028
829.968	3150
830.107	3055
830.246	3047
830.385	2937
830.524	2895
830.663	2830
830.802	2743
830.941	2689
831.08	2659
831.219	2785
831.357	2762
831.496	2975
831.635	2731
831.774	2648
831.913	2644
832.051	2568
832.19	2606
832.329	2724
832.467	2564
832.606	2495
832.744	2621
832.883	2587
833.022	2613
833.16	2682
833.299	2705
833.437	2716
833.576	2754
833.714	2746
833.852	2750
833.991	2796
834.129	2899
834.267	2876
834.406	2830
834.544	2887
834.682	2895
834.821	2872
834.959	3108
835.097	2929
835.235	3077
835.373	3005
835.511	3036
835.65	2967
835.788	2990
835.926	2880
836.064	2834
836.202	2853
836.34	3142
836.478	3173
836.615	3047
836.753	3131
836.891	3176
837.029	3157
837.167	3138
837.305	3074
837.443	3043
837.58	2994
837.718	3154
837.856	3093
837.993	3028
838.131	3135
838.269	3089
838.406	3077
838.544	3104
838.681	2937
838.819	2910
838.956	2819
839.094	2853
839.231	2914
839.369	3036
839.506	3409
839.643	3211
839.781	3017
839.918	2956
840.055	3028
840.193	3047
840.33	3089
840.467	3108
840.604	3195
840.742	3401
840.879	3081
841.016	3070
841.153	3138
841.29	3340
841.427	3272
841.564	3313
841.701	3313
841.838	3222
841.975	3218
842.112	3218
842.249	3112
842.385	3047
842.522	3272
842.659	3074
842.796	3127
842.933	3131
843.069	3036
843.206	3039
843.343	3199
843.479	3074
843.616	3135
843.752	2887
843.889	2861
844.025	3112
844.162	2914
844.298	3093
844.435	2941
844.571	2902
844.708	3127
844.844	3203
844.98	3237
845.117	3165
845.253	3051
845.389	3009
845.525	3142
845.661	3116
845.798	3039
845.934	3138
846.07	3077
846.206	3233
846.342	3306
846.478	3237
846.614	3085
846.75	3070
846.886	3066
847.022	3222
847.158	3154
847.294	3207
847.429	3230
847.565	3222
847.701	3523
847.837	3043
847.972	3036
848.108	3119
848.244	3157
848.379	3017
848.515	2937
848.65	2948
848.786	2971
848.921	3013
849.057	3108
849.192	3142
849.328	3108
849.463	3135
849.598	3043
849.734	3009
849.869	2982
850.004	2952
850.14	2982
850.275	2925
850.41	2864
850.545	2899
850.68	2967
850.815	2948
850.95	2971
851.085	3203
851.22	3112
851.355	3055
851.49	3001
851.625	3036
851.76	3001
851.895	2979
852.03	2910
852.165	3066
852.299	3123
852.434	3222
852.569	3165
852.703	3203
852.838	3256
852.973	3329
853.107	3344
853.242	3184
853.376	3142
853.511	2963
853.645	3024
853.78	3245
853.914	3135
854.048	3123
854.183	3108
854.317	3165
854.451	3275
854.585	3123
854.72	3070
854.854	3237
854.988	3081
855.122	3131
855.256	2990
855.39	3127
855.524	3211
855.658	3226
855.792	3135
855.926	3207
856.06	3214
856.194	3233
856.327	3146
856.461	3089
856.595	3089
856.729	3077
856.862	3230
856.996	3165
857.13	3218
857.263	3218
857.397	3283
857.53	3112
857.664	3199
857.797	3233
857.931	3230
858.064	3146
858.197	3218
858.331	3127
858.464	3081
858.597	3020
858.731	3123
858.864	3150
858.997	3089
859.13	3176
859.263	3249
859.396	3199
859.529	3123
859.662	3055
859.795	3039
859.928	3138
860.061	3249
860.194	3256
860.327	3161
860.46	3112
860.592	3230
860.725	3237
860.858	3291
860.99	3104
861.123	3039
861.256	3081
861.388	3169
861.521	3842
861.653	3047
861.786	2998
861.918	3009
862.05	3047
862.183	3097
862.315	3195
862.447	3203
862.58	3089
862.712	2922
862.844	2834
862.976	3039
863.108	3005
863.24	3344
863.372	2918
863.504	2986
863.636	2967
863.768	2982
863.9	2971
864.032	2906
864.164	2956
864.296	3043
864.428	3119
864.559	3116
864.691	3093
864.823	3089
864.954	3036
865.086	3062
865.217	2975
865.349	2933
865.48	2975
865.612	3024
865.743	3180
865.875	2937
866.006	2967
866.137	2963
866.269	2937
866.4	2971
866.531	2899
866.662	2918
866.793	2902
866.924	2899
867.055	2975
867.186	2895
867.317	2876
867.448	2838
867.579	2838
867.71	2887
867.841	2838
867.972	2918
868.103	2902
868.233	2880
868.364	2891
868.495	2925
868.625	3047
868.756	3176
868.886	2956
869.017	3028
869.147	3154
869.278	3188
869.408	3085
869.539	3039
869.669	3089
869.799	3043
869.929	3169
870.06	3070
870.19	3317
870.32	3332
870.45	3306
870.58	3374
870.71	3447
870.84	3447
870.97	3294
871.1	3203
871.23	3496
871.36	3450
871.489	3359
871.619	3374
871.749	3431
871.879	3412
872.008	3488
872.138	3378
872.267	3268
872.397	3173
872.526	3116
872.656	2994
872.785	3089
872.915	3199
873.044	3306
873.173	3253
873.303	3218
873.432	3237
873.561	3272
873.69	3135
873.819	3188
873.948	3165
874.077	3138
874.206	3055
874.335	3097
874.464	3199
874.593	3340
874.722	3222
874.851	3386
874.979	3317
875.108	3329
875.237	3188
875.365	3203
875.494	3161
875.623	3283
875.751	3058
875.88	3100
876.008	3203
876.136	3237
876.265	3367
876.393	3492
876.521	3386
876.65	3378
876.778	3348
876.906	3260
877.034	3188
877.162	3214
877.29	3176
877.418	3249
877.546	3230
877.674	3268
877.802	3275
877.93	3222
878.058	3161
878.185	3123
878.313	3195
878.441	3230
878.568	3055
878.696	3169
878.824	3218
878.951	3275
879.079	3435
879.206	3591
879.333	3412
879.461	3332
879.588	3370
879.715	3473
879.842	3580
879.97	3409
880.097	3169
880.224	3135
880.351	3180
880.478	3249
880.605	3214
880.732	3176
880.859	3485
880.986	3340
881.112	3336
881.239	3199
881.366	3119
881.493	3070
881.619	3017
881.746	3066
881.872	3032
881.999	3077
882.125	3188
882.252	3260
882.378	3275
882.505	3397
882.631	3306
882.757	3131
882.883	3192
883.01	3233
883.136	3165
883.262	3055
883.388	3108
883.514	3317
883.64	3370
883.766	3275
883.892	3214
884.018	3268
884.143	3416
884.269	3564
884.395	3237
884.52	3169
884.646	3188
884.772	3146
884.897	3089
885.023	3203
885.148	3302
885.274	3397
885.399	3351
885.524	3256
885.65	3260
885.775	3325
885.9	3237
886.025	3401
886.15	3359
886.275	3317
886.4	3211
886.525	3291
886.65	3268
886.775	3268
886.9	3492
887.025	3610
887.149	3374
887.274	3268
887.399	3211
887.523	3180
887.648	3199
887.773	3199
887.897	3374
888.021	3386
888.146	3287
888.27	3420
888.395	3542
888.519	3439
888.643	3454
888.767	3428
888.891	3310
889.015	3237
889.139	3249
889.263	3214
889.387	3431
889.511	3488
889.635	3454
889.759	3272
889.883	3294
890.006	3393
890.13	3485
890.254	3264
890.377	3348
890.501	3184
890.624	3180
890.748	3321
890.871	3131
890.995	3138
891.118	3043
891.241	3211
891.364	3199
891.488	3310
891.611	3180
891.734	3203
891.857	3260
891.98	3264
892.103	3310
892.226	3275
892.349	3195
892.471	3154
892.594	3218
892.717	3283
892.839	3253
892.962	3268
893.085	3359
893.207	3317
893.33	3119
893.452	3233
893.575	3336
893.697	3226
893.819	3431
893.941	3519
894.064	3431
894.186	3291
894.308	3287
894.43	3443
894.552	3523
894.674	3473
894.796	3256
894.918	3306
895.04	3298
895.161	3431
895.283	3409
895.405	3283
895.526	3359
895.648	3466
895.769	3447
895.891	3485
896.012	3481
896.134	3428
896.255	3374
896.376	3374
896.498	3378
896.619	3405
896.74	3393
896.861	3420
896.982	3690
897.103	3835
897.224	3576
897.345	3519
897.466	3420
897.587	3534
897.708	3629
897.828	3542
897.949	3424
898.07	3298
898.19	3443
898.311	3622
898.431	3450
898.552	3515
898.672	3580
898.792	3576
898.913	3488
899.033	3428
899.153	3329
899.273	3226
899.393	3264
899.513	3355
899.633	3287
899.753	3340
899.873	3287
899.993	3359
900.113	3313
900.232	3344
900.352	3332
900.472	3283
900.591	3214
900.711	3268
900.83	3214
900.95	3397
901.069	3488
901.189	3313
901.308	3211
901.427	3108
901.546	3169
901.665	3275
901.784	3332
901.904	3214
902.023	3127
902.141	3024
902.26	3013
902.379	3112
902.498	3123
902.617	3051
902.735	3203
902.854	3226
902.973	3184
903.091	3058
903.21	3055
903.328	3116
903.446	3100
903.565	3108
903.683	3180
903.801	3100
903.919	3241
904.038	3268
904.156	3138
904.274	3306
904.392	3253
904.51	3283
904.627	3325
904.745	3420
904.863	3458
904.981	3256
905.098	3165
905.216	3237
905.334	3268
905.451	3283
905.569	3332
905.686	3450
905.803	3454
905.921	3268
906.038	3401
906.155	3355
906.272	3275
906.389	3279
906.506	3233
906.623	3253
906.74	3241
906.857	3184
906.974	3237
907.091	3454
907.208	3557
907.324	3447
907.441	3367
907.557	3211
907.674	3226
907.79	3218
907.907	3245
908.023	3355
908.139	3359
908.256	3298
908.372	3348
908.488	3378
908.604	3268
908.72	3222
908.836	3272
908.952	3283
909.068	3302
909.184	3477
909.3	3344
909.415	3488
909.531	3492
909.647	3245
909.762	3306
909.878	3260
909.993	3351
910.108	3325
910.224	3302
910.339	3401
910.454	3340
910.57	3283
910.685	3233
910.8	3610
910.915	3523
911.03	3450
911.145	3253
911.259	3237
911.374	3336
911.489	3264
911.604	3211
911.718	3127
911.833	3135
911.947	3043
912.062	2979
912.176	3176
912.291	3192
912.405	3218
912.519	3412
912.633	3447
912.748	3329
912.862	3291
912.976	3165
913.09	3043
913.204	3123
913.318	3237
913.431	3321
913.545	3348
913.659	3397
913.772	3306
913.886	3233
914	3173
914.113	3351
914.226	3378
914.34	3348
914.453	3230
914.566	3405
914.68	3302
914.793	3275
914.906	3142
915.019	3116
915.132	3097
915.245	3150
915.358	3211
915.47	3203
915.583	3233
915.696	3302
915.809	3416
915.921	3393
916.034	3272
916.146	3268
916.259	3192
916.371	3389
916.483	3351
916.595	3279
916.708	3329
916.82	3359
916.932	3279
917.044	3329
917.156	3363
917.268	3253
917.38	3275
917.491	3249
917.603	3382
917.715	3439
917.826	3443
917.938	3351
918.049	3249
918.161	3447
918.272	3553
918.384	3534
918.495	3534
918.606	3336
918.717	3241
918.828	3389
918.939	3397
919.05	3291
919.161	3359
919.272	3176
919.383	3260
919.494	3488
919.604	3701
919.715	3477
919.826	3397
919.936	3409
920.047	3530
920.157	3515
920.267	3770
920.378	3618
920.488	3568
920.598	3759
920.708	3956
920.818	3816
920.928	3850
921.038	4002
921.148	3979
921.258	3648
921.368	3595
921.477	3561
921.587	3526
921.697	3412
921.806	3606
921.916	3530
922.025	3291
922.134	3367
922.244	3329
922.353	3428
922.462	3249
922.571	3237
922.68	3119
922.789	3074
922.898	3116
923.007	3089
923.116	3173
923.224	3142
923.333	3173
923.442	3055
923.55	3085
923.659	3176
923.767	3180
923.876	3108
923.984	3211
924.092	3108
924.201	3207
924.309	3218
924.417	3222
924.525	3150
924.633	3241
924.741	4169
924.849	3039
924.956	3245
925.064	3097
925.172	3039
925.279	3093
925.387	3233
925.494	3195
925.602	3340
925.709	3317
925.816	3161
925.924	3245
926.031	3363
926.138	3321
926.245	3336
926.352	3245
926.459	3428
926.566	3485
926.673	3302
926.779	3199
926.886	3218
926.993	3119
927.099	3123
927.206	3127
927.312	3108
927.419	3211
927.525	3180
927.631	3260
927.737	3142
927.843	3127
927.95	3005
928.056	3146
928.162	3199
928.267	3279
928.373	3819
928.479	3310
928.585	3077
928.69	3211
928.796	3233
928.901	3169
929.007	3020
929.112	3180
929.218	3169
929.323	3127
929.428	3108
929.533	3294
929.638	3119
929.743	3176
929.848	3218
929.953	3195
930.058	3146
930.163	2982
930.267	3043
930.372	3173
930.477	3024
930.581	3321
930.685	3142
930.79	3039
930.894	3127
930.998	3070
931.103	3283
931.207	2929
931.311	2922
931.415	2906
931.519	2754
931.623	2811
