Data from test_V78500241_273.txt Node
Date: Fri Mar 25 16:17:05 CST 2022
User: usil
Spectrometer: V785-0024
Trigger mode: 0
Integration Time (sec): 4.000000E-1
Scans to average: 1
Nonlinearity correction enabled: false
Boxcar width: 0
Storing dark spectrum: false
XAxis mode: Wavelengths
Number of Pixels in Spectrum: 1024
>>>>>Begin Spectral Data<<<<<
801.071	2910
801.214	2952
801.356	2895
801.499	2899
801.641	2895
801.783	2937
801.926	3081
802.068	3005
802.211	2994
802.353	3024
802.496	2998
802.638	2986
802.78	3108
802.923	3097
803.065	3032
803.208	2883
803.35	2937
803.492	2918
803.635	2925
803.777	2762
803.919	2845
804.061	3157
804.204	2933
804.346	2899
804.488	2887
804.63	2994
804.773	2895
804.915	2922
805.057	3093
805.199	2922
805.341	2986
805.483	3017
805.626	2994
805.768	2956
805.91	3081
806.052	3127
806.194	3013
806.336	3245
806.478	3043
806.62	2990
806.762	2998
806.904	3062
807.046	3157
807.188	3009
807.33	2899
807.472	2982
807.614	2925
807.756	3005
807.898	2937
808.04	2864
808.182	2956
808.324	2952
808.465	2880
808.607	2891
808.749	2819
808.891	2864
809.033	2979
809.174	3001
809.316	2853
809.458	2872
809.6	2773
809.741	2769
809.883	2781
810.025	2834
810.166	2864
810.308	2849
810.45	2842
810.591	2788
810.733	2735
810.875	2883
811.016	2750
811.158	2769
811.299	2811
811.441	2922
811.582	2910
811.724	2853
811.865	2815
812.007	2891
812.148	2880
812.29	2849
812.431	2849
812.573	2937
812.714	2979
812.855	3032
812.997	3020
813.138	3127
813.279	3001
813.421	2986
813.562	2933
813.703	2842
813.845	2864
813.986	2800
814.127	2727
814.268	2781
814.41	2861
814.551	2807
814.692	2872
814.833	2777
814.974	2918
815.115	2941
815.256	2823
815.397	2823
815.539	2853
815.68	2792
815.821	2773
815.962	2941
816.103	2918
816.244	2849
816.385	2834
816.526	2952
816.666	2902
816.807	2724
816.948	2910
817.089	2906
817.23	2834
817.371	2766
817.512	2796
817.653	2781
817.793	2800
817.934	2861
818.075	2975
818.216	3009
818.356	3013
818.497	2891
818.638	2792
818.778	2815
818.919	2773
819.06	2773
819.2	2895
819.341	2804
819.481	2815
819.622	2941
819.762	3074
819.903	3036
820.043	2944
820.184	2910
820.324	2922
820.465	3043
820.605	2994
820.746	3043
820.886	2960
821.026	3108
821.167	3154
821.307	3272
821.447	3317
821.588	3233
821.728	3211
821.868	3214
822.008	3070
822.149	3226
822.289	3279
822.429	3116
822.569	3112
822.709	3211
822.849	3039
822.99	3108
823.13	3180
823.27	3245
823.41	3119
823.55	3150
823.69	3214
823.83	3180
823.97	3104
824.11	3070
824.25	3081
824.389	3127
824.529	3154
824.669	3150
824.809	3222
824.949	3313
825.089	3218
825.228	3211
825.368	3104
825.508	3028
825.648	3013
825.787	3043
825.927	3055
826.067	3020
826.206	3020
826.346	3081
826.485	3142
826.625	3150
826.765	3321
826.904	3211
827.044	3036
827.183	3005
827.323	2899
827.462	3062
827.601	2948
827.741	2956
827.88	2975
828.02	2910
828.159	3020
828.298	3085
828.437	3142
828.577	3093
828.716	3302
828.855	3161
828.994	2982
829.134	2925
829.273	2956
829.412	2941
829.551	2929
829.69	2948
829.829	3043
829.968	3169
830.107	3058
830.246	3062
830.385	2948
830.524	2895
830.663	2861
830.802	2796
830.941	2701
831.08	2682
831.219	2819
831.357	2796
831.496	2998
831.635	2731
831.774	2720
831.913	2712
832.051	2594
832.19	2644
832.329	2727
832.467	2598
832.606	2522
832.744	2594
832.883	2632
833.022	2617
833.16	2686
833.299	2701
833.437	2727
833.576	2750
833.714	2781
833.852	2788
833.991	2800
834.129	2887
834.267	2872
834.406	2842
834.544	2933
834.682	2933
834.821	2880
834.959	3081
835.097	2925
835.235	3100
835.373	3001
835.511	3077
835.65	2994
835.788	2979
835.926	2864
836.064	2861
836.202	2872
836.34	3123
836.478	3150
836.615	3112
836.753	3188
836.891	3264
837.029	3192
837.167	3131
837.305	3165
837.443	3116
837.58	3001
837.718	3192
837.856	3131
837.993	3097
838.131	3165
838.269	3112
838.406	3085
838.544	3085
838.681	2971
838.819	2925
838.956	2864
839.094	2868
839.231	2960
839.369	3047
839.506	3428
839.643	3279
839.781	3055
839.918	2982
840.055	3058
840.193	3062
840.33	3119
840.467	3146
840.604	3150
840.742	3450
840.879	3104
841.016	3062
841.153	3142
841.29	3351
841.427	3351
841.564	3317
841.701	3332
841.838	3260
841.975	3199
842.112	3272
842.249	3127
842.385	3089
842.522	3313
842.659	3138
842.796	3123
842.933	3173
843.069	3085
843.206	3097
843.343	3218
843.479	3157
843.616	3146
843.752	2960
843.889	2899
844.025	3131
844.162	2929
844.298	3108
844.435	2963
844.571	2952
844.708	3104
844.844	3214
844.98	3260
845.117	3211
845.253	3116
845.389	3024
845.525	3135
845.661	3165
845.798	3070
845.934	3150
846.07	3100
846.206	3249
846.342	3332
846.478	3260
846.614	3131
846.75	3127
846.886	3055
847.022	3294
847.158	3161
847.294	3214
847.429	3268
847.565	3249
847.701	3549
847.837	3104
847.972	3039
848.108	3184
848.244	3165
848.379	3013
848.515	2967
848.65	2952
848.786	3005
848.921	3024
849.057	3146
849.192	3169
849.328	3119
849.463	3142
849.598	3074
849.734	3081
849.869	3039
850.004	2944
850.14	2963
850.275	2971
850.41	2872
850.545	2899
850.68	3001
850.815	3013
850.95	3009
851.085	3222
851.22	3104
851.355	3070
851.49	2944
851.625	3017
851.76	3062
851.895	2952
852.03	2941
852.165	3055
852.299	3192
852.434	3237
852.569	3188
852.703	3203
852.838	3279
852.973	3336
853.107	3363
853.242	3157
853.376	3131
853.511	2986
853.645	3074
853.78	3245
853.914	3180
854.048	3165
854.183	3108
854.317	3165
854.451	3302
854.585	3123
854.72	3104
854.854	3264
854.988	3085
855.122	3123
855.256	3039
855.39	3184
855.524	3279
855.658	3211
855.792	3184
855.926	3207
856.06	3237
856.194	3302
856.327	3214
856.461	3097
856.595	3135
856.729	3116
856.862	3268
856.996	3165
857.13	3233
857.263	3275
857.397	3332
857.53	3135
857.664	3233
857.797	3272
857.931	3313
858.064	3169
858.197	3294
858.331	3173
858.464	3127
858.597	3051
858.731	3150
858.864	3165
858.997	3112
859.13	3154
859.263	3211
859.396	3226
859.529	3093
859.662	3108
859.795	3051
859.928	3192
860.061	3291
860.194	3310
860.327	3161
860.46	3165
860.592	3302
860.725	3291
860.858	3253
860.99	3119
861.123	3093
861.256	3093
861.388	3188
861.521	3880
861.653	3047
861.786	3032
861.918	3047
862.05	3089
862.183	3085
862.315	3176
862.447	3199
862.58	3142
862.712	2975
862.844	2880
862.976	3070
863.108	3017
863.24	3348
863.372	2925
863.504	3020
863.636	2963
863.768	3036
863.9	3005
864.032	2971
864.164	2979
864.296	3020
864.428	3127
864.559	3119
864.691	3097
864.823	3100
864.954	3077
865.086	3097
865.217	3005
865.349	2967
865.48	3005
865.612	3032
865.743	3173
865.875	3005
866.006	2986
866.137	2986
866.269	2963
866.4	2937
866.531	2933
866.662	2906
866.793	2918
866.924	2891
867.055	3009
867.186	2948
867.317	2906
867.448	2861
867.579	2853
867.71	2861
867.841	2849
867.972	2948
868.103	2918
868.233	2929
868.364	2883
868.495	2910
868.625	3089
868.756	3176
868.886	2975
869.017	3062
869.147	3207
869.278	3195
869.408	3081
869.539	3051
869.669	3097
869.799	3077
869.929	3207
870.06	3097
870.19	3370
870.32	3310
870.45	3321
870.58	3382
870.71	3450
870.84	3458
870.97	3321
871.1	3283
871.23	3500
871.36	3496
871.489	3431
871.619	3416
871.749	3409
871.879	3439
872.008	3492
872.138	3370
872.267	3283
872.397	3097
872.526	3169
872.656	3055
872.785	3135
872.915	3233
873.044	3355
873.173	3249
873.303	3233
873.432	3241
873.561	3272
873.69	3180
873.819	3127
873.948	3203
874.077	3123
874.206	3062
874.335	3138
874.464	3272
874.593	3348
874.722	3214
874.851	3447
874.979	3359
875.108	3367
875.237	3195
875.365	3188
875.494	3214
875.623	3287
875.751	3070
875.88	3119
876.008	3203
876.136	3249
876.265	3409
876.393	3526
876.521	3447
876.65	3416
876.778	3359
876.906	3230
877.034	3230
877.162	3226
877.29	3180
877.418	3268
877.546	3268
877.674	3279
877.802	3237
877.93	3203
878.058	3161
878.185	3123
878.313	3207
878.441	3222
878.568	3119
878.696	3157
878.824	3233
878.951	3348
879.079	3462
879.206	3614
879.333	3443
879.461	3332
879.588	3412
879.715	3511
879.842	3603
879.97	3374
880.097	3188
880.224	3173
880.351	3207
880.478	3260
880.605	3233
880.732	3180
880.859	3496
880.986	3310
881.112	3325
881.239	3176
881.366	3135
881.493	3058
881.619	3036
881.746	3081
881.872	3127
881.999	3150
882.125	3142
882.252	3275
882.378	3291
882.505	3458
882.631	3313
882.757	3169
882.883	3180
883.01	3230
883.136	3157
883.262	3100
883.388	3138
883.514	3325
883.64	3412
883.766	3294
883.892	3195
884.018	3283
884.143	3412
884.269	3572
884.395	3203
884.52	3188
884.646	3226
884.772	3169
884.897	3157
885.023	3222
885.148	3287
885.274	3412
885.399	3393
885.524	3325
885.65	3298
885.775	3325
885.9	3321
886.025	3469
886.15	3389
886.275	3317
886.4	3233
886.525	3325
886.65	3275
886.775	3298
886.9	3507
887.025	3633
887.149	3389
887.274	3283
887.399	3161
887.523	3226
887.648	3176
887.773	3214
887.897	3412
888.021	3435
888.146	3294
888.27	3477
888.395	3557
888.519	3450
888.643	3515
888.767	3469
888.891	3287
889.015	3233
889.139	3306
889.263	3233
889.387	3412
889.511	3504
889.635	3450
889.759	3294
889.883	3298
890.006	3386
890.13	3473
890.254	3245
890.377	3344
890.501	3260
890.624	3157
890.748	3344
890.871	3176
890.995	3119
891.118	3047
891.241	3218
891.364	3230
891.488	3340
891.611	3218
891.734	3245
891.857	3294
891.98	3249
892.103	3329
892.226	3291
892.349	3192
892.471	3108
892.594	3260
892.717	3310
892.839	3325
892.962	3336
893.085	3355
893.207	3298
893.33	3180
893.452	3176
893.575	3374
893.697	3249
893.819	3481
893.941	3511
894.064	3447
894.186	3298
894.308	3317
894.43	3454
894.552	3549
894.674	3469
894.796	3275
894.918	3336
895.04	3313
895.161	3428
895.283	3389
895.405	3302
895.526	3382
895.648	3435
895.769	3458
895.891	3439
896.012	3504
896.134	3485
896.255	3424
896.376	3397
896.498	3370
896.619	3439
896.74	3344
896.861	3439
896.982	3728
897.103	3880
897.224	3618
897.345	3519
897.466	3458
897.587	3511
897.708	3644
897.828	3500
897.949	3439
898.07	3370
898.19	3420
898.311	3603
898.431	3496
898.552	3466
898.672	3599
898.792	3564
898.913	3507
899.033	3443
899.153	3302
899.273	3203
899.393	3317
899.513	3355
899.633	3336
899.753	3351
899.873	3348
899.993	3386
900.113	3348
900.232	3431
900.352	3355
900.472	3340
900.591	3214
900.711	3275
900.83	3253
900.95	3431
901.069	3500
901.189	3336
901.308	3169
901.427	3146
901.546	3180
901.665	3313
901.784	3348
901.904	3203
902.023	3150
902.141	3001
902.26	2990
902.379	3157
902.498	3085
902.617	3089
902.735	3192
902.854	3241
902.973	3192
903.091	3051
903.21	3001
903.328	3157
903.446	3150
903.565	3100
903.683	3207
903.801	3127
903.919	3226
904.038	3294
904.156	3203
904.274	3317
904.392	3199
904.51	3306
904.627	3344
904.745	3431
904.863	3515
904.981	3245
905.098	3180
905.216	3249
905.334	3306
905.451	3310
905.569	3298
905.686	3409
905.803	3454
905.921	3275
906.038	3435
906.155	3329
906.272	3256
906.389	3313
906.506	3245
906.623	3291
906.74	3272
906.857	3233
906.974	3291
907.091	3458
907.208	3576
907.324	3477
907.441	3397
907.557	3237
907.674	3218
907.79	3214
907.907	3332
908.023	3416
908.139	3374
908.256	3332
908.372	3389
908.488	3332
908.604	3237
908.72	3260
908.836	3287
908.952	3249
909.068	3359
909.184	3458
909.3	3386
909.415	3488
909.531	3500
909.647	3272
909.762	3302
909.878	3256
909.993	3378
910.108	3340
910.224	3344
910.339	3409
910.454	3370
910.57	3298
910.685	3268
910.8	3637
910.915	3549
911.03	3466
911.145	3272
911.259	3310
911.374	3325
911.489	3211
911.604	3287
911.718	3157
911.833	3154
911.947	3055
912.062	3009
912.176	3211
912.291	3207
912.405	3199
912.519	3473
912.633	3492
912.748	3370
912.862	3340
912.976	3184
913.09	3081
913.204	3169
913.318	3241
913.431	3351
913.545	3329
913.659	3450
913.772	3332
913.886	3283
914	3180
914.113	3401
914.226	3416
914.34	3374
914.453	3245
914.566	3401
914.68	3317
914.793	3348
914.906	3165
915.019	3135
915.132	3097
915.245	3154
915.358	3176
915.47	3256
915.583	3306
915.696	3275
915.809	3389
915.921	3466
916.034	3272
916.146	3237
916.259	3233
916.371	3389
916.483	3397
916.595	3279
916.708	3355
916.82	3340
916.932	3355
917.044	3374
917.156	3344
917.268	3260
917.38	3310
917.491	3291
917.603	3363
917.715	3477
917.826	3481
917.938	3378
918.049	3306
918.161	3412
918.272	3618
918.384	3553
918.495	3481
918.606	3332
918.717	3332
918.828	3416
918.939	3439
919.05	3291
919.161	3397
919.272	3195
919.383	3302
919.494	3500
919.604	3644
919.715	3504
919.826	3428
919.936	3443
920.047	3580
920.157	3564
920.267	3778
920.378	3606
920.488	3564
920.598	3785
920.708	3972
920.818	3835
920.928	3831
921.038	4040
921.148	3972
921.258	3720
921.368	3610
921.477	3545
921.587	3530
921.697	3424
921.806	3606
921.916	3523
922.025	3329
922.134	3336
922.244	3317
922.353	3481
922.462	3264
922.571	3245
922.68	3081
922.789	3085
922.898	3154
923.007	3097
923.116	3211
923.224	3192
923.333	3207
923.442	3074
923.55	3093
923.659	3131
923.767	3268
923.876	3104
923.984	3218
924.092	3123
924.201	3203
924.309	3207
924.417	3272
924.525	3222
924.633	3218
924.741	4207
924.849	3024
924.956	3272
925.064	3104
925.172	3036
925.279	3119
925.387	3192
925.494	3207
925.602	3389
925.709	3313
925.816	3188
925.924	3298
926.031	3382
926.138	3340
926.245	3386
926.352	3249
926.459	3431
926.566	3450
926.673	3302
926.779	3222
926.886	3253
926.993	3150
927.099	3123
927.206	3135
927.312	3093
927.419	3230
927.525	3211
927.631	3245
927.737	3138
927.843	3131
927.95	3028
928.056	3165
928.162	3146
928.267	3245
928.373	3869
928.479	3351
928.585	3081
928.69	3184
928.796	3279
928.901	3161
929.007	3039
929.112	3199
929.218	3184
929.323	3116
929.428	3150
929.533	3291
929.638	3116
929.743	3154
929.848	3245
929.953	3283
930.058	3154
930.163	3013
930.267	3051
930.372	3199
930.477	3043
930.581	3298
930.685	3165
930.79	3112
930.894	3104
930.998	3112
931.103	3272
931.207	2971
931.311	2963
931.415	2914
931.519	2815
931.623	2785
