Data from test_V78500241_958.txt Node
Date: Fri Mar 25 16:21:50 CST 2022
User: usil
Spectrometer: V785-0024
Trigger mode: 0
Integration Time (sec): 4.000000E-1
Scans to average: 1
Nonlinearity correction enabled: false
Boxcar width: 0
Storing dark spectrum: false
XAxis mode: Wavelengths
Number of Pixels in Spectrum: 1024
>>>>>Begin Spectral Data<<<<<
801.071	2918
801.214	2960
801.356	2891
801.499	2918
801.641	2880
801.783	2956
801.926	3028
802.068	2948
802.211	2994
802.353	3043
802.496	2975
802.638	3001
802.78	3062
802.923	3055
803.065	3009
803.208	2876
803.35	2906
803.492	2925
803.635	2914
803.777	2769
803.919	2861
804.061	3180
804.204	2952
804.346	2910
804.488	2861
804.63	2982
804.773	2872
804.915	2937
805.057	3066
805.199	2937
805.341	2975
805.483	3043
805.626	3005
805.768	2982
805.91	3093
806.052	3127
806.194	3017
806.336	3222
806.478	3020
806.62	2937
806.762	2986
806.904	3055
807.046	3184
807.188	2990
807.33	2914
807.472	3009
807.614	2891
807.756	2975
807.898	2910
808.04	2883
808.182	2986
808.324	2956
808.465	2883
808.607	2887
808.749	2792
808.891	2857
809.033	2986
809.174	2918
809.316	2868
809.458	2872
809.6	2762
809.741	2777
809.883	2750
810.025	2830
810.166	2826
810.308	2849
810.45	2826
810.591	2792
810.733	2807
810.875	2838
811.016	2796
811.158	2777
811.299	2800
811.441	2906
811.582	2887
811.724	2819
811.865	2800
812.007	2895
812.148	2872
812.29	2853
812.431	2887
812.573	2891
812.714	2967
812.855	3039
812.997	3043
813.138	3108
813.279	3020
813.421	2990
813.562	2937
813.703	2876
813.845	2868
813.986	2773
814.127	2750
814.268	2807
814.41	2830
814.551	2819
814.692	2872
814.833	2815
814.974	2861
815.115	2967
815.256	2826
815.397	2815
815.539	2861
815.68	2785
815.821	2807
815.962	2933
816.103	2910
816.244	2876
816.385	2868
816.526	2952
816.666	2887
816.807	2724
816.948	2868
817.089	2868
817.23	2826
817.371	2716
817.512	2807
817.653	2811
817.793	2807
817.934	2872
818.075	2952
818.216	3001
818.356	3013
818.497	2883
818.638	2788
818.778	2819
818.919	2792
819.06	2750
819.2	2891
819.341	2796
819.481	2796
819.622	2910
819.762	3108
819.903	3077
820.043	2925
820.184	2933
820.324	2883
820.465	3020
820.605	3005
820.746	3051
820.886	2982
821.026	3119
821.167	3165
821.307	3287
821.447	3253
821.588	3230
821.728	3260
821.868	3222
822.008	3097
822.149	3195
822.289	3253
822.429	3131
822.569	3070
822.709	3218
822.849	3032
822.99	3100
823.13	3211
823.27	3237
823.41	3089
823.55	3161
823.69	3169
823.83	3226
823.97	3127
824.11	2998
824.25	3036
824.389	3123
824.529	3146
824.669	3097
824.809	3241
824.949	3272
825.089	3275
825.228	3150
825.368	3036
825.508	3001
825.648	3001
825.787	3062
825.927	3036
826.067	3009
826.206	2994
826.346	3066
826.485	3112
826.625	3157
826.765	3294
826.904	3264
827.044	3032
827.183	2994
827.323	2887
827.462	3036
827.601	2971
827.741	2948
827.88	2971
828.02	2906
828.159	2986
828.298	3062
828.437	3142
828.577	3077
828.716	3283
828.855	3116
828.994	2929
829.134	2937
829.273	2967
829.412	2895
829.551	2876
829.69	2918
829.829	3017
829.968	3154
830.107	3051
830.246	3066
830.385	2922
830.524	2948
830.663	2842
830.802	2766
830.941	2701
831.08	2682
831.219	2739
831.357	2781
831.496	3001
831.635	2754
831.774	2712
831.913	2727
832.051	2598
832.19	2594
832.329	2739
832.467	2606
832.606	2530
832.744	2613
832.883	2610
833.022	2613
833.16	2670
833.299	2705
833.437	2735
833.576	2701
833.714	2758
833.852	2746
833.991	2804
834.129	2849
834.267	2857
834.406	2838
834.544	2868
834.682	2895
834.821	2925
834.959	3074
835.097	2948
835.235	3104
835.373	2971
835.511	3039
835.65	3005
835.788	3017
835.926	2849
836.064	2842
836.202	2861
836.34	3154
836.478	3150
836.615	3093
836.753	3173
836.891	3218
837.029	3214
837.167	3135
837.305	3119
837.443	3070
837.58	3017
837.718	3192
837.856	3104
837.993	3058
838.131	3146
838.269	3077
838.406	3127
838.544	3142
838.681	2979
838.819	2956
838.956	2845
839.094	2883
839.231	2952
839.369	3013
839.506	3405
839.643	3268
839.781	3017
839.918	2998
840.055	3085
840.193	3070
840.33	3081
840.467	3154
840.604	3161
840.742	3382
840.879	3062
841.016	3070
841.153	3131
841.29	3416
841.427	3329
841.564	3325
841.701	3310
841.838	3298
841.975	3230
842.112	3256
842.249	3123
842.385	3062
842.522	3298
842.659	3131
842.796	3081
842.933	3142
843.069	3116
843.206	3104
843.343	3192
843.479	3157
843.616	3180
843.752	2895
843.889	2899
844.025	3119
844.162	2933
844.298	3112
844.435	2979
844.571	2941
844.708	3097
844.844	3192
844.98	3275
845.117	3249
845.253	3070
845.389	3032
845.525	3104
845.661	3119
845.798	3070
845.934	3165
846.07	3112
846.206	3249
846.342	3351
846.478	3275
846.614	3112
846.75	3085
846.886	3028
847.022	3294
847.158	3123
847.294	3256
847.429	3256
847.565	3207
847.701	3545
847.837	3127
847.972	3024
848.108	3188
848.244	3169
848.379	3039
848.515	2990
848.65	2933
848.786	2975
848.921	2994
849.057	3112
849.192	3188
849.328	3089
849.463	3165
849.598	3108
849.734	3043
849.869	3005
850.004	2948
850.14	2971
850.275	2948
850.41	2864
850.545	2891
850.68	2918
850.815	2971
850.95	3013
851.085	3211
851.22	3081
851.355	3047
851.49	3013
851.625	3001
851.76	3020
851.895	2948
852.03	2899
852.165	3039
852.299	3112
852.434	3218
852.569	3161
852.703	3218
852.838	3260
852.973	3329
853.107	3374
853.242	3161
853.376	3116
853.511	2975
853.645	3074
853.78	3268
853.914	3142
854.048	3157
854.183	3119
854.317	3184
854.451	3291
854.585	3127
854.72	3119
854.854	3207
854.988	3043
855.122	3123
855.256	2994
855.39	3119
855.524	3279
855.658	3180
855.792	3165
855.926	3203
856.06	3226
856.194	3310
856.327	3203
856.461	3085
856.595	3093
856.729	3093
856.862	3241
856.996	3199
857.13	3203
857.263	3245
857.397	3279
857.53	3154
857.664	3222
857.797	3291
857.931	3256
858.064	3180
858.197	3268
858.331	3138
858.464	3123
858.597	2990
858.731	3123
858.864	3165
858.997	3131
859.13	3135
859.263	3176
859.396	3214
859.529	3104
859.662	3077
859.795	3062
859.928	3180
860.061	3294
860.194	3310
860.327	3165
860.46	3074
860.592	3264
860.725	3249
860.858	3253
860.99	3108
861.123	3097
861.256	3089
861.388	3157
861.521	3800
861.653	3001
861.786	3013
861.918	3047
862.05	3089
862.183	3142
862.315	3180
862.447	3214
862.58	3108
862.712	2975
862.844	2918
862.976	3039
863.108	3017
863.24	3447
863.372	2895
863.504	3013
863.636	2948
863.768	3032
863.9	2960
864.032	2899
864.164	2971
864.296	3081
864.428	3116
864.559	3104
864.691	3062
864.823	3070
864.954	3066
865.086	3081
865.217	3005
865.349	2952
865.48	3028
865.612	3028
865.743	3176
865.875	3013
866.006	2956
866.137	2994
866.269	2982
866.4	2967
866.531	2944
866.662	2914
866.793	2944
866.924	2952
867.055	2971
867.186	2944
867.317	2899
867.448	2899
867.579	2891
867.71	2861
867.841	2845
867.972	2906
868.103	2914
868.233	2902
868.364	2899
868.495	2910
868.625	3104
868.756	3184
868.886	2956
869.017	3039
869.147	3157
869.278	3123
869.408	3047
869.539	3089
869.669	3100
869.799	3051
869.929	3184
870.06	3165
870.19	3370
870.32	3325
870.45	3291
870.58	3367
870.71	3481
870.84	3481
870.97	3306
871.1	3256
871.23	3485
871.36	3477
871.489	3355
871.619	3386
871.749	3401
871.879	3447
872.008	3466
872.138	3344
872.267	3310
872.397	3169
872.526	3131
872.656	3036
872.785	3123
872.915	3256
873.044	3317
873.173	3207
873.303	3272
873.432	3260
873.561	3245
873.69	3184
873.819	3154
873.948	3233
874.077	3119
874.206	3020
874.335	3123
874.464	3226
874.593	3355
874.722	3233
874.851	3363
874.979	3351
875.108	3325
875.237	3195
875.365	3169
875.494	3169
875.623	3233
875.751	3085
875.88	3123
876.008	3180
876.136	3222
876.265	3416
876.393	3469
876.521	3439
876.65	3382
876.778	3355
876.906	3275
877.034	3245
877.162	3207
877.29	3214
877.418	3287
877.546	3245
877.674	3275
877.802	3241
877.93	3203
878.058	3192
878.185	3100
878.313	3207
878.441	3218
878.568	3077
878.696	3192
878.824	3260
878.951	3313
879.079	3409
879.206	3641
879.333	3485
879.461	3348
879.588	3405
879.715	3519
879.842	3599
879.97	3401
880.097	3180
880.224	3127
880.351	3150
880.478	3253
880.605	3207
880.732	3214
880.859	3500
880.986	3363
881.112	3367
881.239	3211
881.366	3100
881.493	3017
881.619	2998
881.746	3077
881.872	3127
881.999	3085
882.125	3154
882.252	3218
882.378	3306
882.505	3401
882.631	3313
882.757	3222
882.883	3230
883.01	3275
883.136	3184
883.262	3135
883.388	3165
883.514	3325
883.64	3344
883.766	3268
883.892	3203
884.018	3245
884.143	3439
884.269	3526
884.395	3222
884.52	3192
884.646	3184
884.772	3097
884.897	3135
885.023	3237
885.148	3348
885.274	3439
885.399	3374
885.524	3332
885.65	3298
885.775	3355
885.9	3268
886.025	3462
886.15	3348
886.275	3317
886.4	3241
886.525	3332
886.65	3317
886.775	3298
886.9	3519
887.025	3663
887.149	3401
887.274	3279
887.399	3203
887.523	3214
887.648	3211
887.773	3203
887.897	3382
888.021	3374
888.146	3291
888.27	3420
888.395	3557
888.519	3435
888.643	3492
888.767	3477
888.891	3340
889.015	3237
889.139	3291
889.263	3214
889.387	3420
889.511	3526
889.635	3466
889.759	3321
889.883	3321
890.006	3409
890.13	3466
890.254	3233
890.377	3367
890.501	3154
890.624	3192
890.748	3306
890.871	3192
890.995	3131
891.118	3123
891.241	3173
891.364	3222
891.488	3325
891.611	3195
891.734	3195
891.857	3237
891.98	3241
892.103	3367
892.226	3302
892.349	3184
892.471	3123
892.594	3222
892.717	3298
892.839	3287
892.962	3306
893.085	3363
893.207	3275
893.33	3161
893.452	3249
893.575	3332
893.697	3249
893.819	3469
893.941	3511
894.064	3393
894.186	3298
894.308	3291
894.43	3416
894.552	3538
894.674	3496
894.796	3279
894.918	3313
895.04	3302
895.161	3443
895.283	3378
895.405	3268
895.526	3374
895.648	3435
895.769	3443
895.891	3466
896.012	3443
896.134	3458
896.255	3435
896.376	3351
896.498	3363
896.619	3447
896.74	3363
896.861	3435
896.982	3705
897.103	3888
897.224	3591
897.345	3534
897.466	3431
897.587	3500
897.708	3622
897.828	3553
897.949	3443
898.07	3344
898.19	3420
898.311	3618
898.431	3443
898.552	3523
898.672	3587
898.792	3625
898.913	3557
899.033	3405
899.153	3283
899.273	3211
899.393	3329
899.513	3294
899.633	3313
899.753	3386
899.873	3302
899.993	3363
900.113	3329
900.232	3378
900.352	3363
900.472	3302
900.591	3226
900.711	3310
900.83	3222
900.95	3431
901.069	3504
901.189	3351
901.308	3180
901.427	3127
901.546	3184
901.665	3283
901.784	3336
901.904	3222
902.023	3135
902.141	2998
902.26	3017
902.379	3169
902.498	3100
902.617	3093
902.735	3222
902.854	3256
902.973	3207
903.091	3081
903.21	3085
903.328	3108
903.446	3131
903.565	3138
903.683	3180
903.801	3154
903.919	3245
904.038	3279
904.156	3157
904.274	3272
904.392	3260
904.51	3294
904.627	3336
904.745	3454
904.863	3485
904.981	3291
905.098	3150
905.216	3226
905.334	3283
905.451	3298
905.569	3317
905.686	3378
905.803	3473
905.921	3317
906.038	3450
906.155	3325
906.272	3310
906.389	3313
906.506	3249
906.623	3249
906.74	3245
906.857	3203
906.974	3272
907.091	3473
907.208	3538
907.324	3469
907.441	3397
907.557	3214
907.674	3222
907.79	3230
907.907	3264
908.023	3389
908.139	3370
908.256	3344
908.372	3378
908.488	3359
908.604	3279
908.72	3218
908.836	3321
908.952	3298
909.068	3348
909.184	3481
909.3	3409
909.415	3511
909.531	3481
909.647	3256
909.762	3291
909.878	3241
909.993	3302
910.108	3340
910.224	3367
910.339	3401
910.454	3317
910.57	3264
910.685	3264
910.8	3549
910.915	3526
911.03	3424
911.145	3287
911.259	3294
911.374	3272
911.489	3245
911.604	3214
911.718	3173
911.833	3173
911.947	3036
912.062	2975
912.176	3173
912.291	3214
912.405	3249
912.519	3412
912.633	3492
912.748	3348
912.862	3321
912.976	3180
913.09	3066
913.204	3138
913.318	3218
913.431	3332
913.545	3310
913.659	3416
913.772	3344
913.886	3241
914	3237
914.113	3321
914.226	3363
914.34	3401
914.453	3241
914.566	3424
914.68	3233
914.793	3321
914.906	3135
915.019	3119
915.132	3116
915.245	3192
915.358	3176
915.47	3272
915.583	3230
915.696	3272
915.809	3409
915.921	3424
916.034	3287
916.146	3245
916.259	3249
916.371	3389
916.483	3355
916.595	3245
916.708	3325
916.82	3340
916.932	3348
917.044	3325
917.156	3310
917.268	3275
917.38	3268
917.491	3291
917.603	3378
917.715	3431
917.826	3431
917.938	3382
918.049	3237
918.161	3450
918.272	3580
918.384	3564
918.495	3488
918.606	3374
918.717	3287
918.828	3363
918.939	3397
919.05	3348
919.161	3386
919.272	3211
919.383	3275
919.494	3538
919.604	3705
919.715	3515
919.826	3412
919.936	3462
920.047	3561
920.157	3572
920.267	3751
920.378	3576
920.488	3557
920.598	3800
920.708	3964
920.818	3804
920.928	3816
921.038	4044
921.148	3968
921.258	3724
921.368	3599
921.477	3561
921.587	3557
921.697	3458
921.806	3625
921.916	3542
922.025	3329
922.134	3378
922.244	3291
922.353	3409
922.462	3310
922.571	3203
922.68	3116
922.789	3100
922.898	3116
923.007	3138
923.116	3184
923.224	3127
923.333	3184
923.442	3074
923.55	3055
923.659	3131
923.767	3192
923.876	3100
923.984	3211
924.092	3112
924.201	3203
924.309	3237
924.417	3253
924.525	3176
924.633	3214
924.741	4162
924.849	3055
924.956	3264
925.064	3085
925.172	3058
925.279	3150
925.387	3176
925.494	3192
925.602	3340
925.709	3306
925.816	3207
925.924	3264
926.031	3367
926.138	3294
926.245	3344
926.352	3291
926.459	3409
926.566	3481
926.673	3298
926.779	3241
926.886	3245
926.993	3138
927.099	3093
927.206	3116
927.312	3097
927.419	3256
927.525	3226
927.631	3287
927.737	3131
927.843	3135
927.95	3036
928.056	3119
928.162	3154
928.267	3264
928.373	3892
928.479	3325
928.585	3039
928.69	3180
928.796	3253
928.901	3184
929.007	3028
929.112	3211
929.218	3176
929.323	3123
929.428	3142
929.533	3306
929.638	3119
929.743	3116
929.848	3253
929.953	3241
930.058	3108
930.163	2986
930.267	3047
930.372	3184
930.477	3009
930.581	3310
930.685	3173
930.79	3020
930.894	3131
930.998	3081
931.103	3291
931.207	2941
931.311	2971
931.415	2918
931.519	2785
931.623	2819
