Data from test_V78500241_1910.txt Node
Date: Fri Mar 25 16:28:26 CST 2022
User: usil
Spectrometer: V785-0024
Trigger mode: 0
Integration Time (sec): 4.000000E-1
Scans to average: 1
Nonlinearity correction enabled: false
Boxcar width: 0
Storing dark spectrum: false
XAxis mode: Wavelengths
Number of Pixels in Spectrum: 1024
>>>>>Begin Spectral Data<<<<<
801.071	2899
801.214	2937
801.356	2853
801.499	2914
801.641	2910
801.783	2971
801.926	3051
802.068	2967
802.211	2952
802.353	3028
802.496	2963
802.638	3005
802.78	3051
802.923	3062
803.065	3005
803.208	2910
803.35	2925
803.492	2956
803.635	2925
803.777	2788
803.919	2880
804.061	3218
804.204	2944
804.346	2906
804.488	2815
804.63	2944
804.773	2876
804.915	2887
805.057	3074
805.199	2918
805.341	3017
805.483	3062
805.626	3017
805.768	2979
805.91	3074
806.052	3119
806.194	3066
806.336	3230
806.478	3043
806.62	2963
806.762	2982
806.904	3039
807.046	3146
807.188	2971
807.33	2937
807.472	2986
807.614	2922
807.756	3013
807.898	2948
808.04	2883
808.182	2986
808.324	2975
808.465	2880
808.607	2895
808.749	2781
808.891	2849
809.033	3001
809.174	2952
809.316	2883
809.458	2891
809.6	2796
809.741	2769
809.883	2788
810.025	2861
810.166	2864
810.308	2819
810.45	2864
810.591	2807
810.733	2792
810.875	2849
811.016	2800
811.158	2811
811.299	2830
811.441	2929
811.582	2895
811.724	2849
811.865	2826
812.007	2887
812.148	2861
812.29	2857
812.431	2891
812.573	2929
812.714	2963
812.855	3062
812.997	3051
813.138	3135
813.279	3009
813.421	2994
813.562	2956
813.703	2834
813.845	2910
813.986	2815
814.127	2735
814.268	2834
814.41	2819
814.551	2811
814.692	2872
814.833	2845
814.974	2883
815.115	2963
815.256	2864
815.397	2823
815.539	2895
815.68	2815
815.821	2781
815.962	2910
816.103	2929
816.244	2914
816.385	2887
816.526	2971
816.666	2914
816.807	2800
816.948	2906
817.089	2922
817.23	2872
817.371	2785
817.512	2773
817.653	2838
817.793	2826
817.934	2891
818.075	2952
818.216	2979
818.356	2979
818.497	2880
818.638	2823
818.778	2811
818.919	2804
819.06	2781
819.2	2891
819.341	2807
819.481	2826
819.622	2906
819.762	3100
819.903	3028
820.043	2933
820.184	2910
820.324	2906
820.465	3028
820.605	2982
820.746	3005
820.886	2944
821.026	3089
821.167	3173
821.307	3256
821.447	3317
821.588	3268
821.728	3184
821.868	3192
822.008	3070
822.149	3214
822.289	3207
822.429	3070
822.569	3123
822.709	3180
822.849	3081
822.99	3051
823.13	3150
823.27	3203
823.41	3097
823.55	3119
823.69	3173
823.83	3173
823.97	3070
824.11	3009
824.25	2990
824.389	3058
824.529	3112
824.669	3066
824.809	3180
824.949	3237
825.089	3203
825.228	3146
825.368	3013
825.508	2956
825.648	2937
825.787	2986
825.927	3001
826.067	2975
826.206	2944
826.346	3028
826.485	3036
826.625	3104
826.765	3272
826.904	3222
827.044	2975
827.183	2899
827.323	2891
827.462	2975
827.601	2872
827.741	2914
827.88	2948
828.02	2864
828.159	2979
828.298	3039
828.437	3108
828.577	3047
828.716	3218
828.855	3093
828.994	2899
829.134	2861
829.273	2902
829.412	2845
829.551	2864
829.69	2876
829.829	2986
829.968	3146
830.107	3024
830.246	3028
830.385	2963
830.524	2864
830.663	2815
830.802	2697
830.941	2644
831.08	2632
831.219	2766
831.357	2762
831.496	2929
831.635	2712
831.774	2674
831.913	2689
832.051	2552
832.19	2575
832.329	2655
832.467	2533
832.606	2461
832.744	2587
832.883	2594
833.022	2583
833.16	2602
833.299	2674
833.437	2686
833.576	2670
833.714	2705
833.852	2750
833.991	2750
834.129	2830
834.267	2826
834.406	2777
834.544	2864
834.682	2853
834.821	2838
834.959	3058
835.097	2883
835.235	3047
835.373	3043
835.511	3005
835.65	2941
835.788	2979
835.926	2842
836.064	2781
836.202	2842
836.34	3070
836.478	3169
836.615	3051
836.753	3097
836.891	3180
837.029	3192
837.167	3081
837.305	3089
837.443	3051
837.58	2967
837.718	3146
837.856	3051
837.993	3017
838.131	3112
838.269	3127
838.406	3112
838.544	3047
838.681	2941
838.819	2883
838.956	2788
839.094	2826
839.231	2902
839.369	3070
839.506	3401
839.643	3192
839.781	3013
839.918	2952
840.055	3066
840.193	3024
840.33	3039
840.467	3108
840.604	3127
840.742	3340
840.879	3036
841.016	3055
841.153	3112
841.29	3325
841.427	3298
841.564	3253
841.701	3325
841.838	3241
841.975	3119
842.112	3218
842.249	3051
842.385	3032
842.522	3268
842.659	3089
842.796	3112
842.933	3093
843.069	3017
843.206	3058
843.343	3150
843.479	3116
843.616	3169
843.752	2876
843.889	2849
844.025	3051
844.162	2876
844.298	3055
844.435	2975
844.571	2902
844.708	3077
844.844	3192
844.98	3207
845.117	3184
845.253	3036
845.389	3020
845.525	3108
845.661	3135
845.798	3009
845.934	3112
846.07	3047
846.206	3249
846.342	3306
846.478	3199
846.614	3070
846.75	3081
846.886	3039
847.022	3241
847.158	3097
847.294	3207
847.429	3241
847.565	3218
847.701	3523
847.837	3028
847.972	2994
848.108	3150
848.244	3165
848.379	2994
848.515	2941
848.65	2933
848.786	2975
848.921	3013
849.057	3150
849.192	3165
849.328	3066
849.463	3081
849.598	3043
849.734	3020
849.869	2975
850.004	2899
850.14	2918
850.275	2922
850.41	2804
850.545	2853
850.68	2944
850.815	2948
850.95	2952
851.085	3169
851.22	3123
851.355	3047
851.49	2986
851.625	2975
851.76	3001
851.895	2922
852.03	2887
852.165	2990
852.299	3089
852.434	3199
852.569	3112
852.703	3116
852.838	3237
852.973	3378
853.107	3291
853.242	3146
853.376	3119
853.511	2941
853.645	3036
853.78	3233
853.914	3161
854.048	3123
854.183	3043
854.317	3119
854.451	3268
854.585	3100
854.72	3066
854.854	3214
854.988	3036
855.122	3089
855.256	2994
855.39	3154
855.524	3249
855.658	3157
855.792	3165
855.926	3192
856.06	3203
856.194	3245
856.327	3161
856.461	3047
856.595	3077
856.729	3055
856.862	3214
856.996	3176
857.13	3192
857.263	3222
857.397	3260
857.53	3119
857.664	3214
857.797	3222
857.931	3253
858.064	3176
858.197	3222
858.331	3108
858.464	3100
858.597	3001
858.731	3116
858.864	3119
858.997	3093
859.13	3161
859.263	3142
859.396	3249
859.529	3066
859.662	3097
859.795	3032
859.928	3138
860.061	3222
860.194	3287
860.327	3142
860.46	3070
860.592	3226
860.725	3211
860.858	3214
860.99	3081
861.123	3017
861.256	3070
861.388	3150
861.521	3793
861.653	3005
861.786	2960
861.918	2990
862.05	3039
862.183	3108
862.315	3161
862.447	3173
862.58	3093
862.712	2914
862.844	2883
862.976	2994
863.108	3001
863.24	3336
863.372	2868
863.504	2941
863.636	2895
863.768	3055
863.9	2941
864.032	2906
864.164	2948
864.296	3028
864.428	3081
864.559	3043
864.691	3066
864.823	3028
864.954	3036
865.086	3036
865.217	3009
865.349	2922
865.48	2994
865.612	3028
865.743	3154
865.875	2998
866.006	2910
866.137	2986
866.269	2960
866.4	2910
866.531	2910
866.662	2861
866.793	2868
866.924	2914
867.055	2960
867.186	2910
867.317	2891
867.448	2807
867.579	2849
867.71	2804
867.841	2792
867.972	2895
868.103	2906
868.233	2891
868.364	2902
868.495	2910
868.625	3093
868.756	3127
868.886	2952
869.017	3020
869.147	3207
869.278	3146
869.408	3077
869.539	2998
869.669	3089
869.799	3036
869.929	3142
870.06	3135
870.19	3325
870.32	3268
870.45	3306
870.58	3389
870.71	3473
870.84	3424
870.97	3253
871.1	3226
871.23	3473
871.36	3424
871.489	3370
871.619	3367
871.749	3351
871.879	3428
872.008	3473
872.138	3351
872.267	3275
872.397	3138
872.526	3108
872.656	3039
872.785	3116
872.915	3211
873.044	3348
873.173	3195
873.303	3260
873.432	3226
873.561	3245
873.69	3146
873.819	3142
873.948	3184
874.077	3093
874.206	3017
874.335	3032
874.464	3203
874.593	3363
874.722	3230
874.851	3374
874.979	3329
875.108	3310
875.237	3165
875.365	3165
875.494	3176
875.623	3249
875.751	3100
875.88	3116
876.008	3180
876.136	3207
876.265	3370
876.393	3523
876.521	3435
876.65	3367
876.778	3340
876.906	3237
877.034	3192
877.162	3237
877.29	3188
877.418	3241
877.546	3245
877.674	3260
877.802	3237
877.93	3184
878.058	3154
878.185	3051
878.313	3199
878.441	3165
878.568	3066
878.696	3146
878.824	3211
878.951	3268
879.079	3431
879.206	3625
879.333	3435
879.461	3363
879.588	3409
879.715	3504
879.842	3580
879.97	3374
880.097	3135
880.224	3127
880.351	3176
880.478	3230
880.605	3176
880.732	3180
880.859	3477
880.986	3287
881.112	3329
881.239	3211
881.366	3070
881.493	3024
881.619	3013
881.746	3070
881.872	3070
881.999	3089
882.125	3138
882.252	3233
882.378	3294
882.505	3450
882.631	3264
882.757	3154
882.883	3203
883.01	3249
883.136	3176
883.262	3093
883.388	3093
883.514	3332
883.64	3359
883.766	3260
883.892	3199
884.018	3260
884.143	3409
884.269	3507
884.395	3188
884.52	3135
884.646	3199
884.772	3150
884.897	3062
885.023	3142
885.148	3348
885.274	3393
885.399	3344
885.524	3268
885.65	3249
885.775	3321
885.9	3283
886.025	3420
886.15	3348
886.275	3298
886.4	3249
886.525	3279
886.65	3272
886.775	3294
886.9	3424
887.025	3603
887.149	3370
887.274	3226
887.399	3150
887.523	3192
887.648	3161
887.773	3184
887.897	3367
888.021	3435
888.146	3260
888.27	3416
888.395	3534
888.519	3466
888.643	3431
888.767	3488
888.891	3268
889.015	3249
889.139	3294
889.263	3241
889.387	3416
889.511	3507
889.635	3435
889.759	3291
889.883	3325
890.006	3382
890.13	3488
890.254	3275
890.377	3336
890.501	3207
890.624	3157
890.748	3325
890.871	3173
890.995	3070
891.118	3070
891.241	3176
891.364	3222
891.488	3291
891.611	3173
891.734	3211
891.857	3272
891.98	3226
892.103	3302
892.226	3241
892.349	3176
892.471	3081
892.594	3245
892.717	3279
892.839	3218
892.962	3310
893.085	3382
893.207	3272
893.33	3127
893.452	3188
893.575	3313
893.697	3241
893.819	3481
893.941	3504
894.064	3416
894.186	3256
894.308	3256
894.43	3469
894.552	3557
894.674	3458
894.796	3264
894.918	3359
895.04	3237
895.161	3439
895.283	3416
895.405	3298
895.526	3329
895.648	3466
895.769	3382
895.891	3454
896.012	3515
896.134	3447
896.255	3416
896.376	3409
896.498	3367
896.619	3401
896.74	3363
896.861	3393
896.982	3694
897.103	3827
897.224	3599
897.345	3485
897.466	3435
897.587	3500
897.708	3606
897.828	3534
897.949	3447
898.07	3294
898.19	3389
898.311	3584
898.431	3405
898.552	3561
898.672	3629
898.792	3610
898.913	3530
899.033	3344
899.153	3249
899.273	3214
899.393	3237
899.513	3325
899.633	3321
899.753	3329
899.873	3329
899.993	3363
900.113	3348
900.232	3382
900.352	3310
900.472	3287
900.591	3237
900.711	3313
900.83	3233
900.95	3424
901.069	3496
901.189	3355
901.308	3173
901.427	3119
901.546	3188
901.665	3302
901.784	3294
901.904	3214
902.023	3173
902.141	3028
902.26	2994
902.379	3169
902.498	3036
902.617	3097
902.735	3199
902.854	3203
902.973	3142
903.091	3028
903.21	3077
903.328	3131
903.446	3104
903.565	3108
903.683	3241
903.801	3104
903.919	3268
904.038	3253
904.156	3165
904.274	3275
904.392	3253
904.51	3325
904.627	3317
904.745	3443
904.863	3504
904.981	3245
905.098	3173
905.216	3222
905.334	3279
905.451	3313
905.569	3313
905.686	3439
905.803	3416
905.921	3310
906.038	3454
906.155	3302
906.272	3279
906.389	3298
906.506	3192
906.623	3272
906.74	3256
906.857	3169
906.974	3245
907.091	3420
907.208	3549
907.324	3481
907.441	3405
907.557	3253
907.674	3241
907.79	3207
907.907	3260
908.023	3409
908.139	3367
908.256	3317
908.372	3359
908.488	3370
908.604	3253
908.72	3199
908.836	3287
908.952	3317
909.068	3332
909.184	3477
909.3	3374
909.415	3466
909.531	3492
909.647	3275
909.762	3291
909.878	3256
909.993	3340
910.108	3340
910.224	3310
910.339	3382
910.454	3332
910.57	3310
910.685	3237
910.8	3599
910.915	3549
911.03	3439
911.145	3249
911.259	3199
911.374	3291
911.489	3237
911.604	3203
911.718	3154
911.833	3173
911.947	3024
912.062	2975
912.176	3116
912.291	3199
912.405	3150
912.519	3401
912.633	3466
912.748	3370
912.862	3279
912.976	3154
913.09	3062
913.204	3138
913.318	3218
913.431	3294
913.545	3283
913.659	3416
913.772	3325
913.886	3218
914	3203
914.113	3325
914.226	3412
914.34	3389
914.453	3211
914.566	3424
914.68	3272
914.793	3321
914.906	3157
915.019	3112
915.132	3077
915.245	3180
915.358	3184
915.47	3272
915.583	3264
915.696	3317
915.809	3405
915.921	3409
916.034	3283
916.146	3294
916.259	3218
916.371	3367
916.483	3378
916.595	3291
916.708	3351
916.82	3329
916.932	3340
917.044	3344
917.156	3336
917.268	3279
917.38	3313
917.491	3298
917.603	3355
917.715	3462
917.826	3424
917.938	3374
918.049	3275
918.161	3454
918.272	3545
918.384	3553
918.495	3496
918.606	3317
918.717	3260
918.828	3397
918.939	3431
919.05	3287
919.161	3344
919.272	3207
919.383	3310
919.494	3492
919.604	3694
919.715	3507
919.826	3412
919.936	3443
920.047	3549
920.157	3557
920.267	3778
920.378	3618
920.488	3591
920.598	3804
920.708	3937
920.818	3842
920.928	3762
921.038	4006
921.148	3987
921.258	3660
921.368	3610
921.477	3603
921.587	3542
921.697	3462
921.806	3580
921.916	3534
922.025	3355
922.134	3340
922.244	3283
922.353	3447
922.462	3260
922.571	3199
922.68	3119
922.789	3058
922.898	3100
923.007	3100
923.116	3207
923.224	3142
923.333	3214
923.442	3127
923.55	3074
923.659	3142
923.767	3245
923.876	3070
923.984	3233
924.092	3138
924.201	3188
924.309	3207
924.417	3241
924.525	3180
924.633	3218
924.741	3998
924.849	3070
924.956	3226
925.064	3097
925.172	3036
925.279	3104
925.387	3203
925.494	3222
925.602	3313
925.709	3332
925.816	3214
925.924	3321
926.031	3382
926.138	3370
926.245	3325
926.352	3264
926.459	3378
926.566	3447
926.673	3329
926.779	3245
926.886	3256
926.993	3146
927.099	3097
927.206	3093
927.312	3138
927.419	3256
927.525	3241
927.631	3256
927.737	3146
927.843	3138
927.95	3032
928.056	3127
928.162	3176
928.267	3237
928.373	3831
928.479	3355
928.585	3074
928.69	3195
928.796	3275
928.901	3199
929.007	3066
929.112	3203
929.218	3173
929.323	3138
929.428	3123
929.533	3325
929.638	3104
929.743	3146
929.848	3256
929.953	3199
930.058	3142
930.163	2967
930.267	3074
930.372	3214
930.477	3055
930.581	3332
930.685	3127
930.79	3055
930.894	3093
930.998	3108
931.103	3275
931.207	2941
931.311	2922
931.415	2952
931.519	2762
931.623	2750
