Data from test_V78500241_527.txt Node
Date: Fri Mar 25 16:18:51 CST 2022
User: usil
Spectrometer: V785-0024
Trigger mode: 0
Integration Time (sec): 4.000000E-1
Scans to average: 1
Nonlinearity correction enabled: false
Boxcar width: 0
Storing dark spectrum: false
XAxis mode: Wavelengths
Number of Pixels in Spectrum: 1024
>>>>>Begin Spectral Data<<<<<
801.071	2918
801.214	2963
801.356	2883
801.499	2944
801.641	2872
801.783	2948
801.926	3066
802.068	2998
802.211	2982
802.353	3032
802.496	2960
802.638	3051
802.78	3055
802.923	3051
803.065	3005
803.208	2876
803.35	2883
803.492	2925
803.635	2925
803.777	2750
803.919	2857
804.061	3214
804.204	2929
804.346	2952
804.488	2899
804.63	2956
804.773	2883
804.915	2895
805.057	3097
805.199	2922
805.341	2986
805.483	3036
805.626	3020
805.768	2937
805.91	3081
806.052	3119
806.194	3013
806.336	3256
806.478	3036
806.62	2971
806.762	3005
806.904	3074
807.046	3169
807.188	2998
807.33	2975
807.472	3001
807.614	2944
807.756	3024
807.898	2918
808.04	2876
808.182	2971
808.324	2990
808.465	2910
808.607	2902
808.749	2815
808.891	2857
809.033	2982
809.174	2990
809.316	2937
809.458	2944
809.6	2800
809.741	2811
809.883	2777
810.025	2864
810.166	2914
810.308	2864
810.45	2883
810.591	2834
810.733	2796
810.875	2891
811.016	2819
811.158	2792
811.299	2830
811.441	2960
811.582	2952
811.724	2864
811.865	2876
812.007	2929
812.148	2899
812.29	2872
812.431	2929
812.573	2960
812.714	2986
812.855	3066
812.997	3089
813.138	3146
813.279	3047
813.421	3020
813.562	3001
813.703	2937
813.845	2910
813.986	2845
814.127	2735
814.268	2872
814.41	2880
814.551	2864
814.692	2952
814.833	2830
814.974	2925
815.115	2937
815.256	2868
815.397	2868
815.539	2933
815.68	2834
815.821	2804
815.962	2975
816.103	2990
816.244	2891
816.385	2872
816.526	3013
816.666	2914
816.807	2777
816.948	2880
817.089	2960
817.23	2883
817.371	2785
817.512	2857
817.653	2823
817.793	2861
817.934	2891
818.075	2975
818.216	3005
818.356	3039
818.497	2906
818.638	2845
818.778	2849
818.919	2819
819.06	2811
819.2	2906
819.341	2811
819.481	2876
819.622	2937
819.762	3070
819.903	3066
820.043	2960
820.184	2910
820.324	2922
820.465	3043
820.605	3036
820.746	3070
820.886	2963
821.026	3138
821.167	3188
821.307	3275
821.447	3325
821.588	3260
821.728	3230
821.868	3218
822.008	3097
822.149	3211
822.289	3222
822.429	3104
822.569	3131
822.709	3222
822.849	3058
822.99	3093
823.13	3188
823.27	3211
823.41	3161
823.55	3176
823.69	3203
823.83	3214
823.97	3142
824.11	3005
824.25	2990
824.389	3112
824.529	3119
824.669	3062
824.809	3230
824.949	3249
825.089	3226
825.228	3169
825.368	3028
825.508	2986
825.648	2998
825.787	3043
825.927	3032
826.067	3017
826.206	2944
826.346	3081
826.485	3131
826.625	3097
826.765	3283
826.904	3233
827.044	3047
827.183	2963
827.323	2876
827.462	3013
827.601	2948
827.741	2929
827.88	3001
828.02	2887
828.159	3001
828.298	3085
828.437	3146
828.577	3070
828.716	3275
828.855	3085
828.994	2944
829.134	2895
829.273	2929
829.412	2910
829.551	2914
829.69	2937
829.829	2998
829.968	3116
830.107	3028
830.246	3043
830.385	2929
830.524	2861
830.663	2800
830.802	2731
830.941	2648
831.08	2659
831.219	2796
831.357	2788
831.496	2960
831.635	2739
831.774	2701
831.913	2678
832.051	2556
832.19	2610
832.329	2686
832.467	2560
832.606	2499
832.744	2571
832.883	2602
833.022	2606
833.16	2655
833.299	2697
833.437	2746
833.576	2724
833.714	2773
833.852	2746
833.991	2781
834.129	2804
834.267	2857
834.406	2800
834.544	2914
834.682	2872
834.821	2902
834.959	3077
835.097	2899
835.235	3066
835.373	2982
835.511	3043
835.65	2994
835.788	2994
835.926	2872
836.064	2857
836.202	2864
836.34	3116
836.478	3127
836.615	3074
836.753	3176
836.891	3241
837.029	3188
837.167	3135
837.305	3100
837.443	3051
837.58	3017
837.718	3154
837.856	3039
837.993	3085
838.131	3146
838.269	3112
838.406	3081
838.544	3081
838.681	2960
838.819	2948
838.956	2864
839.094	2842
839.231	2925
839.369	3032
839.506	3386
839.643	3214
839.781	3047
839.918	2979
840.055	3081
840.193	3097
840.33	3123
840.467	3089
840.604	3188
840.742	3435
840.879	3066
841.016	3074
841.153	3123
841.29	3336
841.427	3348
841.564	3275
841.701	3359
841.838	3233
841.975	3207
842.112	3214
842.249	3093
842.385	3036
842.522	3264
842.659	3127
842.796	3089
842.933	3116
843.069	3070
843.206	3032
843.343	3195
843.479	3104
843.616	3142
843.752	2914
843.889	2902
844.025	3093
844.162	2887
844.298	3131
844.435	2948
844.571	2944
844.708	3077
844.844	3165
844.98	3222
845.117	3272
845.253	3077
845.389	3036
845.525	3135
845.661	3165
845.798	3005
845.934	3131
846.07	3085
846.206	3230
846.342	3344
846.478	3241
846.614	3127
846.75	3089
846.886	3047
847.022	3268
847.158	3211
847.294	3214
847.429	3275
847.565	3233
847.701	3515
847.837	3009
847.972	3017
848.108	3157
848.244	3161
848.379	3017
848.515	2944
848.65	2918
848.786	2944
848.921	3051
849.057	3116
849.192	3165
849.328	3066
849.463	3108
849.598	3047
849.734	3051
849.869	2979
850.004	2929
850.14	2967
850.275	2925
850.41	2868
850.545	2914
850.68	2967
850.815	2967
850.95	2979
851.085	3176
851.22	3154
851.355	3043
851.49	2979
851.625	3005
851.76	3043
851.895	2925
852.03	2918
852.165	3058
852.299	3100
852.434	3192
852.569	3142
852.703	3173
852.838	3249
852.973	3348
853.107	3386
853.242	3142
853.376	3085
853.511	3001
853.645	3058
853.78	3233
853.914	3116
854.048	3081
854.183	3089
854.317	3161
854.451	3325
854.585	3112
854.72	3074
854.854	3214
854.988	3074
855.122	3112
855.256	3013
855.39	3146
855.524	3230
855.658	3150
855.792	3180
855.926	3203
856.06	3203
856.194	3272
856.327	3169
856.461	3104
856.595	3089
856.729	3150
856.862	3245
856.996	3188
857.13	3199
857.263	3211
857.397	3298
857.53	3138
857.664	3233
857.797	3245
857.931	3237
858.064	3180
858.197	3218
858.331	3108
858.464	3131
858.597	3051
858.731	3142
858.864	3146
858.997	3085
859.13	3165
859.263	3199
859.396	3249
859.529	3074
859.662	3100
859.795	3047
859.928	3142
860.061	3260
860.194	3294
860.327	3123
860.46	3131
860.592	3268
860.725	3260
860.858	3222
860.99	3112
861.123	3089
861.256	3062
861.388	3157
861.521	3884
861.653	3028
861.786	2967
861.918	3013
862.05	3070
862.183	3131
862.315	3138
862.447	3237
862.58	3142
862.712	2933
862.844	2891
862.976	3039
863.108	3009
863.24	3443
863.372	2883
863.504	2956
863.636	2982
863.768	3062
863.9	3028
864.032	2944
864.164	2960
864.296	3013
864.428	3097
864.559	3081
864.691	3077
864.823	3100
864.954	3058
865.086	3028
865.217	3013
865.349	2979
865.48	3005
865.612	3047
865.743	3192
865.875	2990
866.006	2967
866.137	2971
866.269	2948
866.4	2967
866.531	2906
866.662	2853
866.793	2925
866.924	2914
867.055	2956
867.186	2922
867.317	2922
867.448	2864
867.579	2857
867.71	2845
867.841	2819
867.972	2910
868.103	2914
868.233	2895
868.364	2880
868.495	2944
868.625	3058
868.756	3188
868.886	2990
869.017	3032
869.147	3169
869.278	3161
869.408	3066
869.539	3047
869.669	3142
869.799	3020
869.929	3112
870.06	3116
870.19	3306
870.32	3275
870.45	3329
870.58	3370
870.71	3435
870.84	3450
870.97	3313
871.1	3237
871.23	3454
871.36	3428
871.489	3344
871.619	3401
871.749	3397
871.879	3416
872.008	3492
872.138	3332
872.267	3287
872.397	3138
872.526	3108
872.656	3009
872.785	3119
872.915	3222
873.044	3332
873.173	3245
873.303	3245
873.432	3245
873.561	3230
873.69	3173
873.819	3104
873.948	3214
874.077	3097
874.206	3055
874.335	3074
874.464	3207
874.593	3359
874.722	3298
874.851	3412
874.979	3306
875.108	3329
875.237	3199
875.365	3180
875.494	3146
875.623	3256
875.751	3116
875.88	3100
876.008	3157
876.136	3249
876.265	3359
876.393	3515
876.521	3405
876.65	3401
876.778	3313
876.906	3268
877.034	3188
877.162	3195
877.29	3165
877.418	3241
877.546	3249
877.674	3268
877.802	3218
877.93	3214
878.058	3131
878.185	3104
878.313	3192
878.441	3214
878.568	3055
878.696	3116
878.824	3275
878.951	3291
879.079	3469
879.206	3625
879.333	3447
879.461	3332
879.588	3351
879.715	3462
879.842	3641
879.97	3382
880.097	3184
880.224	3135
880.351	3203
880.478	3184
880.605	3188
880.732	3203
880.859	3485
880.986	3260
881.112	3329
881.239	3222
881.366	3066
881.493	3039
881.619	3055
881.746	3081
881.872	3085
881.999	3062
882.125	3142
882.252	3268
882.378	3287
882.505	3435
882.631	3294
882.757	3135
882.883	3165
883.01	3214
883.136	3184
883.262	3097
883.388	3127
883.514	3294
883.64	3428
883.766	3332
883.892	3184
884.018	3275
884.143	3409
884.269	3523
884.395	3222
884.52	3131
884.646	3226
884.772	3119
884.897	3116
885.023	3230
885.148	3351
885.274	3439
885.399	3367
885.524	3310
885.65	3272
885.775	3382
885.9	3291
886.025	3439
886.15	3355
886.275	3291
886.4	3245
886.525	3264
886.65	3275
886.775	3256
886.9	3504
887.025	3610
887.149	3386
887.274	3249
887.399	3169
887.523	3222
887.648	3161
887.773	3203
887.897	3359
888.021	3412
888.146	3306
888.27	3409
888.395	3496
888.519	3409
888.643	3439
888.767	3450
888.891	3329
889.015	3233
889.139	3256
889.263	3291
889.387	3393
889.511	3469
889.635	3454
889.759	3283
889.883	3291
890.006	3374
890.13	3492
890.254	3275
890.377	3329
890.501	3199
890.624	3184
890.748	3306
890.871	3192
890.995	3112
891.118	3066
891.241	3146
891.364	3214
891.488	3332
891.611	3195
891.734	3207
891.857	3325
891.98	3214
892.103	3332
892.226	3283
892.349	3192
892.471	3135
892.594	3230
892.717	3294
892.839	3241
892.962	3306
893.085	3397
893.207	3272
893.33	3135
893.452	3214
893.575	3348
893.697	3275
893.819	3477
893.941	3481
894.064	3447
894.186	3298
894.308	3294
894.43	3466
894.552	3515
894.674	3469
894.796	3279
894.918	3302
895.04	3313
895.161	3428
895.283	3359
895.405	3336
895.526	3359
895.648	3443
895.769	3424
895.891	3485
896.012	3507
896.134	3477
896.255	3409
896.376	3370
896.498	3374
896.619	3420
896.74	3348
896.861	3409
896.982	3675
897.103	3827
897.224	3545
897.345	3500
897.466	3462
897.587	3458
897.708	3629
897.828	3515
897.949	3443
898.07	3291
898.19	3389
898.311	3633
898.431	3431
898.552	3515
898.672	3595
898.792	3580
898.913	3534
899.033	3382
899.153	3321
899.273	3173
899.393	3264
899.513	3313
899.633	3329
899.753	3325
899.873	3268
899.993	3378
900.113	3332
900.232	3378
900.352	3321
900.472	3287
900.591	3199
900.711	3287
900.83	3226
900.95	3382
901.069	3454
901.189	3332
901.308	3192
901.427	3127
901.546	3188
901.665	3253
901.784	3348
901.904	3214
902.023	3131
902.141	3005
902.26	2967
902.379	3093
902.498	3058
902.617	3070
902.735	3199
902.854	3230
902.973	3211
903.091	3043
903.21	3047
903.328	3123
903.446	3138
903.565	3093
903.683	3237
903.801	3112
903.919	3245
904.038	3298
904.156	3157
904.274	3268
904.392	3241
904.51	3317
904.627	3313
904.745	3454
904.863	3485
904.981	3287
905.098	3146
905.216	3230
905.334	3321
905.451	3283
905.569	3310
905.686	3428
905.803	3420
905.921	3287
906.038	3412
906.155	3351
906.272	3245
906.389	3336
906.506	3241
906.623	3245
906.74	3260
906.857	3188
906.974	3264
907.091	3447
907.208	3561
907.324	3488
907.441	3355
907.557	3241
907.674	3268
907.79	3218
907.907	3283
908.023	3332
908.139	3340
908.256	3344
908.372	3386
908.488	3348
908.604	3287
908.72	3218
908.836	3275
908.952	3306
909.068	3313
909.184	3477
909.3	3389
909.415	3519
909.531	3435
909.647	3313
909.762	3237
909.878	3241
909.993	3401
910.108	3329
910.224	3313
910.339	3401
910.454	3317
910.57	3291
910.685	3218
910.8	3561
910.915	3595
911.03	3454
911.145	3241
911.259	3253
911.374	3287
911.489	3226
911.604	3195
911.718	3097
911.833	3135
911.947	3047
912.062	2971
912.176	3165
912.291	3203
912.405	3199
912.519	3443
912.633	3454
912.748	3325
912.862	3287
912.976	3169
913.09	3043
913.204	3142
913.318	3188
913.431	3298
913.545	3294
913.659	3389
913.772	3317
913.886	3222
914	3161
914.113	3306
914.226	3424
914.34	3367
914.453	3245
914.566	3412
914.68	3329
914.793	3306
914.906	3146
915.019	3119
915.132	3104
915.245	3142
915.358	3218
915.47	3226
915.583	3241
915.696	3291
915.809	3412
915.921	3412
916.034	3199
916.146	3249
916.259	3230
916.371	3386
916.483	3382
916.595	3245
916.708	3336
916.82	3344
916.932	3336
917.044	3336
917.156	3374
917.268	3260
917.38	3245
917.491	3272
917.603	3351
917.715	3424
917.826	3458
917.938	3409
918.049	3279
918.161	3450
918.272	3572
918.384	3572
918.495	3485
918.606	3329
918.717	3272
918.828	3378
918.939	3386
919.05	3329
919.161	3370
919.272	3161
919.383	3222
919.494	3500
919.604	3667
919.715	3481
919.826	3389
919.936	3481
920.047	3534
920.157	3545
920.267	3755
920.378	3606
920.488	3538
920.598	3759
920.708	3949
920.818	3842
920.928	3831
921.038	4010
921.148	3998
921.258	3686
921.368	3644
921.477	3584
921.587	3561
921.697	3435
921.806	3637
921.916	3526
922.025	3348
922.134	3386
922.244	3279
922.353	3412
922.462	3260
922.571	3192
922.68	3081
922.789	3047
922.898	3119
923.007	3089
923.116	3192
923.224	3138
923.333	3188
923.442	3074
923.55	3085
923.659	3146
923.767	3218
923.876	3119
923.984	3188
924.092	3089
924.201	3188
924.309	3184
924.417	3226
924.525	3192
924.633	3260
924.741	4173
924.849	3039
924.956	3283
925.064	3093
925.172	3047
925.279	3100
925.387	3173
925.494	3188
925.602	3359
925.709	3336
925.816	3192
925.924	3226
926.031	3389
926.138	3329
926.245	3351
926.352	3245
926.459	3412
926.566	3466
926.673	3283
926.779	3241
926.886	3230
926.993	3161
927.099	3138
927.206	3127
927.312	3123
927.419	3249
927.525	3161
927.631	3260
927.737	3100
927.843	3131
927.95	3032
928.056	3116
928.162	3207
928.267	3264
928.373	3778
928.479	3317
928.585	3062
928.69	3207
928.796	3230
928.901	3180
929.007	3020
929.112	3207
929.218	3207
929.323	3112
929.428	3161
929.533	3310
929.638	3119
929.743	3173
929.848	3279
929.953	3214
930.058	3157
930.163	3001
930.267	3047
930.372	3226
930.477	2998
930.581	3287
930.685	3127
930.79	3066
930.894	3097
930.998	3081
931.103	3291
931.207	2960
931.311	2914
931.415	2933
931.519	2758
931.623	2792
