Data from test_V78500241_154.txt Node
Date: Fri Mar 25 16:16:16 CST 2022
User: usil
Spectrometer: V785-0024
Trigger mode: 0
Integration Time (sec): 4.000000E-1
Scans to average: 1
Nonlinearity correction enabled: false
Boxcar width: 0
Storing dark spectrum: false
XAxis mode: Wavelengths
Number of Pixels in Spectrum: 1024
>>>>>Begin Spectral Data<<<<<
801.071	2952
801.214	3009
801.356	2914
801.499	2956
801.641	2883
801.783	2941
801.926	3093
802.068	3001
802.211	3024
802.353	3043
802.496	2956
802.638	2990
802.78	3081
802.923	3127
803.065	3036
803.208	2971
803.35	2952
803.492	2937
803.635	2944
803.777	2796
803.919	2887
804.061	3245
804.204	2975
804.346	2986
804.488	2887
804.63	2975
804.773	2906
804.915	2952
805.057	3154
805.199	2998
805.341	3017
805.483	3074
805.626	3028
805.768	3001
805.91	3157
806.052	3180
806.194	3097
806.336	3272
806.478	3055
806.62	3013
806.762	3024
806.904	3138
807.046	3214
807.188	3055
807.33	2982
807.472	3001
807.614	2933
807.756	3024
807.898	3005
808.04	2925
808.182	3024
808.324	3039
808.465	2952
808.607	2963
808.749	2842
808.891	2895
809.033	3058
809.174	3013
809.316	2975
809.458	2952
809.6	2823
809.741	2845
809.883	2815
810.025	2937
810.166	2895
810.308	2883
810.45	2918
810.591	2823
810.733	2807
810.875	2891
811.016	2819
811.158	2819
811.299	2853
811.441	3001
811.582	2956
811.724	2902
811.865	2880
812.007	2971
812.148	2941
812.29	2922
812.431	2944
812.573	2971
812.714	2963
812.855	3127
812.997	3074
813.138	3180
813.279	3070
813.421	3039
813.562	3009
813.703	2918
813.845	2941
813.986	2868
814.127	2758
814.268	2876
814.41	2929
814.551	2842
814.692	2918
814.833	2853
814.974	2933
815.115	3017
815.256	2883
815.397	2853
815.539	2906
815.68	2823
815.821	2861
815.962	3017
816.103	2994
816.244	2960
816.385	2910
816.526	3013
816.666	2971
816.807	2804
816.948	2929
817.089	2960
817.23	2899
817.371	2842
817.512	2819
817.653	2887
817.793	2849
817.934	2925
818.075	3024
818.216	3020
818.356	3070
818.497	2952
818.638	2811
818.778	2849
818.919	2861
819.06	2807
819.2	2883
819.341	2864
819.481	2826
819.622	2975
819.762	3176
819.903	3108
820.043	2952
820.184	2944
820.324	2975
820.465	3047
820.605	3070
820.746	3089
820.886	2971
821.026	3146
821.167	3233
821.307	3298
821.447	3329
821.588	3291
821.728	3279
821.868	3268
822.008	3135
822.149	3233
822.289	3332
822.429	3165
822.569	3176
822.709	3230
822.849	3089
822.99	3104
823.13	3184
823.27	3241
823.41	3142
823.55	3253
823.69	3188
823.83	3207
823.97	3138
824.11	3043
824.25	3047
824.389	3184
824.529	3157
824.669	3142
824.809	3245
824.949	3279
825.089	3253
825.228	3245
825.368	3051
825.508	2998
825.648	3032
825.787	3074
825.927	3055
826.067	3020
826.206	3020
826.346	3077
826.485	3119
826.625	3165
826.765	3287
826.904	3256
827.044	3017
827.183	2971
827.323	2933
827.462	3013
827.601	2952
827.741	3013
827.88	3043
828.02	2944
828.159	3047
828.298	3093
828.437	3154
828.577	3051
828.716	3310
828.855	3097
828.994	2948
829.134	2914
829.273	2986
829.412	2895
829.551	2906
829.69	2925
829.829	3017
829.968	3207
830.107	3070
830.246	3089
830.385	2963
830.524	2925
830.663	2849
830.802	2777
830.941	2708
831.08	2644
831.219	2804
831.357	2796
831.496	3024
831.635	2769
831.774	2682
831.913	2724
832.051	2579
832.19	2625
832.329	2731
832.467	2571
832.606	2507
832.744	2621
832.883	2644
833.022	2644
833.16	2667
833.299	2754
833.437	2739
833.576	2727
833.714	2766
833.852	2800
833.991	2796
834.129	2914
834.267	2880
834.406	2823
834.544	2887
834.682	2910
834.821	2895
834.959	3104
835.097	2941
835.235	3138
835.373	3028
835.511	3047
835.65	3009
835.788	3005
835.926	2830
836.064	2845
836.202	2868
836.34	3135
836.478	3218
836.615	3081
836.753	3165
836.891	3264
837.029	3199
837.167	3150
837.305	3104
837.443	3043
837.58	3009
837.718	3207
837.856	3077
837.993	3051
838.131	3188
838.269	3154
838.406	3138
838.544	3108
838.681	2982
838.819	2982
838.956	2861
839.094	2872
839.231	2937
839.369	3017
839.506	3435
839.643	3302
839.781	3100
839.918	2986
840.055	3085
840.193	3093
840.33	3108
840.467	3146
840.604	3226
840.742	3439
840.879	3097
841.016	3119
841.153	3142
841.29	3344
841.427	3344
841.564	3291
841.701	3367
841.838	3264
841.975	3195
842.112	3302
842.249	3112
842.385	3100
842.522	3275
842.659	3146
842.796	3100
842.933	3131
843.069	3104
843.206	3062
843.343	3249
843.479	3131
843.616	3138
843.752	2941
843.889	2891
844.025	3089
844.162	2906
844.298	3116
844.435	2941
844.571	2956
844.708	3131
844.844	3241
844.98	3233
845.117	3237
845.253	3104
845.389	3077
845.525	3146
845.661	3142
845.798	3062
845.934	3131
846.07	3116
846.206	3256
846.342	3367
846.478	3268
846.614	3138
846.75	3135
846.886	3074
847.022	3306
847.158	3192
847.294	3268
847.429	3283
847.565	3279
847.701	3561
847.837	3085
847.972	3032
848.108	3268
848.244	3161
848.379	3032
848.515	2975
848.65	2975
848.786	2982
848.921	3047
849.057	3169
849.192	3214
849.328	3108
849.463	3157
849.598	3081
849.734	3070
849.869	3024
850.004	2994
850.14	2990
850.275	2971
850.41	2887
850.545	2937
850.68	2963
850.815	3013
850.95	3001
851.085	3192
851.22	3154
851.355	3089
851.49	2998
851.625	3051
851.76	3062
851.895	2975
852.03	2982
852.165	3051
852.299	3112
852.434	3211
852.569	3154
852.703	3211
852.838	3260
852.973	3367
853.107	3382
853.242	3138
853.376	3142
853.511	2994
853.645	3047
853.78	3287
853.914	3161
854.048	3173
854.183	3127
854.317	3184
854.451	3363
854.585	3157
854.72	3074
854.854	3253
854.988	3081
855.122	3138
855.256	3020
855.39	3157
855.524	3245
855.658	3233
855.792	3161
855.926	3230
856.06	3249
856.194	3321
856.327	3222
856.461	3116
856.595	3097
856.729	3112
856.862	3241
856.996	3169
857.13	3226
857.263	3241
857.397	3302
857.53	3142
857.664	3253
857.797	3279
857.931	3287
858.064	3195
858.197	3253
858.331	3131
858.464	3135
858.597	3028
858.731	3173
858.864	3138
858.997	3116
859.13	3226
859.263	3211
859.396	3230
859.529	3116
859.662	3119
859.795	3074
859.928	3207
860.061	3268
860.194	3283
860.327	3150
860.46	3123
860.592	3260
860.725	3249
860.858	3310
860.99	3131
861.123	3104
861.256	3066
861.388	3169
861.521	3743
861.653	3055
861.786	3009
861.918	3005
862.05	3116
862.183	3142
862.315	3199
862.447	3268
862.58	3116
862.712	2948
862.844	2914
862.976	3043
863.108	3047
863.24	3340
863.372	2876
863.504	2990
863.636	2979
863.768	3074
863.9	2982
864.032	2918
864.164	2994
864.296	3039
864.428	3131
864.559	3112
864.691	3074
864.823	3074
864.954	3028
865.086	3077
865.217	3051
865.349	3001
865.48	3032
865.612	3081
865.743	3188
865.875	3013
866.006	2963
866.137	2975
866.269	2967
866.4	2967
866.531	2967
866.662	2899
866.793	2918
866.924	2895
867.055	3017
867.186	2944
867.317	2902
867.448	2872
867.579	2849
867.71	2861
867.841	2826
867.972	2902
868.103	2944
868.233	2922
868.364	2891
868.495	2925
868.625	3119
868.756	3173
868.886	3013
869.017	3043
869.147	3192
869.278	3161
869.408	3074
869.539	3036
869.669	3161
869.799	3043
869.929	3150
870.06	3112
870.19	3370
870.32	3283
870.45	3351
870.58	3409
870.71	3507
870.84	3500
870.97	3378
871.1	3275
871.23	3466
871.36	3492
871.489	3370
871.619	3405
871.749	3428
871.879	3504
872.008	3500
872.138	3355
872.267	3291
872.397	3150
872.526	3161
872.656	3055
872.785	3119
872.915	3264
873.044	3355
873.173	3237
873.303	3283
873.432	3256
873.561	3245
873.69	3157
873.819	3199
873.948	3237
874.077	3116
874.206	3070
874.335	3131
874.464	3218
874.593	3374
874.722	3268
874.851	3397
874.979	3405
875.108	3359
875.237	3256
875.365	3214
875.494	3184
875.623	3275
875.751	3074
875.88	3097
876.008	3188
876.136	3260
876.265	3397
876.393	3553
876.521	3454
876.65	3397
876.778	3351
876.906	3241
877.034	3199
877.162	3249
877.29	3146
877.418	3272
877.546	3237
877.674	3291
877.802	3256
877.93	3279
878.058	3157
878.185	3138
878.313	3226
878.441	3226
878.568	3100
878.696	3169
878.824	3241
878.951	3313
879.079	3485
879.206	3614
879.333	3454
879.461	3355
879.588	3359
879.715	3523
879.842	3625
879.97	3431
880.097	3165
880.224	3154
880.351	3199
880.478	3264
880.605	3211
880.732	3226
880.859	3530
880.986	3317
881.112	3393
881.239	3256
881.366	3127
881.493	3036
881.619	3020
881.746	3104
881.872	3116
881.999	3112
882.125	3192
882.252	3256
882.378	3332
882.505	3469
882.631	3268
882.757	3180
882.883	3253
883.01	3275
883.136	3211
883.262	3161
883.388	3176
883.514	3325
883.64	3397
883.766	3325
883.892	3214
884.018	3264
884.143	3435
884.269	3595
884.395	3253
884.52	3199
884.646	3218
884.772	3154
884.897	3127
885.023	3233
885.148	3367
885.274	3443
885.399	3374
885.524	3298
885.65	3321
885.775	3348
885.9	3291
886.025	3428
886.15	3401
886.275	3329
886.4	3260
886.525	3313
886.65	3313
886.775	3291
886.9	3507
887.025	3656
887.149	3443
887.274	3268
887.399	3230
887.523	3199
887.648	3199
887.773	3226
887.897	3409
888.021	3397
888.146	3306
888.27	3500
888.395	3572
888.519	3504
888.643	3469
888.767	3523
888.891	3298
889.015	3268
889.139	3317
889.263	3253
889.387	3416
889.511	3545
889.635	3500
889.759	3321
889.883	3313
890.006	3382
890.13	3507
890.254	3272
890.377	3332
890.501	3226
890.624	3173
890.748	3317
890.871	3192
890.995	3135
891.118	3104
891.241	3207
891.364	3222
891.488	3325
891.611	3218
891.734	3226
891.857	3306
891.98	3264
892.103	3340
892.226	3325
892.349	3245
892.471	3195
892.594	3272
892.717	3310
892.839	3283
892.962	3332
893.085	3382
893.207	3313
893.33	3150
893.452	3226
893.575	3393
893.697	3287
893.819	3492
893.941	3511
894.064	3492
894.186	3302
894.308	3253
894.43	3424
894.552	3561
894.674	3473
894.796	3260
894.918	3351
895.04	3310
895.161	3447
895.283	3412
895.405	3291
895.526	3428
895.648	3454
895.769	3428
895.891	3443
896.012	3549
896.134	3481
896.255	3447
896.376	3424
896.498	3416
896.619	3473
896.74	3389
896.861	3416
896.982	3698
897.103	3884
897.224	3618
897.345	3549
897.466	3458
897.587	3523
897.708	3625
897.828	3568
897.949	3469
898.07	3389
898.19	3420
898.311	3587
898.431	3500
898.552	3534
898.672	3625
898.792	3599
898.913	3549
899.033	3420
899.153	3313
899.273	3256
899.393	3310
899.513	3340
899.633	3336
899.753	3355
899.873	3359
899.993	3393
900.113	3348
900.232	3443
900.352	3386
900.472	3298
900.591	3272
900.711	3313
900.83	3287
900.95	3443
901.069	3526
901.189	3355
901.308	3176
901.427	3123
901.546	3180
901.665	3321
901.784	3344
901.904	3230
902.023	3146
902.141	3028
902.26	3020
902.379	3161
902.498	3089
902.617	3047
902.735	3203
902.854	3275
902.973	3226
903.091	3047
903.21	3100
903.328	3112
903.446	3138
903.565	3123
903.683	3237
903.801	3142
903.919	3237
904.038	3321
904.156	3192
904.274	3298
904.392	3272
904.51	3283
904.627	3348
904.745	3431
904.863	3511
904.981	3268
905.098	3192
905.216	3241
905.334	3302
905.451	3370
905.569	3363
905.686	3435
905.803	3462
905.921	3313
906.038	3454
906.155	3348
906.272	3336
906.389	3363
906.506	3253
906.623	3272
906.74	3287
906.857	3218
906.974	3241
907.091	3409
907.208	3591
907.324	3496
907.441	3435
907.557	3218
907.674	3272
907.79	3241
907.907	3264
908.023	3428
908.139	3351
908.256	3370
908.372	3412
908.488	3332
908.604	3268
908.72	3256
908.836	3275
908.952	3272
909.068	3374
909.184	3469
909.3	3409
909.415	3542
909.531	3488
909.647	3302
909.762	3294
909.878	3256
909.993	3359
910.108	3329
910.224	3367
910.339	3462
910.454	3355
910.57	3302
910.685	3256
910.8	3667
910.915	3576
911.03	3496
911.145	3298
911.259	3272
911.374	3340
911.489	3260
911.604	3237
911.718	3135
911.833	3192
911.947	3032
912.062	2963
912.176	3192
912.291	3245
912.405	3256
912.519	3439
912.633	3477
912.748	3351
912.862	3306
912.976	3188
913.09	3070
913.204	3184
913.318	3233
913.431	3325
913.545	3382
913.659	3409
913.772	3340
913.886	3245
914	3230
914.113	3382
914.226	3447
914.34	3401
914.453	3222
914.566	3496
914.68	3302
914.793	3336
914.906	3138
915.019	3123
915.132	3062
915.245	3176
915.358	3226
915.47	3268
915.583	3272
915.696	3313
915.809	3397
915.921	3416
916.034	3294
916.146	3283
916.259	3233
916.371	3431
916.483	3367
916.595	3283
916.708	3386
916.82	3340
916.932	3359
917.044	3367
917.156	3393
917.268	3306
917.38	3363
917.491	3279
917.603	3367
917.715	3473
917.826	3488
917.938	3374
918.049	3283
918.161	3424
918.272	3557
918.384	3625
918.495	3523
918.606	3382
918.717	3294
918.828	3389
918.939	3435
919.05	3363
919.161	3370
919.272	3203
919.383	3298
919.494	3496
919.604	3732
919.715	3511
919.826	3473
919.936	3462
920.047	3603
920.157	3557
920.267	3781
920.378	3637
920.488	3576
920.598	3819
920.708	4036
920.818	3842
920.928	3892
921.038	4040
921.148	4013
921.258	3701
921.368	3599
921.477	3606
921.587	3587
921.697	3507
921.806	3637
921.916	3564
922.025	3370
922.134	3374
922.244	3344
922.353	3450
922.462	3283
922.571	3237
922.68	3119
922.789	3104
922.898	3184
923.007	3119
923.116	3245
923.224	3226
923.333	3214
923.442	3131
923.55	3127
923.659	3119
923.767	3226
923.876	3100
923.984	3256
924.092	3116
924.201	3184
924.309	3226
924.417	3279
924.525	3241
924.633	3249
924.741	4169
924.849	3066
924.956	3268
925.064	3108
925.172	3066
925.279	3165
925.387	3222
925.494	3256
925.602	3374
925.709	3355
925.816	3211
925.924	3302
926.031	3397
926.138	3355
926.245	3393
926.352	3283
926.459	3439
926.566	3511
926.673	3363
926.779	3279
926.886	3272
926.993	3184
927.099	3142
927.206	3142
927.312	3123
927.419	3241
927.525	3226
927.631	3287
927.737	3161
927.843	3146
927.95	3062
928.056	3104
928.162	3188
928.267	3245
928.373	3888
928.479	3336
928.585	3112
928.69	3233
928.796	3325
928.901	3176
929.007	3062
929.112	3214
929.218	3180
929.323	3154
929.428	3192
929.533	3348
929.638	3165
929.743	3173
929.848	3283
929.953	3211
930.058	3169
930.163	3020
930.267	3055
930.372	3249
930.477	3066
930.581	3291
930.685	3173
930.79	3024
930.894	3154
930.998	3108
931.103	3287
931.207	2960
931.311	2956
931.415	2971
931.519	2796
931.623	2826
