Data from test_V78500241_942.txt Node
Date: Fri Mar 25 16:21:43 CST 2022
User: usil
Spectrometer: V785-0024
Trigger mode: 0
Integration Time (sec): 4.000000E-1
Scans to average: 1
Nonlinearity correction enabled: false
Boxcar width: 0
Storing dark spectrum: false
XAxis mode: Wavelengths
Number of Pixels in Spectrum: 1024
>>>>>Begin Spectral Data<<<<<
801.071	2902
801.214	2963
801.356	2899
801.499	2868
801.641	2872
801.783	2910
801.926	3039
802.068	2971
802.211	3020
802.353	3017
802.496	2944
802.638	3024
802.78	3062
802.923	3066
803.065	2982
803.208	2857
803.35	2944
803.492	2956
803.635	2922
803.777	2724
803.919	2823
804.061	3199
804.204	2975
804.346	2922
804.488	2849
804.63	2982
804.773	2868
804.915	2880
805.057	3047
805.199	2956
805.341	2994
805.483	3055
805.626	3009
805.768	2922
805.91	3070
806.052	3131
806.194	3024
806.336	3249
806.478	3032
806.62	2918
806.762	2979
806.904	3047
807.046	3169
807.188	2975
807.33	2922
807.472	3005
807.614	2910
807.756	2975
807.898	2914
808.04	2887
808.182	2975
808.324	2914
808.465	2899
808.607	2891
808.749	2781
808.891	2845
809.033	2948
809.174	3020
809.316	2918
809.458	2902
809.6	2773
809.741	2800
809.883	2754
810.025	2849
810.166	2891
810.308	2853
810.45	2845
810.591	2781
810.733	2746
810.875	2838
811.016	2792
811.158	2766
811.299	2785
811.441	2902
811.582	2876
811.724	2823
811.865	2819
812.007	2956
812.148	2880
812.29	2845
812.431	2891
812.573	2944
812.714	2910
812.855	3020
812.997	3043
813.138	3089
813.279	2979
813.421	2986
813.562	2941
813.703	2880
813.845	2880
813.986	2766
814.127	2727
814.268	2807
814.41	2861
814.551	2819
814.692	2861
814.833	2785
814.974	2868
815.115	2956
815.256	2830
815.397	2773
815.539	2861
815.68	2769
815.821	2815
815.962	2899
816.103	2941
816.244	2868
816.385	2857
816.526	2948
816.666	2922
816.807	2750
816.948	2864
817.089	2887
817.23	2845
817.371	2788
817.512	2815
817.653	2891
817.793	2807
817.934	2872
818.075	2948
818.216	2971
818.356	3017
818.497	2883
818.638	2792
818.778	2823
818.919	2796
819.06	2746
819.2	2902
819.341	2804
819.481	2754
819.622	2933
819.762	3104
819.903	2979
820.043	2899
820.184	2914
820.324	2910
820.465	3024
820.605	3039
820.746	3020
820.886	2948
821.026	3112
821.167	3169
821.307	3256
821.447	3287
821.588	3260
821.728	3195
821.868	3237
822.008	3024
822.149	3165
822.289	3226
822.429	3100
822.569	3081
822.709	3222
822.849	3005
822.99	3058
823.13	3176
823.27	3241
823.41	3074
823.55	3146
823.69	3123
823.83	3188
823.97	3093
824.11	2986
824.25	2986
824.389	3081
824.529	3081
824.669	3074
824.809	3214
824.949	3222
825.089	3195
825.228	3165
825.368	3001
825.508	2982
825.648	2925
825.787	3028
825.927	3039
826.067	2982
826.206	2937
826.346	3051
826.485	3100
826.625	3081
826.765	3279
826.904	3180
827.044	2960
827.183	2914
827.323	2883
827.462	2956
827.601	2902
827.741	2929
827.88	2948
828.02	2838
828.159	3001
828.298	3017
828.437	3127
828.577	2994
828.716	3233
828.855	3062
828.994	2918
829.134	2845
829.273	2910
829.412	2861
829.551	2826
829.69	2864
829.829	2956
829.968	3119
830.107	3001
830.246	3020
830.385	2929
830.524	2861
830.663	2819
830.802	2746
830.941	2648
831.08	2606
831.219	2743
831.357	2754
831.496	2941
831.635	2670
831.774	2651
831.913	2640
832.051	2556
832.19	2579
832.329	2716
832.467	2526
832.606	2461
832.744	2571
832.883	2583
833.022	2575
833.16	2682
833.299	2659
833.437	2651
833.576	2651
833.714	2697
833.852	2712
833.991	2773
834.129	2807
834.267	2773
834.406	2788
834.544	2861
834.682	2883
834.821	2845
834.959	3062
835.097	2868
835.235	3055
835.373	2986
835.511	2998
835.65	2956
835.788	2948
835.926	2838
836.064	2807
836.202	2842
836.34	3097
836.478	3112
836.615	3047
836.753	3108
836.891	3195
837.029	3150
837.167	3100
837.305	3047
837.443	3055
837.58	2960
837.718	3165
837.856	3066
837.993	3013
838.131	3116
838.269	3112
838.406	3093
838.544	3081
838.681	2914
838.819	2880
838.956	2796
839.094	2834
839.231	2941
839.369	3017
839.506	3382
839.643	3188
839.781	3024
839.918	2937
840.055	3028
840.193	3058
840.33	3062
840.467	3100
840.604	3119
840.742	3382
840.879	3017
841.016	3039
841.153	3135
841.29	3310
841.427	3291
841.564	3283
841.701	3294
841.838	3195
841.975	3184
842.112	3233
842.249	3070
842.385	2994
842.522	3249
842.659	3085
842.796	3085
842.933	3108
843.069	3043
843.206	3036
843.343	3142
843.479	3085
843.616	3131
843.752	2895
843.889	2857
844.025	3074
844.162	2868
844.298	3020
844.435	2933
844.571	2891
844.708	3074
844.844	3150
844.98	3237
845.117	3161
845.253	3020
845.389	2975
845.525	3085
845.661	3119
845.798	2971
845.934	3116
846.07	3047
846.206	3195
846.342	3336
846.478	3203
846.614	3074
846.75	3051
846.886	3028
847.022	3218
847.158	3119
847.294	3173
847.429	3226
847.565	3207
847.701	3485
847.837	2998
847.972	2960
848.108	3157
848.244	3123
848.379	2956
848.515	2933
848.65	2941
848.786	2948
848.921	2998
849.057	3074
849.192	3173
849.328	3058
849.463	3112
849.598	3070
849.734	3024
849.869	3024
850.004	2956
850.14	2948
850.275	2880
850.41	2834
850.545	2872
850.68	2906
850.815	2941
850.95	2994
851.085	3184
851.22	3108
851.355	3058
851.49	2944
851.625	2963
851.76	2998
851.895	2902
852.03	2887
852.165	3013
852.299	3085
852.434	3169
852.569	3119
852.703	3138
852.838	3211
852.973	3363
853.107	3310
853.242	3146
853.376	3123
853.511	2941
853.645	3032
853.78	3230
853.914	3135
854.048	3081
854.183	3074
854.317	3161
854.451	3275
854.585	3089
854.72	3104
854.854	3188
854.988	3036
855.122	3062
855.256	2952
855.39	3104
855.524	3203
855.658	3203
855.792	3131
855.926	3154
856.06	3218
856.194	3237
856.327	3195
856.461	3093
856.595	3074
856.729	3108
856.862	3195
856.996	3135
857.13	3138
857.263	3184
857.397	3260
857.53	3119
857.664	3150
857.797	3222
857.931	3275
858.064	3150
858.197	3218
858.331	3157
858.464	3070
858.597	2994
858.731	3169
858.864	3146
858.997	3104
859.13	3184
859.263	3161
859.396	3165
859.529	3051
859.662	3066
859.795	3070
859.928	3135
860.061	3253
860.194	3237
860.327	3131
860.46	3062
860.592	3245
860.725	3249
860.858	3264
860.99	3108
861.123	3017
861.256	3051
861.388	3104
861.521	3831
861.653	3009
861.786	2967
861.918	2960
862.05	3020
862.183	3081
862.315	3154
862.447	3188
862.58	3081
862.712	2925
862.844	2853
862.976	3032
863.108	3047
863.24	3416
863.372	2857
863.504	2963
863.636	2906
863.768	3039
863.9	3001
864.032	2906
864.164	2948
864.296	3009
864.428	3043
864.559	3123
864.691	3097
864.823	3058
864.954	3036
865.086	3062
865.217	3024
865.349	2925
865.48	2948
865.612	2975
865.743	3165
865.875	2994
866.006	2918
866.137	2956
866.269	2922
866.4	2960
866.531	2914
866.662	2891
866.793	2883
866.924	2910
867.055	2982
867.186	2929
867.317	2857
867.448	2842
867.579	2864
867.71	2853
867.841	2830
867.972	2883
868.103	2895
868.233	2914
868.364	2849
868.495	2918
868.625	3093
868.756	3146
868.886	2967
869.017	3020
869.147	3169
869.278	3108
869.408	3051
869.539	2986
869.669	3089
869.799	3005
869.929	3100
870.06	3062
870.19	3340
870.32	3253
870.45	3294
870.58	3321
870.71	3439
870.84	3454
870.97	3279
871.1	3237
871.23	3454
871.36	3454
871.489	3363
871.619	3393
871.749	3397
871.879	3416
872.008	3481
872.138	3340
872.267	3268
872.397	3165
872.526	3119
872.656	2979
872.785	3085
872.915	3245
873.044	3332
873.173	3226
873.303	3230
873.432	3226
873.561	3245
873.69	3169
873.819	3138
873.948	3180
874.077	3055
874.206	3055
874.335	3081
874.464	3188
874.593	3329
874.722	3203
874.851	3397
874.979	3351
875.108	3321
875.237	3203
875.365	3154
875.494	3150
875.623	3256
875.751	3138
875.88	3093
876.008	3203
876.136	3233
876.265	3359
876.393	3492
876.521	3439
876.65	3382
876.778	3310
876.906	3245
877.034	3173
877.162	3245
877.29	3184
877.418	3264
877.546	3222
877.674	3218
877.802	3237
877.93	3237
878.058	3184
878.185	3089
878.313	3199
878.441	3142
878.568	3093
878.696	3150
878.824	3245
878.951	3317
879.079	3439
879.206	3595
879.333	3416
879.461	3344
879.588	3344
879.715	3458
879.842	3591
879.97	3382
880.097	3165
880.224	3085
880.351	3157
880.478	3211
880.605	3188
880.732	3192
880.859	3515
880.986	3272
881.112	3291
881.239	3180
881.366	3058
881.493	3024
881.619	3020
881.746	3062
881.872	3066
881.999	3100
882.125	3119
882.252	3233
882.378	3279
882.505	3378
882.631	3245
882.757	3119
882.883	3218
883.01	3230
883.136	3146
883.262	3089
883.388	3123
883.514	3313
883.64	3416
883.766	3340
883.892	3207
884.018	3222
884.143	3443
884.269	3553
884.395	3203
884.52	3135
884.646	3192
884.772	3108
884.897	3116
885.023	3233
885.148	3294
885.274	3389
885.399	3397
885.524	3237
885.65	3256
885.775	3310
885.9	3291
886.025	3378
886.15	3310
886.275	3272
886.4	3195
886.525	3291
886.65	3294
886.775	3291
886.9	3477
887.025	3633
887.149	3382
887.274	3256
887.399	3192
887.523	3180
887.648	3180
887.773	3188
887.897	3401
888.021	3393
888.146	3317
888.27	3466
888.395	3523
888.519	3428
888.643	3458
888.767	3458
888.891	3275
889.015	3226
889.139	3283
889.263	3256
889.387	3416
889.511	3511
889.635	3450
889.759	3230
889.883	3291
890.006	3378
890.13	3469
890.254	3237
890.377	3359
890.501	3199
890.624	3226
890.748	3332
890.871	3180
890.995	3097
891.118	3036
891.241	3192
891.364	3226
891.488	3287
891.611	3161
891.734	3207
891.857	3260
891.98	3214
892.103	3310
892.226	3264
892.349	3203
892.471	3108
892.594	3203
892.717	3279
892.839	3294
892.962	3325
893.085	3340
893.207	3275
893.33	3154
893.452	3211
893.575	3393
893.697	3241
893.819	3496
893.941	3477
894.064	3420
894.186	3241
894.308	3287
894.43	3428
894.552	3519
894.674	3469
894.796	3287
894.918	3291
895.04	3287
895.161	3450
895.283	3367
895.405	3329
895.526	3389
895.648	3450
895.769	3393
895.891	3458
896.012	3485
896.134	3420
896.255	3397
896.376	3367
896.498	3424
896.619	3359
896.74	3336
896.861	3454
896.982	3660
897.103	3827
897.224	3606
897.345	3485
897.466	3386
897.587	3511
897.708	3603
897.828	3584
897.949	3420
898.07	3332
898.19	3397
898.311	3625
898.431	3435
898.552	3545
898.672	3568
898.792	3580
898.913	3534
899.033	3382
899.153	3253
899.273	3218
899.393	3272
899.513	3321
899.633	3325
899.753	3325
899.873	3275
899.993	3340
900.113	3344
900.232	3386
900.352	3325
900.472	3287
900.591	3173
900.711	3294
900.83	3226
900.95	3428
901.069	3485
901.189	3359
901.308	3188
901.427	3119
901.546	3203
901.665	3302
901.784	3363
901.904	3203
902.023	3188
902.141	3009
902.26	3020
902.379	3119
902.498	3062
902.617	3085
902.735	3184
902.854	3253
902.973	3161
903.091	3043
903.21	3036
903.328	3161
903.446	3100
903.565	3104
903.683	3199
903.801	3104
903.919	3256
904.038	3279
904.156	3146
904.274	3268
904.392	3230
904.51	3272
904.627	3363
904.745	3431
904.863	3481
904.981	3275
905.098	3207
905.216	3241
905.334	3249
905.451	3268
905.569	3287
905.686	3450
905.803	3428
905.921	3306
906.038	3397
906.155	3329
906.272	3245
906.389	3313
906.506	3226
906.623	3214
906.74	3283
906.857	3180
906.974	3283
907.091	3447
907.208	3538
907.324	3481
907.441	3401
907.557	3249
907.674	3222
907.79	3195
907.907	3249
908.023	3382
908.139	3393
908.256	3321
908.372	3393
908.488	3332
908.604	3279
908.72	3245
908.836	3260
908.952	3272
909.068	3386
909.184	3492
909.3	3367
909.415	3511
909.531	3485
909.647	3279
909.762	3294
909.878	3222
909.993	3359
910.108	3310
910.224	3389
910.339	3431
910.454	3340
910.57	3294
910.685	3272
910.8	3599
910.915	3519
911.03	3439
911.145	3272
911.259	3249
911.374	3287
911.489	3222
911.604	3237
911.718	3093
911.833	3173
911.947	3039
912.062	2944
912.176	3154
912.291	3188
912.405	3169
912.519	3447
912.633	3458
912.748	3340
912.862	3260
912.976	3188
913.09	3043
913.204	3161
913.318	3241
913.431	3378
913.545	3329
913.659	3359
913.772	3344
913.886	3241
914	3211
914.113	3367
914.226	3374
914.34	3355
914.453	3230
914.566	3397
914.68	3272
914.793	3287
914.906	3104
915.019	3093
915.132	3077
915.245	3138
915.358	3207
915.47	3218
915.583	3226
915.696	3287
915.809	3424
915.921	3416
916.034	3306
916.146	3275
916.259	3230
916.371	3359
916.483	3378
916.595	3264
916.708	3336
916.82	3348
916.932	3329
917.044	3321
917.156	3359
917.268	3230
917.38	3287
917.491	3272
917.603	3355
917.715	3454
917.826	3481
917.938	3382
918.049	3256
918.161	3382
918.272	3564
918.384	3584
918.495	3488
918.606	3336
918.717	3268
918.828	3397
918.939	3359
919.05	3321
919.161	3359
919.272	3195
919.383	3256
919.494	3488
919.604	3686
919.715	3462
919.826	3424
919.936	3477
920.047	3603
920.157	3542
920.267	3732
920.378	3606
920.488	3568
920.598	3774
920.708	3918
920.818	3808
920.928	3835
921.038	4040
921.148	4036
921.258	3705
921.368	3618
921.477	3557
921.587	3545
921.697	3450
921.806	3587
921.916	3515
922.025	3317
922.134	3336
922.244	3306
922.353	3397
922.462	3226
922.571	3253
922.68	3093
922.789	3097
922.898	3104
923.007	3119
923.116	3184
923.224	3135
923.333	3211
923.442	3104
923.55	3116
923.659	3165
923.767	3211
923.876	3104
923.984	3218
924.092	3138
924.201	3214
924.309	3230
924.417	3268
924.525	3226
924.633	3260
924.741	4207
924.849	3055
924.956	3275
925.064	3066
925.172	3051
925.279	3081
925.387	3165
925.494	3184
925.602	3359
925.709	3302
925.816	3199
925.924	3237
926.031	3389
926.138	3310
926.245	3344
926.352	3268
926.459	3416
926.566	3500
926.673	3291
926.779	3226
926.886	3233
926.993	3138
927.099	3146
927.206	3081
927.312	3135
927.419	3253
927.525	3195
927.631	3245
927.737	3138
927.843	3135
927.95	2986
928.056	3135
928.162	3157
928.267	3241
928.373	3880
928.479	3287
928.585	3074
928.69	3226
928.796	3287
928.901	3161
929.007	3055
929.112	3203
929.218	3180
929.323	3161
929.428	3169
929.533	3287
929.638	3131
929.743	3146
929.848	3230
929.953	3233
930.058	3097
930.163	3036
930.267	3032
930.372	3195
930.477	3051
930.581	3321
930.685	3192
930.79	3058
930.894	3138
930.998	3108
931.103	3310
931.207	2952
931.311	2933
931.415	2906
931.519	2754
931.623	2796
