Data from test_V78500241_1373.txt Node
Date: Fri Mar 25 16:24:42 CST 2022
User: usil
Spectrometer: V785-0024
Trigger mode: 0
Integration Time (sec): 4.000000E-1
Scans to average: 1
Nonlinearity correction enabled: false
Boxcar width: 0
Storing dark spectrum: false
XAxis mode: Wavelengths
Number of Pixels in Spectrum: 1024
>>>>>Begin Spectral Data<<<<<
801.071	2944
801.214	2982
801.356	2895
801.499	2918
801.641	2906
801.783	2956
801.926	3100
802.068	2971
802.211	2979
802.353	3085
802.496	3001
802.638	2990
802.78	3043
802.923	3108
803.065	2990
803.208	2918
803.35	2941
803.492	2971
803.635	2956
803.777	2781
803.919	2880
804.061	3256
804.204	2941
804.346	2918
804.488	2872
804.63	3017
804.773	2899
804.915	2933
805.057	3104
805.199	2948
805.341	3013
805.483	3085
805.626	2963
805.768	2963
805.91	3081
806.052	3108
806.194	3093
806.336	3218
806.478	3047
806.62	2967
806.762	3017
806.904	3074
807.046	3199
807.188	3013
807.33	2963
807.472	3001
807.614	2895
807.756	3009
807.898	2960
808.04	2922
808.182	2979
808.324	2941
808.465	2891
808.607	2891
808.749	2800
808.891	2864
809.033	2979
809.174	2986
809.316	2922
809.458	2929
809.6	2777
809.741	2781
809.883	2788
810.025	2872
810.166	2868
810.308	2853
810.45	2864
810.591	2796
810.733	2773
810.875	2880
811.016	2785
811.158	2815
811.299	2819
811.441	2960
811.582	2876
811.724	2857
811.865	2883
812.007	2918
812.148	2925
812.29	2876
812.431	2906
812.573	2994
812.714	2963
812.855	3039
812.997	3051
813.138	3100
813.279	3005
813.421	2979
813.562	2956
813.703	2868
813.845	2880
813.986	2796
814.127	2739
814.268	2819
814.41	2853
814.551	2796
814.692	2876
814.833	2845
814.974	2925
815.115	2933
815.256	2868
815.397	2823
815.539	2883
815.68	2766
815.821	2804
815.962	2967
816.103	2963
816.244	2883
816.385	2861
816.526	2941
816.666	2910
816.807	2800
816.948	2929
817.089	2933
817.23	2864
817.371	2796
817.512	2823
817.653	2853
817.793	2834
817.934	2899
818.075	2998
818.216	2975
818.356	3077
818.497	2941
818.638	2830
818.778	2815
818.919	2788
819.06	2766
819.2	2891
819.341	2800
819.481	2796
819.622	2941
819.762	3074
819.903	3047
820.043	2937
820.184	2925
820.324	2861
820.465	2975
820.605	3017
820.746	3039
820.886	2948
821.026	3100
821.167	3188
821.307	3233
821.447	3287
821.588	3272
821.728	3226
821.868	3256
822.008	3085
822.149	3176
822.289	3237
822.429	3070
822.569	3077
822.709	3176
822.849	3024
822.99	3043
823.13	3184
823.27	3207
823.41	3104
823.55	3150
823.69	3116
823.83	3199
823.97	3089
824.11	3013
824.25	3009
824.389	3058
824.529	3100
824.669	3077
824.809	3188
824.949	3256
825.089	3203
825.228	3157
825.368	3001
825.508	2948
825.648	2994
825.787	3001
825.927	3032
826.067	2998
826.206	2971
826.346	3062
826.485	3039
826.625	3116
826.765	3260
826.904	3214
827.044	3024
827.183	2948
827.323	2902
827.462	3001
827.601	2925
827.741	2933
827.88	2952
828.02	2876
828.159	2998
828.298	3070
828.437	3135
828.577	3013
828.716	3249
828.855	3051
828.994	2887
829.134	2887
829.273	2918
829.412	2868
829.551	2887
829.69	2918
829.829	2967
829.968	3112
830.107	3032
830.246	3020
830.385	2925
830.524	2876
830.663	2853
830.802	2754
830.941	2640
831.08	2644
831.219	2769
831.357	2743
831.496	2967
831.635	2739
831.774	2686
831.913	2682
832.051	2560
832.19	2594
832.329	2720
832.467	2560
832.606	2492
832.744	2583
832.883	2579
833.022	2583
833.16	2682
833.299	2659
833.437	2727
833.576	2689
833.714	2731
833.852	2762
833.991	2758
834.129	2834
834.267	2845
834.406	2796
834.544	2872
834.682	2861
834.821	2899
834.959	3058
835.097	2895
835.235	3055
835.373	3001
835.511	3013
835.65	2971
835.788	2948
835.926	2823
836.064	2826
836.202	2819
836.34	3066
836.478	3157
836.615	3032
836.753	3135
836.891	3192
837.029	3195
837.167	3104
837.305	3089
837.443	3051
837.58	2925
837.718	3116
837.856	3081
837.993	3055
838.131	3104
838.269	3108
838.406	3089
838.544	3127
838.681	2937
838.819	2925
838.956	2826
839.094	2826
839.231	2933
839.369	3020
839.506	3310
839.643	3226
839.781	3013
839.918	2990
840.055	3081
840.193	3070
840.33	3036
840.467	3127
840.604	3154
840.742	3386
840.879	3077
841.016	3028
841.153	3081
841.29	3359
841.427	3306
841.564	3279
841.701	3313
841.838	3214
841.975	3192
842.112	3249
842.249	3081
842.385	3039
842.522	3237
842.659	3100
842.796	3024
842.933	3127
843.069	3081
843.206	3024
843.343	3203
843.479	3104
843.616	3119
843.752	2872
843.889	2861
844.025	3123
844.162	2895
844.298	3066
844.435	2902
844.571	2899
844.708	3104
844.844	3173
844.98	3237
845.117	3150
845.253	3097
845.389	3009
845.525	3081
845.661	3062
845.798	3028
845.934	3123
846.07	3058
846.206	3214
846.342	3351
846.478	3214
846.614	3108
846.75	3077
846.886	3036
847.022	3222
847.158	3173
847.294	3207
847.429	3264
847.565	3203
847.701	3500
847.837	3047
847.972	3009
848.108	3123
848.244	3131
848.379	3009
848.515	2956
848.65	2937
848.786	2929
848.921	3017
849.057	3085
849.192	3108
849.328	3062
849.463	3112
849.598	3097
849.734	3093
849.869	2986
850.004	2933
850.14	2956
850.275	2918
850.41	2861
850.545	2872
850.68	2933
850.815	2948
850.95	2929
851.085	3192
851.22	3093
851.355	3020
851.49	2982
851.625	2990
851.76	2990
851.895	2918
852.03	2880
852.165	3039
852.299	3123
852.434	3173
852.569	3138
852.703	3192
852.838	3275
852.973	3325
853.107	3344
853.242	3154
853.376	3062
853.511	2960
853.645	3055
853.78	3192
853.914	3119
854.048	3131
854.183	3100
854.317	3169
854.451	3298
854.585	3119
854.72	3055
854.854	3188
854.988	3047
855.122	3070
855.256	2982
855.39	3108
855.524	3241
855.658	3169
855.792	3123
855.926	3218
856.06	3222
856.194	3195
856.327	3150
856.461	3024
856.595	3116
856.729	3081
856.862	3211
856.996	3146
857.13	3233
857.263	3207
857.397	3237
857.53	3085
857.664	3184
857.797	3253
857.931	3230
858.064	3146
858.197	3226
858.331	3131
858.464	3070
858.597	2982
858.731	3112
858.864	3104
858.997	3089
859.13	3157
859.263	3150
859.396	3237
859.529	3081
859.662	3039
859.795	3066
859.928	3157
860.061	3272
860.194	3253
860.327	3157
860.46	3097
860.592	3222
860.725	3230
860.858	3256
860.99	3100
861.123	3070
861.256	3062
861.388	3123
861.521	3732
861.653	3051
861.786	2956
861.918	2975
862.05	3081
862.183	3070
862.315	3142
862.447	3184
862.58	3089
862.712	2952
862.844	2872
862.976	2986
863.108	3024
863.24	3313
863.372	2864
863.504	2990
863.636	2929
863.768	3036
863.9	2941
864.032	2899
864.164	2944
864.296	3028
864.428	3093
864.559	3104
864.691	3066
864.823	3081
864.954	3009
865.086	3013
865.217	3028
865.349	2941
865.48	2944
865.612	2990
865.743	3112
865.875	2994
866.006	2986
866.137	2975
866.269	2941
866.4	2937
866.531	2902
866.662	2857
866.793	2906
866.924	2922
867.055	2963
867.186	2918
867.317	2906
867.448	2823
867.579	2849
867.71	2834
867.841	2834
867.972	2891
868.103	2895
868.233	2880
868.364	2887
868.495	2914
868.625	3097
868.756	3123
868.886	2944
869.017	3028
869.147	3150
869.278	3192
869.408	3024
869.539	3017
869.669	3089
869.799	3024
869.929	3135
870.06	3085
870.19	3306
870.32	3279
870.45	3260
870.58	3393
870.71	3439
870.84	3435
870.97	3302
871.1	3218
871.23	3507
871.36	3447
871.489	3336
871.619	3370
871.749	3393
871.879	3416
872.008	3504
872.138	3329
872.267	3256
872.397	3119
872.526	3077
872.656	2990
872.785	3081
872.915	3207
873.044	3310
873.173	3241
873.303	3279
873.432	3195
873.561	3230
873.69	3146
873.819	3089
873.948	3169
874.077	3047
874.206	3020
874.335	3104
874.464	3176
874.593	3340
874.722	3253
874.851	3359
874.979	3355
875.108	3321
875.237	3214
875.365	3161
875.494	3203
875.623	3275
875.751	3097
875.88	3108
876.008	3176
876.136	3245
876.265	3348
876.393	3523
876.521	3416
876.65	3386
876.778	3363
876.906	3249
877.034	3184
877.162	3226
877.29	3195
877.418	3241
877.546	3230
877.674	3218
877.802	3214
877.93	3218
878.058	3150
878.185	3085
878.313	3199
878.441	3176
878.568	3066
878.696	3150
878.824	3253
878.951	3298
879.079	3488
879.206	3584
879.333	3447
879.461	3291
879.588	3351
879.715	3458
879.842	3629
879.97	3397
880.097	3142
880.224	3097
880.351	3176
880.478	3211
880.605	3192
880.732	3218
880.859	3447
880.986	3313
881.112	3287
881.239	3165
881.366	3089
881.493	3001
881.619	3036
881.746	3074
881.872	3127
881.999	3112
882.125	3097
882.252	3237
882.378	3268
882.505	3420
882.631	3260
882.757	3180
882.883	3222
883.01	3233
883.136	3161
883.262	3112
883.388	3127
883.514	3317
883.64	3336
883.766	3287
883.892	3165
884.018	3203
884.143	3389
884.269	3530
884.395	3211
884.52	3180
884.646	3161
884.772	3123
884.897	3100
885.023	3211
885.148	3310
885.274	3409
885.399	3374
885.524	3287
885.65	3275
885.775	3283
885.9	3287
886.025	3389
886.15	3363
886.275	3287
886.4	3241
886.525	3294
886.65	3298
886.775	3287
886.9	3530
887.025	3603
887.149	3401
887.274	3230
887.399	3169
887.523	3199
887.648	3180
887.773	3207
887.897	3332
888.021	3367
888.146	3233
888.27	3477
888.395	3542
888.519	3431
888.643	3412
888.767	3424
888.891	3298
889.015	3253
889.139	3291
889.263	3260
889.387	3393
889.511	3500
889.635	3462
889.759	3302
889.883	3306
890.006	3393
890.13	3488
890.254	3241
890.377	3313
890.501	3233
890.624	3161
890.748	3279
890.871	3184
890.995	3077
891.118	3066
891.241	3195
891.364	3233
891.488	3298
891.611	3180
891.734	3218
891.857	3253
891.98	3249
892.103	3348
892.226	3279
892.349	3218
892.471	3089
892.594	3241
892.717	3253
892.839	3256
892.962	3302
893.085	3351
893.207	3287
893.33	3142
893.452	3184
893.575	3317
893.697	3249
893.819	3450
893.941	3481
894.064	3458
894.186	3283
894.308	3226
894.43	3439
894.552	3523
894.674	3507
894.796	3275
894.918	3344
895.04	3294
895.161	3424
895.283	3348
895.405	3268
895.526	3389
895.648	3393
895.769	3409
895.891	3443
896.012	3496
896.134	3428
896.255	3382
896.376	3386
896.498	3344
896.619	3420
896.74	3344
896.861	3367
896.982	3656
897.103	3835
897.224	3568
897.345	3523
897.466	3454
897.587	3515
897.708	3603
897.828	3549
897.949	3462
898.07	3329
898.19	3439
898.311	3591
898.431	3454
898.552	3492
898.672	3610
898.792	3587
898.913	3534
899.033	3389
899.153	3294
899.273	3188
899.393	3275
899.513	3298
899.633	3294
899.753	3313
899.873	3302
899.993	3405
900.113	3313
900.232	3382
900.352	3336
900.472	3253
900.591	3237
900.711	3325
900.83	3241
900.95	3359
901.069	3481
901.189	3393
901.308	3169
901.427	3108
901.546	3188
901.665	3294
901.784	3329
901.904	3237
902.023	3146
902.141	3039
902.26	2990
902.379	3119
902.498	3032
902.617	3047
902.735	3256
902.854	3245
902.973	3184
903.091	3070
903.21	3047
903.328	3108
903.446	3112
903.565	3089
903.683	3203
903.801	3169
903.919	3230
904.038	3291
904.156	3157
904.274	3241
904.392	3253
904.51	3313
904.627	3348
904.745	3473
904.863	3488
904.981	3241
905.098	3165
905.216	3203
905.334	3256
905.451	3306
905.569	3332
905.686	3462
905.803	3435
905.921	3283
906.038	3397
906.155	3386
906.272	3241
906.389	3321
906.506	3241
906.623	3226
906.74	3294
906.857	3169
906.974	3310
907.091	3435
907.208	3576
907.324	3469
907.441	3378
907.557	3233
907.674	3203
907.79	3226
907.907	3241
908.023	3462
908.139	3405
908.256	3351
908.372	3355
908.488	3317
908.604	3264
908.72	3226
908.836	3272
908.952	3253
909.068	3363
909.184	3488
909.3	3420
909.415	3485
909.531	3447
909.647	3268
909.762	3279
909.878	3260
909.993	3321
910.108	3306
910.224	3348
910.339	3416
910.454	3298
910.57	3302
910.685	3226
910.8	3568
910.915	3530
911.03	3424
911.145	3268
911.259	3291
911.374	3264
911.489	3253
911.604	3253
911.718	3135
911.833	3127
911.947	3043
912.062	2971
912.176	3157
912.291	3176
912.405	3211
912.519	3435
912.633	3485
912.748	3332
912.862	3268
912.976	3138
913.09	3055
913.204	3142
913.318	3203
913.431	3298
913.545	3332
913.659	3412
913.772	3310
913.886	3214
914	3207
914.113	3355
914.226	3378
914.34	3348
914.453	3203
914.566	3370
914.68	3340
914.793	3329
914.906	3127
915.019	3097
915.132	3055
915.245	3207
915.358	3211
915.47	3222
915.583	3233
915.696	3302
915.809	3389
915.921	3401
916.034	3264
916.146	3268
916.259	3199
916.371	3367
916.483	3344
916.595	3256
916.708	3317
916.82	3344
916.932	3325
917.044	3294
917.156	3348
917.268	3214
917.38	3291
917.491	3302
917.603	3363
917.715	3454
917.826	3469
917.938	3386
918.049	3291
918.161	3443
918.272	3538
918.384	3542
918.495	3469
918.606	3370
918.717	3279
918.828	3359
918.939	3405
919.05	3306
919.161	3393
919.272	3188
919.383	3279
919.494	3473
919.604	3667
919.715	3454
919.826	3412
919.936	3447
920.047	3599
920.157	3530
920.267	3732
920.378	3584
920.488	3580
920.598	3793
920.708	3937
920.818	3823
920.928	3789
921.038	3998
921.148	4021
921.258	3671
921.368	3641
921.477	3584
921.587	3568
921.697	3450
921.806	3618
921.916	3523
922.025	3344
922.134	3355
922.244	3321
922.353	3416
922.462	3283
922.571	3241
922.68	3097
922.789	3070
922.898	3142
923.007	3100
923.116	3211
923.224	3173
923.333	3188
923.442	3070
923.55	3097
923.659	3112
923.767	3195
923.876	3097
923.984	3264
924.092	3093
924.201	3195
924.309	3203
924.417	3249
924.525	3192
924.633	3249
924.741	4021
924.849	3058
924.956	3233
925.064	3089
925.172	3039
925.279	3108
925.387	3199
925.494	3184
925.602	3378
925.709	3283
925.816	3176
925.924	3302
926.031	3363
926.138	3370
926.245	3355
926.352	3237
926.459	3397
926.566	3462
926.673	3336
926.779	3264
926.886	3249
926.993	3146
927.099	3138
927.206	3119
927.312	3104
927.419	3214
927.525	3203
927.631	3249
927.737	3150
927.843	3138
927.95	3009
928.056	3070
928.162	3173
928.267	3226
928.373	3918
928.479	3321
928.585	3089
928.69	3218
928.796	3253
928.901	3131
929.007	3036
929.112	3211
929.218	3188
929.323	3169
929.428	3131
929.533	3325
929.638	3116
929.743	3165
929.848	3245
929.953	3222
930.058	3146
930.163	3032
930.267	3077
930.372	3184
930.477	3074
930.581	3329
930.685	3165
930.79	3013
930.894	3116
930.998	3104
931.103	3260
931.207	2979
931.311	2899
931.415	2910
931.519	2792
931.623	2807
