Data from test_V78500241_1625.txt Node
Date: Fri Mar 25 16:26:27 CST 2022
User: usil
Spectrometer: V785-0024
Trigger mode: 0
Integration Time (sec): 4.000000E-1
Scans to average: 1
Nonlinearity correction enabled: false
Boxcar width: 0
Storing dark spectrum: false
XAxis mode: Wavelengths
Number of Pixels in Spectrum: 1024
>>>>>Begin Spectral Data<<<<<
801.071	2929
801.214	2975
801.356	2914
801.499	2922
801.641	2910
801.783	2956
801.926	3070
802.068	3020
802.211	3017
802.353	3036
802.496	3009
802.638	3024
802.78	3039
802.923	3074
803.065	3009
803.208	2952
803.35	2918
803.492	2956
803.635	2956
803.777	2785
803.919	2861
804.061	3211
804.204	2960
804.346	2906
804.488	2861
804.63	2979
804.773	2910
804.915	2918
805.057	3112
805.199	2914
805.341	2971
805.483	3039
805.626	3001
805.768	2956
805.91	3043
806.052	3112
806.194	3028
806.336	3233
806.478	2998
806.62	2952
806.762	2963
806.904	3058
807.046	3157
807.188	3028
807.33	2922
807.472	2998
807.614	2944
807.756	2933
807.898	2914
808.04	2868
808.182	2948
808.324	2918
808.465	2899
808.607	2845
808.749	2796
808.891	2845
809.033	2994
809.174	2941
809.316	2922
809.458	2887
809.6	2777
809.741	2781
809.883	2766
810.025	2895
810.166	2883
810.308	2830
810.45	2857
810.591	2746
810.733	2785
810.875	2842
811.016	2826
811.158	2777
811.299	2800
811.441	2918
811.582	2883
811.724	2842
811.865	2834
812.007	2918
812.148	2902
812.29	2861
812.431	2922
812.573	2941
812.714	2986
812.855	3032
812.997	3070
813.138	3138
813.279	3047
813.421	3017
813.562	2960
813.703	2910
813.845	2906
813.986	2769
814.127	2754
814.268	2834
814.41	2864
814.551	2826
814.692	2883
814.833	2823
814.974	2891
815.115	2963
815.256	2796
815.397	2804
815.539	2849
815.68	2777
815.821	2811
815.962	2952
816.103	2933
816.244	2887
816.385	2845
816.526	2975
816.666	2918
816.807	2724
816.948	2887
817.089	2899
817.23	2864
817.371	2788
817.512	2811
817.653	2834
817.793	2838
817.934	2887
818.075	2994
818.216	2982
818.356	3036
818.497	2899
818.638	2796
818.778	2826
818.919	2758
819.06	2792
819.2	2868
819.341	2792
819.481	2800
819.622	2925
819.762	3085
819.903	3066
820.043	2944
820.184	2895
820.324	2941
820.465	3028
820.605	3043
820.746	3066
820.886	2918
821.026	3108
821.167	3150
821.307	3230
821.447	3294
821.588	3214
821.728	3222
821.868	3195
822.008	3108
822.149	3226
822.289	3214
822.429	3066
822.569	3108
822.709	3173
822.849	3017
822.99	3055
823.13	3173
823.27	3184
823.41	3089
823.55	3169
823.69	3161
823.83	3195
823.97	3104
824.11	3047
824.25	2963
824.389	3058
824.529	3154
824.669	3055
824.809	3233
824.949	3249
825.089	3188
825.228	3138
825.368	3039
825.508	3005
825.648	2986
825.787	3036
825.927	3009
826.067	2918
826.206	2937
826.346	3017
826.485	3081
826.625	3074
826.765	3279
826.904	3195
827.044	2994
827.183	2925
827.323	2899
827.462	2937
827.601	2941
827.741	2948
827.88	2956
828.02	2861
828.159	2982
828.298	3051
828.437	3100
828.577	3047
828.716	3253
828.855	3104
828.994	2910
829.134	2868
829.273	2925
829.412	2861
829.551	2876
829.69	2880
829.829	2967
829.968	3135
830.107	3017
830.246	3005
830.385	2937
830.524	2883
830.663	2800
830.802	2697
830.941	2674
831.08	2659
831.219	2777
831.357	2781
831.496	2937
831.635	2731
831.774	2636
831.913	2640
832.051	2549
832.19	2556
832.329	2686
832.467	2545
832.606	2473
832.744	2583
832.883	2598
833.022	2530
833.16	2636
833.299	2674
833.437	2682
833.576	2701
833.714	2716
833.852	2731
833.991	2762
834.129	2853
834.267	2838
834.406	2785
834.544	2868
834.682	2876
834.821	2857
834.959	3066
835.097	2876
835.235	3062
835.373	3005
835.511	3024
835.65	2960
835.788	2971
835.926	2788
836.064	2804
836.202	2861
836.34	3108
836.478	3150
836.615	3047
836.753	3100
836.891	3192
837.029	3169
837.167	3074
837.305	3055
837.443	3001
837.58	2986
837.718	3135
837.856	3043
837.993	3032
838.131	3093
838.269	3089
838.406	3089
838.544	3097
838.681	2948
838.819	2918
838.956	2804
839.094	2845
839.231	2872
839.369	3032
839.506	3378
839.643	3192
839.781	3017
839.918	2918
840.055	3093
840.193	3077
840.33	3062
840.467	3081
840.604	3127
840.742	3393
840.879	3058
841.016	3089
841.153	3150
841.29	3310
841.427	3298
841.564	3268
841.701	3317
841.838	3188
841.975	3154
842.112	3195
842.249	3100
842.385	3032
842.522	3241
842.659	3116
842.796	3024
842.933	3100
843.069	3032
843.206	3039
843.343	3131
843.479	3085
843.616	3123
843.752	2880
843.889	2849
844.025	3085
844.162	2861
844.298	3081
844.435	2929
844.571	2906
844.708	3039
844.844	3199
844.98	3222
845.117	3188
845.253	3062
845.389	3001
845.525	3127
845.661	3116
845.798	2990
845.934	3093
846.07	3036
846.206	3211
846.342	3294
846.478	3230
846.614	3081
846.75	3058
846.886	3028
847.022	3253
847.158	3085
847.294	3173
847.429	3237
847.565	3218
847.701	3458
847.837	3043
847.972	2998
848.108	3176
848.244	3116
848.379	2990
848.515	2971
848.65	2906
848.786	2967
848.921	2990
849.057	3081
849.192	3154
849.328	3074
849.463	3123
849.598	3066
849.734	3024
849.869	2994
850.004	2918
850.14	2956
850.275	2933
850.41	2804
850.545	2853
850.68	2906
850.815	2956
850.95	2929
851.085	3169
851.22	3112
851.355	3032
851.49	2971
851.625	2967
851.76	3001
851.895	2929
852.03	2902
852.165	3009
852.299	3093
852.434	3169
852.569	3116
852.703	3135
852.838	3249
852.973	3355
853.107	3302
853.242	3135
853.376	3116
853.511	2990
853.645	3028
853.78	3256
853.914	3104
854.048	3085
854.183	3089
854.317	3138
854.451	3264
854.585	3093
854.72	3077
854.854	3195
854.988	3043
855.122	3089
855.256	2979
855.39	3116
855.524	3245
855.658	3157
855.792	3165
855.926	3188
856.06	3195
856.194	3260
856.327	3112
856.461	3039
856.595	3093
856.729	3089
856.862	3253
856.996	3169
857.13	3264
857.263	3218
857.397	3287
857.53	3127
857.664	3192
857.797	3249
857.931	3253
858.064	3154
858.197	3203
858.331	3123
858.464	3081
858.597	2975
858.731	3112
858.864	3131
858.997	3074
859.13	3150
859.263	3184
859.396	3218
859.529	3074
859.662	3085
859.795	3024
859.928	3135
860.061	3317
860.194	3272
860.327	3097
860.46	3077
860.592	3195
860.725	3249
860.858	3260
860.99	3058
861.123	3047
861.256	3055
861.388	3123
861.521	3865
861.653	3024
861.786	2979
861.918	3024
862.05	3036
862.183	3081
862.315	3116
862.447	3218
862.58	3085
862.712	2944
862.844	2872
862.976	3020
863.108	2990
863.24	3279
863.372	2864
863.504	2933
863.636	2944
863.768	3055
863.9	2975
864.032	2914
864.164	2933
864.296	3005
864.428	3119
864.559	3119
864.691	3047
864.823	3032
864.954	3001
865.086	3043
865.217	2998
865.349	2952
865.48	3005
865.612	3051
865.743	3146
865.875	2975
866.006	2872
866.137	2952
866.269	2967
866.4	2982
866.531	2929
866.662	2895
866.793	2891
866.924	2906
867.055	2944
867.186	2929
867.317	2906
867.448	2819
867.579	2815
867.71	2853
867.841	2811
867.972	2906
868.103	2864
868.233	2880
868.364	2880
868.495	2891
868.625	3070
868.756	3157
868.886	2967
869.017	2990
869.147	3188
869.278	3154
869.408	3066
869.539	3017
869.669	3066
869.799	3032
869.929	3119
870.06	3097
870.19	3302
870.32	3260
870.45	3291
870.58	3370
870.71	3443
870.84	3435
870.97	3268
871.1	3226
871.23	3454
871.36	3435
871.489	3363
871.619	3389
871.749	3397
871.879	3420
872.008	3462
872.138	3321
872.267	3249
872.397	3142
872.526	3093
872.656	3036
872.785	3097
872.915	3249
873.044	3279
873.173	3184
873.303	3226
873.432	3241
873.561	3226
873.69	3123
873.819	3100
873.948	3226
874.077	3097
874.206	3028
874.335	3074
874.464	3211
874.593	3355
874.722	3241
874.851	3389
874.979	3351
875.108	3348
875.237	3180
875.365	3169
875.494	3169
875.623	3237
875.751	3051
875.88	3116
876.008	3176
876.136	3237
876.265	3370
876.393	3496
876.521	3428
876.65	3416
876.778	3336
876.906	3268
877.034	3233
877.162	3249
877.29	3195
877.418	3214
877.546	3260
877.674	3230
877.802	3188
877.93	3241
878.058	3138
878.185	3100
878.313	3203
878.441	3222
878.568	3066
878.696	3100
878.824	3245
878.951	3283
879.079	3424
879.206	3595
879.333	3439
879.461	3336
879.588	3370
879.715	3485
879.842	3576
879.97	3363
880.097	3165
880.224	3081
880.351	3214
880.478	3218
880.605	3169
880.732	3192
880.859	3477
880.986	3317
881.112	3332
881.239	3214
881.366	3093
881.493	3047
881.619	3051
881.746	3085
881.872	3127
881.999	3089
882.125	3146
882.252	3233
882.378	3283
882.505	3458
882.631	3268
882.757	3119
882.883	3203
883.01	3195
883.136	3165
883.262	3074
883.388	3093
883.514	3279
883.64	3340
883.766	3283
883.892	3157
884.018	3226
884.143	3416
884.269	3553
884.395	3207
884.52	3123
884.646	3214
884.772	3074
884.897	3097
885.023	3211
885.148	3332
885.274	3397
885.399	3340
885.524	3287
885.65	3264
885.775	3321
885.9	3283
886.025	3416
886.15	3359
886.275	3298
886.4	3226
886.525	3302
886.65	3268
886.775	3260
886.9	3450
887.025	3625
887.149	3409
887.274	3203
887.399	3169
887.523	3203
887.648	3161
887.773	3188
887.897	3336
888.021	3409
888.146	3291
888.27	3428
888.395	3576
888.519	3401
888.643	3435
888.767	3447
888.891	3321
889.015	3211
889.139	3264
889.263	3249
889.387	3378
889.511	3485
889.635	3416
889.759	3294
889.883	3264
890.006	3389
890.13	3477
890.254	3253
890.377	3348
890.501	3207
890.624	3169
890.748	3291
890.871	3138
890.995	3089
891.118	3055
891.241	3199
891.364	3203
891.488	3310
891.611	3214
891.734	3230
891.857	3272
891.98	3230
892.103	3351
892.226	3264
892.349	3218
892.471	3127
892.594	3237
892.717	3230
892.839	3306
892.962	3264
893.085	3336
893.207	3260
893.33	3150
893.452	3180
893.575	3348
893.697	3241
893.819	3477
893.941	3477
894.064	3435
894.186	3291
894.308	3245
894.43	3439
894.552	3496
894.674	3431
894.796	3268
894.918	3317
895.04	3294
895.161	3393
895.283	3348
895.405	3294
895.526	3332
895.648	3416
895.769	3412
895.891	3443
896.012	3511
896.134	3481
896.255	3378
896.376	3359
896.498	3370
896.619	3431
896.74	3367
896.861	3420
896.982	3648
897.103	3827
897.224	3568
897.345	3504
897.466	3462
897.587	3447
897.708	3641
897.828	3568
897.949	3424
898.07	3313
898.19	3420
898.311	3572
898.431	3424
898.552	3496
898.672	3576
898.792	3553
898.913	3511
899.033	3409
899.153	3279
899.273	3226
899.393	3291
899.513	3310
899.633	3348
899.753	3329
899.873	3275
899.993	3367
900.113	3310
900.232	3348
900.352	3386
900.472	3218
900.591	3192
900.711	3310
900.83	3237
900.95	3424
901.069	3488
901.189	3313
901.308	3180
901.427	3131
901.546	3195
901.665	3279
901.784	3313
901.904	3203
902.023	3146
902.141	2998
902.26	2982
902.379	3119
902.498	3058
902.617	3032
902.735	3176
902.854	3207
902.973	3150
903.091	3074
903.21	3055
903.328	3097
903.446	3108
903.565	3097
903.683	3161
903.801	3058
903.919	3283
904.038	3264
904.156	3176
904.274	3272
904.392	3279
904.51	3237
904.627	3332
904.745	3412
904.863	3439
904.981	3260
905.098	3165
905.216	3211
905.334	3298
905.451	3294
905.569	3302
905.686	3389
905.803	3443
905.921	3275
906.038	3420
906.155	3310
906.272	3260
906.389	3348
906.506	3264
906.623	3230
906.74	3298
906.857	3173
906.974	3302
907.091	3454
907.208	3523
907.324	3466
907.441	3443
907.557	3203
907.674	3214
907.79	3184
907.907	3256
908.023	3355
908.139	3348
908.256	3313
908.372	3405
908.488	3325
908.604	3253
908.72	3237
908.836	3287
908.952	3291
909.068	3329
909.184	3466
909.3	3370
909.415	3488
909.531	3481
909.647	3313
909.762	3302
909.878	3222
909.993	3317
910.108	3340
910.224	3374
910.339	3389
910.454	3313
910.57	3253
910.685	3211
910.8	3542
910.915	3534
911.03	3428
911.145	3279
911.259	3260
911.374	3287
911.489	3272
911.604	3184
911.718	3112
911.833	3154
911.947	3001
912.062	2986
912.176	3157
912.291	3188
912.405	3214
912.519	3458
912.633	3481
912.748	3310
912.862	3272
912.976	3165
913.09	3051
913.204	3116
913.318	3195
913.431	3340
913.545	3348
913.659	3370
913.772	3329
913.886	3218
914	3169
914.113	3313
914.226	3393
914.34	3344
914.453	3230
914.566	3397
914.68	3256
914.793	3268
914.906	3131
915.019	3104
915.132	3089
915.245	3138
915.358	3173
915.47	3188
915.583	3253
915.696	3249
915.809	3355
915.921	3454
916.034	3233
916.146	3256
916.259	3245
916.371	3355
916.483	3355
916.595	3245
916.708	3317
916.82	3313
916.932	3355
917.044	3355
917.156	3367
917.268	3275
917.38	3275
917.491	3325
917.603	3363
917.715	3450
917.826	3530
917.938	3405
918.049	3291
918.161	3454
918.272	3637
918.384	3622
918.495	3526
918.606	3310
918.717	3332
918.828	3412
918.939	3431
919.05	3351
919.161	3397
919.272	3195
919.383	3348
919.494	3507
919.604	3690
919.715	3530
919.826	3450
919.936	3523
920.047	3610
920.157	3576
920.267	3808
920.378	3652
920.488	3599
920.598	3804
920.708	4010
920.818	3876
920.928	3842
921.038	4051
921.148	4063
921.258	3770
921.368	3709
921.477	3648
921.587	3580
921.697	3519
921.806	3656
921.916	3545
922.025	3420
922.134	3378
922.244	3370
922.353	3428
922.462	3302
922.571	3249
922.68	3192
922.789	3093
922.898	3195
923.007	3218
923.116	3264
923.224	3241
923.333	3214
923.442	3154
923.55	3116
923.659	3211
923.767	3279
923.876	3142
923.984	3283
924.092	3135
924.201	3237
924.309	3260
924.417	3272
924.525	3249
924.633	3260
924.741	4249
924.849	3081
924.956	3294
925.064	3127
925.172	3119
925.279	3131
925.387	3275
925.494	3272
925.602	3401
925.709	3378
925.816	3233
925.924	3329
926.031	3420
926.138	3344
926.245	3397
926.352	3272
926.459	3454
926.566	3549
926.673	3355
926.779	3298
926.886	3291
926.993	3218
927.099	3123
927.206	3157
927.312	3150
927.419	3237
927.525	3291
927.631	3302
927.737	3176
927.843	3146
927.95	3055
928.056	3161
928.162	3245
928.267	3268
928.373	3934
928.479	3325
928.585	3074
928.69	3256
928.796	3340
928.901	3233
929.007	3089
929.112	3214
929.218	3241
929.323	3169
929.428	3154
929.533	3351
929.638	3112
929.743	3222
929.848	3283
929.953	3211
930.058	3188
930.163	3032
930.267	3051
930.372	3241
930.477	3081
930.581	3363
930.685	3230
930.79	3108
930.894	3127
930.998	3093
931.103	3332
931.207	2990
931.311	3009
931.415	2914
931.519	2811
931.623	2853
