Data from test_V78500241_915.txt Node
Date: Fri Mar 25 16:21:32 CST 2022
User: usil
Spectrometer: V785-0024
Trigger mode: 0
Integration Time (sec): 4.000000E-1
Scans to average: 1
Nonlinearity correction enabled: false
Boxcar width: 0
Storing dark spectrum: false
XAxis mode: Wavelengths
Number of Pixels in Spectrum: 1024
>>>>>Begin Spectral Data<<<<<
801.071	2944
801.214	2933
801.356	2861
801.499	2849
801.641	2842
801.783	2910
801.926	3081
802.068	2952
802.211	2990
802.353	3017
802.496	2941
802.638	3020
802.78	3062
802.923	3070
803.065	3070
803.208	2899
803.35	2914
803.492	2967
803.635	2925
803.777	2769
803.919	2853
804.061	3176
804.204	2899
804.346	2910
804.488	2792
804.63	2971
804.773	2895
804.915	2883
805.057	3055
805.199	2918
805.341	2986
805.483	3039
805.626	2982
805.768	2948
805.91	3100
806.052	3070
806.194	3032
806.336	3256
806.478	3009
806.62	2933
806.762	2975
806.904	3024
807.046	3154
807.188	3009
807.33	2910
807.472	3005
807.614	2872
807.756	2998
807.898	2929
808.04	2883
808.182	2941
808.324	2925
808.465	2914
808.607	2857
808.749	2804
808.891	2826
809.033	2971
809.174	2975
809.316	2876
809.458	2883
809.6	2785
809.741	2758
809.883	2743
810.025	2819
810.166	2853
810.308	2842
810.45	2823
810.591	2766
810.733	2762
810.875	2838
811.016	2746
811.158	2762
811.299	2785
811.441	2922
811.582	2918
811.724	2823
811.865	2792
812.007	2899
812.148	2880
812.29	2823
812.431	2872
812.573	2975
812.714	2971
812.855	3039
812.997	3005
813.138	3119
813.279	2967
813.421	3001
813.562	2960
813.703	2845
813.845	2895
813.986	2781
814.127	2716
814.268	2811
814.41	2823
814.551	2826
814.692	2876
814.833	2834
814.974	2872
815.115	2933
815.256	2819
815.397	2800
815.539	2845
815.68	2743
815.821	2777
815.962	2948
816.103	2944
816.244	2880
816.385	2849
816.526	2990
816.666	2929
816.807	2746
816.948	2880
817.089	2842
817.23	2872
817.371	2785
817.512	2811
817.653	2830
817.793	2811
817.934	2857
818.075	2994
818.216	2990
818.356	3005
818.497	2895
818.638	2796
818.778	2819
818.919	2796
819.06	2750
819.2	2868
819.341	2796
819.481	2785
819.622	2929
819.762	3097
819.903	3051
820.043	2925
820.184	2876
820.324	2864
820.465	3009
820.605	3009
820.746	3024
820.886	2933
821.026	3089
821.167	3157
821.307	3256
821.447	3260
821.588	3222
821.728	3211
821.868	3157
822.008	3074
822.149	3150
822.289	3222
822.429	3058
822.569	3093
822.709	3169
822.849	3001
822.99	3055
823.13	3169
823.27	3199
823.41	3097
823.55	3150
823.69	3188
823.83	3127
823.97	3093
824.11	2975
824.25	2990
824.389	3051
824.529	3070
824.669	3077
824.809	3203
824.949	3268
825.089	3226
825.228	3157
825.368	3017
825.508	2971
825.648	2967
825.787	3017
825.927	3009
826.067	2971
826.206	2948
826.346	3043
826.485	3070
826.625	3146
826.765	3222
826.904	3245
827.044	2952
827.183	2952
827.323	2845
827.462	2998
827.601	2902
827.741	2937
827.88	2960
828.02	2807
828.159	2941
828.298	3055
828.437	3127
828.577	3028
828.716	3192
828.855	3077
828.994	2929
829.134	2876
829.273	2922
829.412	2845
829.551	2838
829.69	2883
829.829	2990
829.968	3104
830.107	3005
830.246	3001
830.385	2899
830.524	2868
830.663	2800
830.802	2720
830.941	2644
831.08	2651
831.219	2743
831.357	2750
831.496	2975
831.635	2735
831.774	2651
831.913	2659
832.051	2541
832.19	2541
832.329	2674
832.467	2552
832.606	2495
832.744	2579
832.883	2583
833.022	2594
833.16	2617
833.299	2659
833.437	2674
833.576	2663
833.714	2693
833.852	2689
833.991	2758
834.129	2872
834.267	2845
834.406	2758
834.544	2868
834.682	2861
834.821	2883
834.959	3070
835.097	2891
835.235	3039
835.373	3009
835.511	3005
835.65	2922
835.788	2975
835.926	2853
836.064	2826
836.202	2834
836.34	3119
836.478	3135
836.615	3009
836.753	3119
836.891	3195
837.029	3161
837.167	3081
837.305	3055
837.443	3043
837.58	2979
837.718	3116
837.856	3055
837.993	2994
838.131	3100
838.269	3123
838.406	3089
838.544	3070
838.681	2914
838.819	2906
838.956	2781
839.094	2826
839.231	2910
839.369	2971
839.506	3359
839.643	3184
839.781	3036
839.918	2948
840.055	3051
840.193	3047
840.33	3051
840.467	3081
840.604	3123
840.742	3393
840.879	3043
841.016	3005
841.153	3138
841.29	3283
841.427	3256
841.564	3253
841.701	3260
841.838	3169
841.975	3169
842.112	3218
842.249	3081
842.385	2982
842.522	3279
842.659	3097
842.796	3047
842.933	3074
843.069	3051
843.206	3039
843.343	3195
843.479	3097
843.616	3131
843.752	2906
843.889	2842
844.025	3108
844.162	2842
844.298	3066
844.435	2941
844.571	2883
844.708	3043
844.844	3195
844.98	3214
845.117	3184
845.253	3032
845.389	3017
845.525	3077
845.661	3108
845.798	3001
845.934	3127
846.07	3074
846.206	3188
846.342	3317
846.478	3222
846.614	3116
846.75	3028
846.886	3020
847.022	3260
847.158	3142
847.294	3188
847.429	3253
847.565	3218
847.701	3507
847.837	3013
847.972	2975
848.108	3146
848.244	3097
848.379	2994
848.515	2941
848.65	2906
848.786	2971
848.921	2990
849.057	3127
849.192	3146
849.328	3032
849.463	3074
849.598	3024
849.734	3020
849.869	2982
850.004	2918
850.14	2975
850.275	2922
850.41	2804
850.545	2872
850.68	2948
850.815	2933
850.95	2952
851.085	3233
851.22	3116
851.355	3017
851.49	3013
851.625	2998
851.76	3020
851.895	2925
852.03	2910
852.165	2998
852.299	3127
852.434	3195
852.569	3104
852.703	3161
852.838	3237
852.973	3279
853.107	3287
853.242	3154
853.376	3100
853.511	2998
853.645	3043
853.78	3218
853.914	3154
854.048	3100
854.183	3077
854.317	3085
854.451	3287
854.585	3116
854.72	3062
854.854	3230
854.988	3043
855.122	3070
855.256	2944
855.39	3093
855.524	3214
855.658	3188
855.792	3142
855.926	3173
856.06	3180
856.194	3256
856.327	3154
856.461	3058
856.595	3070
856.729	3070
856.862	3192
856.996	3154
857.13	3157
857.263	3233
857.397	3245
857.53	3131
857.664	3157
857.797	3226
857.931	3233
858.064	3135
858.197	3230
858.331	3104
858.464	3085
858.597	2994
858.731	3066
858.864	3123
858.997	3123
859.13	3104
859.263	3131
859.396	3154
859.529	3047
859.662	3062
859.795	3036
859.928	3161
860.061	3237
860.194	3256
860.327	3104
860.46	3062
860.592	3245
860.725	3222
860.858	3260
860.99	3093
861.123	3032
861.256	3043
861.388	3135
861.521	3831
861.653	3005
861.786	2982
861.918	2994
862.05	3047
862.183	3062
862.315	3146
862.447	3203
862.58	3062
862.712	2956
862.844	2883
862.976	3001
863.108	2994
863.24	3302
863.372	2857
863.504	3005
863.636	2956
863.768	3013
863.9	3005
864.032	2895
864.164	2933
864.296	2994
864.428	3085
864.559	3070
864.691	3036
864.823	3043
864.954	3024
865.086	3017
865.217	2979
865.349	2937
865.48	2960
865.612	3047
865.743	3150
865.875	2979
866.006	2925
866.137	2990
866.269	2902
866.4	2933
866.531	2910
866.662	2906
866.793	2902
866.924	2872
867.055	2975
867.186	2937
867.317	2880
867.448	2819
867.579	2857
867.71	2880
867.841	2804
867.972	2922
868.103	2902
868.233	2868
868.364	2899
868.495	2887
868.625	3066
868.756	3131
868.886	2960
869.017	3009
869.147	3157
869.278	3119
869.408	3032
869.539	3017
869.669	3089
869.799	3043
869.929	3123
870.06	3097
870.19	3294
870.32	3275
870.45	3306
870.58	3351
870.71	3428
870.84	3382
870.97	3287
871.1	3214
871.23	3462
871.36	3439
871.489	3344
871.619	3355
871.749	3359
871.879	3386
872.008	3526
872.138	3344
872.267	3279
872.397	3127
872.526	3085
872.656	3020
872.785	3058
872.915	3233
873.044	3313
873.173	3207
873.303	3272
873.432	3226
873.561	3211
873.69	3211
873.819	3154
873.948	3161
874.077	3070
874.206	3032
874.335	3039
874.464	3218
874.593	3329
874.722	3211
874.851	3401
874.979	3313
875.108	3325
875.237	3169
875.365	3165
875.494	3142
875.623	3249
875.751	3062
875.88	3081
876.008	3161
876.136	3214
876.265	3389
876.393	3458
876.521	3393
876.65	3370
876.778	3340
876.906	3241
877.034	3195
877.162	3199
877.29	3188
877.418	3230
877.546	3214
877.674	3218
877.802	3218
877.93	3233
878.058	3127
878.185	3100
878.313	3207
878.441	3180
878.568	3077
878.696	3135
878.824	3256
878.951	3306
879.079	3443
879.206	3599
879.333	3382
879.461	3332
879.588	3367
879.715	3496
879.842	3599
879.97	3389
880.097	3112
880.224	3112
880.351	3173
880.478	3211
880.605	3207
880.732	3150
880.859	3473
880.986	3264
881.112	3298
881.239	3173
881.366	3100
881.493	3024
881.619	3043
881.746	3093
881.872	3051
881.999	3108
882.125	3123
882.252	3230
882.378	3298
882.505	3416
882.631	3260
882.757	3131
882.883	3211
883.01	3230
883.136	3138
883.262	3077
883.388	3097
883.514	3321
883.64	3389
883.766	3317
883.892	3169
884.018	3176
884.143	3401
884.269	3500
884.395	3169
884.52	3173
884.646	3142
884.772	3142
884.897	3093
885.023	3195
885.148	3321
885.274	3424
885.399	3355
885.524	3272
885.65	3218
885.775	3332
885.9	3260
886.025	3412
886.15	3378
886.275	3283
886.4	3222
886.525	3268
886.65	3268
886.775	3283
886.9	3466
887.025	3595
887.149	3412
887.274	3233
887.399	3195
887.523	3192
887.648	3161
887.773	3184
887.897	3359
888.021	3393
888.146	3294
888.27	3412
888.395	3492
888.519	3393
888.643	3435
888.767	3462
888.891	3291
889.015	3230
889.139	3340
889.263	3222
889.387	3405
889.511	3538
889.635	3409
889.759	3287
889.883	3275
890.006	3336
890.13	3424
890.254	3256
890.377	3294
890.501	3211
890.624	3199
890.748	3298
890.871	3173
890.995	3074
891.118	3070
891.241	3176
891.364	3180
891.488	3253
891.611	3173
891.734	3207
891.857	3241
891.98	3249
892.103	3310
892.226	3218
892.349	3180
892.471	3097
892.594	3245
892.717	3264
892.839	3256
892.962	3279
893.085	3389
893.207	3340
893.33	3184
893.452	3233
893.575	3313
893.697	3275
893.819	3477
893.941	3507
894.064	3454
894.186	3279
894.308	3298
894.43	3424
894.552	3572
894.674	3492
894.796	3264
894.918	3325
895.04	3302
895.161	3428
895.283	3431
895.405	3325
895.526	3355
895.648	3424
895.769	3462
895.891	3477
896.012	3515
896.134	3477
896.255	3473
896.376	3420
896.498	3405
896.619	3462
896.74	3409
896.861	3431
896.982	3751
897.103	3918
897.224	3633
897.345	3530
897.466	3473
897.587	3530
897.708	3648
897.828	3625
897.949	3496
898.07	3367
898.19	3481
898.311	3641
898.431	3488
898.552	3576
898.672	3637
898.792	3603
898.913	3568
899.033	3409
899.153	3359
899.273	3245
899.393	3310
899.513	3348
899.633	3325
899.753	3370
899.873	3389
899.993	3389
900.113	3359
900.232	3450
900.352	3363
900.472	3344
900.591	3230
900.711	3359
900.83	3321
900.95	3492
901.069	3488
901.189	3447
901.308	3226
901.427	3188
901.546	3256
901.665	3332
901.784	3393
901.904	3241
902.023	3195
902.141	3036
902.26	3058
902.379	3157
902.498	3138
902.617	3062
902.735	3226
902.854	3275
902.973	3233
903.091	3039
903.21	3085
903.328	3199
903.446	3146
903.565	3157
903.683	3279
903.801	3184
903.919	3260
904.038	3332
904.156	3214
904.274	3370
904.392	3294
904.51	3344
904.627	3386
904.745	3488
904.863	3545
904.981	3294
905.098	3192
905.216	3287
905.334	3313
905.451	3306
905.569	3363
905.686	3473
905.803	3500
905.921	3317
906.038	3492
906.155	3393
906.272	3279
906.389	3374
906.506	3268
906.623	3317
906.74	3275
906.857	3207
906.974	3306
907.091	3458
907.208	3599
907.324	3488
907.441	3393
907.557	3291
907.674	3283
907.79	3249
907.907	3329
908.023	3370
908.139	3405
908.256	3367
908.372	3397
908.488	3424
908.604	3336
908.72	3241
908.836	3287
908.952	3332
909.068	3401
909.184	3519
909.3	3420
909.415	3542
909.531	3473
909.647	3317
909.762	3363
909.878	3272
909.993	3409
910.108	3367
910.224	3393
910.339	3409
910.454	3332
910.57	3291
910.685	3253
910.8	3644
910.915	3538
911.03	3443
911.145	3332
911.259	3260
911.374	3329
911.489	3279
911.604	3253
911.718	3157
911.833	3199
911.947	3066
912.062	3028
912.176	3226
912.291	3249
912.405	3256
912.519	3462
912.633	3477
912.748	3389
912.862	3291
912.976	3176
913.09	3112
913.204	3157
913.318	3264
913.431	3348
913.545	3359
913.659	3450
913.772	3401
913.886	3222
914	3230
914.113	3393
914.226	3462
914.34	3382
914.453	3245
914.566	3439
914.68	3336
914.793	3374
914.906	3211
915.019	3108
915.132	3085
915.245	3218
915.358	3211
915.47	3237
915.583	3264
915.696	3294
915.809	3473
915.921	3481
916.034	3264
916.146	3260
916.259	3268
916.371	3393
916.483	3382
916.595	3294
916.708	3351
916.82	3336
916.932	3363
917.044	3355
917.156	3401
917.268	3310
917.38	3317
917.491	3336
917.603	3393
917.715	3500
917.826	3500
917.938	3439
918.049	3294
918.161	3481
918.272	3584
918.384	3629
918.495	3511
918.606	3351
918.717	3302
918.828	3420
918.939	3412
919.05	3317
919.161	3393
919.272	3161
919.383	3321
919.494	3488
919.604	3698
919.715	3523
919.826	3428
919.936	3507
920.047	3637
920.157	3580
920.267	3793
920.378	3603
920.488	3614
920.598	3789
920.708	4029
920.818	3869
920.928	3873
921.038	4078
921.148	4051
921.258	3740
921.368	3648
921.477	3610
921.587	3549
921.697	3519
921.806	3637
921.916	3561
922.025	3344
922.134	3389
922.244	3348
922.353	3435
922.462	3272
922.571	3260
922.68	3127
922.789	3104
922.898	3176
923.007	3089
923.116	3260
923.224	3214
923.333	3203
923.442	3135
923.55	3180
923.659	3192
923.767	3214
923.876	3127
923.984	3260
924.092	3131
924.201	3214
924.309	3253
924.417	3287
924.525	3253
924.633	3264
924.741	4219
924.849	3074
924.956	3268
925.064	3116
925.172	3058
925.279	3123
925.387	3241
925.494	3222
925.602	3401
925.709	3332
925.816	3218
925.924	3329
926.031	3420
926.138	3321
926.245	3359
926.352	3275
926.459	3473
926.566	3504
926.673	3348
926.779	3294
926.886	3287
926.993	3195
927.099	3157
927.206	3104
927.312	3127
927.419	3291
927.525	3222
927.631	3302
927.737	3199
927.843	3154
927.95	3062
928.056	3142
928.162	3192
928.267	3291
928.373	3880
928.479	3370
928.585	3089
928.69	3245
928.796	3279
928.901	3176
929.007	3062
929.112	3230
929.218	3180
929.323	3195
929.428	3169
929.533	3340
929.638	3154
929.743	3165
929.848	3275
929.953	3256
930.058	3188
930.163	3051
930.267	3066
930.372	3192
930.477	3051
930.581	3317
930.685	3192
930.79	3039
930.894	3127
930.998	3135
931.103	3279
931.207	2960
931.311	2960
931.415	2925
931.519	2796
931.623	2845
