Data from test_V78500241_782.txt Node
Date: Fri Mar 25 16:20:37 CST 2022
User: usil
Spectrometer: V785-0024
Trigger mode: 0
Integration Time (sec): 4.000000E-1
Scans to average: 1
Nonlinearity correction enabled: false
Boxcar width: 0
Storing dark spectrum: false
XAxis mode: Wavelengths
Number of Pixels in Spectrum: 1024
>>>>>Begin Spectral Data<<<<<
801.071	2914
801.214	2971
801.356	2838
801.499	2880
801.641	2872
801.783	2906
801.926	3039
802.068	2960
802.211	3032
802.353	3009
802.496	2956
802.638	3017
802.78	3055
802.923	3112
803.065	2998
803.208	2906
803.35	2929
803.492	2922
803.635	2937
803.777	2777
803.919	2868
804.061	3199
804.204	2914
804.346	2910
804.488	2872
804.63	2994
804.773	2880
804.915	2922
805.057	3066
805.199	2918
805.341	2967
805.483	3058
805.626	3005
805.768	2975
805.91	3074
806.052	3135
806.194	3017
806.336	3211
806.478	3039
806.62	2986
806.762	3005
806.904	3066
807.046	3146
807.188	3020
807.33	2929
807.472	2944
807.614	2902
807.756	3017
807.898	2944
808.04	2914
808.182	2941
808.324	2960
808.465	2902
808.607	2887
808.749	2788
808.891	2830
809.033	2986
809.174	3017
809.316	2864
809.458	2887
809.6	2785
809.741	2777
809.883	2762
810.025	2834
810.166	2842
810.308	2880
810.45	2891
810.591	2800
810.733	2781
810.875	2880
811.016	2769
811.158	2762
811.299	2811
811.441	2922
811.582	2941
811.724	2815
811.865	2819
812.007	2944
812.148	2891
812.29	2849
812.431	2883
812.573	2944
812.714	2990
812.855	3028
812.997	3043
813.138	3165
813.279	3013
813.421	2971
813.562	2971
813.703	2933
813.845	2864
813.986	2746
814.127	2766
814.268	2834
814.41	2861
814.551	2861
814.692	2876
814.833	2823
814.974	2891
815.115	2933
815.256	2834
815.397	2800
815.539	2872
815.68	2804
815.821	2788
815.962	2967
816.103	2941
816.244	2845
816.385	2868
816.526	2982
816.666	2944
816.807	2792
816.948	2895
817.089	2918
817.23	2861
817.371	2766
817.512	2750
817.653	2830
817.793	2842
817.934	2872
818.075	2971
818.216	2952
818.356	3039
818.497	2872
818.638	2845
818.778	2804
818.919	2834
819.06	2777
819.2	2914
819.341	2838
819.481	2815
819.622	2922
819.762	3116
819.903	3009
820.043	2914
820.184	2891
820.324	2918
820.465	3032
820.605	3043
820.746	2994
820.886	2937
821.026	3100
821.167	3157
821.307	3253
821.447	3306
821.588	3245
821.728	3203
821.868	3214
822.008	3089
822.149	3192
822.289	3245
822.429	3058
822.569	3074
822.709	3157
822.849	3058
822.99	3062
823.13	3108
823.27	3192
823.41	3112
823.55	3138
823.69	3146
823.83	3226
823.97	3093
824.11	2960
824.25	3017
824.389	3085
824.529	3119
824.669	3066
824.809	3184
824.949	3253
825.089	3195
825.228	3169
825.368	3028
825.508	2979
825.648	2963
825.787	2975
825.927	3055
826.067	2975
826.206	2948
826.346	3055
826.485	3097
826.625	3112
826.765	3279
826.904	3192
827.044	2979
827.183	2918
827.323	2899
827.462	2990
827.601	2933
827.741	2941
827.88	2975
828.02	2872
828.159	2982
828.298	3032
828.437	3112
828.577	3039
828.716	3256
828.855	3077
828.994	2891
829.134	2857
829.273	2937
829.412	2842
829.551	2868
829.69	2864
829.829	2979
829.968	3127
830.107	3009
830.246	3001
830.385	2948
830.524	2883
830.663	2826
830.802	2743
830.941	2648
831.08	2659
831.219	2788
831.357	2743
831.496	2956
831.635	2754
831.774	2648
831.913	2663
832.051	2537
832.19	2613
832.329	2708
832.467	2537
832.606	2511
832.744	2564
832.883	2579
833.022	2594
833.16	2663
833.299	2689
833.437	2667
833.576	2712
833.714	2735
833.852	2735
833.991	2762
834.129	2845
834.267	2842
834.406	2804
834.544	2834
834.682	2899
834.821	2864
834.959	3028
835.097	2891
835.235	3058
835.373	3032
835.511	2990
835.65	2948
835.788	2948
835.926	2842
836.064	2842
836.202	2845
836.34	3085
836.478	3173
836.615	3043
836.753	3138
836.891	3199
837.029	3157
837.167	3089
837.305	3062
837.443	3032
837.58	2971
837.718	3146
837.856	3066
837.993	3017
838.131	3108
838.269	3123
838.406	3047
838.544	3081
838.681	2929
838.819	2918
838.956	2807
839.094	2800
839.231	2925
839.369	2982
839.506	3355
839.643	3275
839.781	3039
839.918	2971
840.055	3058
840.193	3020
840.33	3062
840.467	3074
840.604	3119
840.742	3389
840.879	3043
841.016	3020
841.153	3108
841.29	3344
841.427	3306
841.564	3249
841.701	3279
841.838	3230
841.975	3180
842.112	3207
842.249	3074
842.385	3036
842.522	3268
842.659	3104
842.796	3077
842.933	3097
843.069	3005
843.206	3051
843.343	3211
843.479	3097
843.616	3104
843.752	2883
843.889	2864
844.025	3077
844.162	2887
844.298	3081
844.435	2925
844.571	2944
844.708	3066
844.844	3157
844.98	3233
845.117	3173
845.253	3024
845.389	2963
845.525	3093
845.661	3077
845.798	3005
845.934	3135
846.07	3024
846.206	3199
846.342	3287
846.478	3230
846.614	3032
846.75	3028
846.886	3032
847.022	3192
847.158	3127
847.294	3180
847.429	3237
847.565	3195
847.701	3420
847.837	3005
847.972	3009
848.108	3150
848.244	3146
848.379	2971
848.515	2929
848.65	2933
848.786	2979
848.921	3005
849.057	3085
849.192	3157
849.328	3058
849.463	3089
849.598	3047
849.734	3024
849.869	2941
850.004	2948
850.14	2960
850.275	2891
850.41	2876
850.545	2902
850.68	2918
850.815	2956
850.95	2975
851.085	3199
851.22	3138
851.355	3024
851.49	2990
851.625	2998
851.76	2971
851.895	2922
852.03	2922
852.165	3024
852.299	3127
852.434	3233
852.569	3131
852.703	3203
852.838	3287
852.973	3332
853.107	3370
853.242	3180
853.376	3039
853.511	2994
853.645	3001
853.78	3214
853.914	3112
854.048	3093
854.183	3077
854.317	3154
854.451	3310
854.585	3093
854.72	3047
854.854	3226
854.988	3032
855.122	3112
855.256	2975
855.39	3123
855.524	3253
855.658	3146
855.792	3146
855.926	3184
856.06	3203
856.194	3272
856.327	3146
856.461	3089
856.595	3093
856.729	3066
856.862	3180
856.996	3123
857.13	3161
857.263	3188
857.397	3287
857.53	3097
857.664	3184
857.797	3207
857.931	3283
858.064	3157
858.197	3214
858.331	3123
858.464	3062
858.597	3005
858.731	3135
858.864	3131
858.997	3112
859.13	3150
859.263	3146
859.396	3211
859.529	3089
859.662	3112
859.795	3036
859.928	3131
860.061	3272
860.194	3260
860.327	3161
860.46	3089
860.592	3237
860.725	3230
860.858	3222
860.99	3116
861.123	3028
861.256	3070
861.388	3150
861.521	3880
861.653	3043
861.786	2948
861.918	2994
862.05	3089
862.183	3146
862.315	3116
862.447	3157
862.58	3093
862.712	2952
862.844	2891
862.976	2994
863.108	2982
863.24	3401
863.372	2891
863.504	2956
863.636	2956
863.768	2994
863.9	2960
864.032	2887
864.164	2963
864.296	2994
864.428	3081
864.559	3123
864.691	3089
864.823	3058
864.954	2990
865.086	2990
865.217	3001
865.349	2948
865.48	2975
865.612	2986
865.743	3161
865.875	2933
866.006	2925
866.137	2967
866.269	2960
866.4	2948
866.531	2922
866.662	2883
866.793	2887
866.924	2868
867.055	2948
867.186	2922
867.317	2887
867.448	2823
867.579	2826
867.71	2815
867.841	2796
867.972	2872
868.103	2887
868.233	2887
868.364	2857
868.495	2902
868.625	3077
868.756	3150
868.886	2944
869.017	3001
869.147	3165
869.278	3146
869.408	3062
869.539	2990
869.669	3077
869.799	3047
869.929	3089
870.06	3138
870.19	3340
870.32	3275
870.45	3294
870.58	3378
870.71	3477
870.84	3431
870.97	3283
871.1	3226
871.23	3473
871.36	3462
871.489	3325
871.619	3409
871.749	3367
871.879	3409
872.008	3485
872.138	3317
872.267	3233
872.397	3135
872.526	3123
872.656	3020
872.785	3116
872.915	3222
873.044	3268
873.173	3199
873.303	3222
873.432	3253
873.561	3222
873.69	3180
873.819	3161
873.948	3169
874.077	3112
874.206	3024
874.335	3116
874.464	3253
874.593	3348
874.722	3237
874.851	3416
874.979	3348
875.108	3310
875.237	3222
875.365	3146
875.494	3176
875.623	3249
875.751	3066
875.88	3131
876.008	3218
876.136	3256
876.265	3332
876.393	3454
876.521	3447
876.65	3382
876.778	3291
876.906	3222
877.034	3173
877.162	3222
877.29	3146
877.418	3268
877.546	3256
877.674	3275
877.802	3214
877.93	3192
878.058	3150
878.185	3085
878.313	3165
878.441	3188
878.568	3051
878.696	3119
878.824	3192
878.951	3279
879.079	3443
879.206	3610
879.333	3420
879.461	3332
879.588	3332
879.715	3492
879.842	3580
879.97	3367
880.097	3184
880.224	3112
880.351	3203
880.478	3226
880.605	3203
880.732	3188
880.859	3492
880.986	3283
881.112	3272
881.239	3195
881.366	3138
881.493	3074
881.619	2990
881.746	3062
881.872	3077
881.999	3100
882.125	3161
882.252	3283
882.378	3291
882.505	3405
882.631	3317
882.757	3146
882.883	3203
883.01	3218
883.136	3123
883.262	3146
883.388	3074
883.514	3310
883.64	3382
883.766	3321
883.892	3169
884.018	3230
884.143	3378
884.269	3500
884.395	3233
884.52	3142
884.646	3188
884.772	3138
884.897	3070
885.023	3207
885.148	3332
885.274	3424
885.399	3340
885.524	3283
885.65	3264
885.775	3313
885.9	3294
886.025	3382
886.15	3344
886.275	3306
886.4	3233
886.525	3264
886.65	3272
886.775	3218
886.9	3462
887.025	3618
887.149	3405
887.274	3241
887.399	3142
887.523	3192
887.648	3165
887.773	3165
887.897	3389
888.021	3386
888.146	3272
888.27	3397
888.395	3492
888.519	3458
888.643	3458
888.767	3435
888.891	3291
889.015	3226
889.139	3294
889.263	3241
889.387	3370
889.511	3504
889.635	3416
889.759	3298
889.883	3306
890.006	3393
890.13	3511
890.254	3302
890.377	3329
890.501	3207
890.624	3173
890.748	3302
890.871	3176
890.995	3089
891.118	3058
891.241	3199
891.364	3203
891.488	3291
891.611	3188
891.734	3199
891.857	3279
891.98	3226
892.103	3351
892.226	3249
892.349	3195
892.471	3062
892.594	3230
892.717	3283
892.839	3272
892.962	3268
893.085	3370
893.207	3275
893.33	3146
893.452	3180
893.575	3340
893.697	3233
893.819	3469
893.941	3496
894.064	3435
894.186	3260
894.308	3249
894.43	3439
894.552	3511
894.674	3447
894.796	3279
894.918	3306
895.04	3306
895.161	3447
895.283	3359
895.405	3321
895.526	3332
895.648	3458
895.769	3431
895.891	3458
896.012	3447
896.134	3450
896.255	3405
896.376	3382
896.498	3359
896.619	3397
896.74	3370
896.861	3409
896.982	3652
897.103	3835
897.224	3564
897.345	3515
897.466	3443
897.587	3530
897.708	3625
897.828	3584
897.949	3435
898.07	3351
898.19	3420
898.311	3580
898.431	3450
898.552	3515
898.672	3572
898.792	3519
898.913	3542
899.033	3443
899.153	3313
899.273	3157
899.393	3264
899.513	3298
899.633	3325
899.753	3325
899.873	3325
899.993	3389
900.113	3351
900.232	3370
900.352	3321
900.472	3287
900.591	3188
900.711	3264
900.83	3256
900.95	3397
901.069	3450
901.189	3317
901.308	3169
901.427	3135
901.546	3192
901.665	3310
901.784	3313
901.904	3195
902.023	3138
902.141	3017
902.26	3001
902.379	3127
902.498	3074
902.617	3081
902.735	3203
902.854	3230
902.973	3195
903.091	3036
903.21	3051
903.328	3150
903.446	3104
903.565	3074
903.683	3146
903.801	3138
903.919	3268
904.038	3249
904.156	3180
904.274	3329
904.392	3283
904.51	3291
904.627	3332
904.745	3439
904.863	3488
904.981	3275
905.098	3154
905.216	3230
905.334	3298
905.451	3283
905.569	3344
905.686	3447
905.803	3447
905.921	3268
906.038	3420
906.155	3340
906.272	3283
906.389	3348
906.506	3249
906.623	3256
906.74	3256
906.857	3184
906.974	3268
907.091	3424
907.208	3557
907.324	3481
907.441	3401
907.557	3226
907.674	3226
907.79	3173
907.907	3325
908.023	3401
908.139	3336
908.256	3317
908.372	3389
908.488	3306
908.604	3260
908.72	3214
908.836	3283
908.952	3302
909.068	3329
909.184	3488
909.3	3348
909.415	3473
909.531	3523
909.647	3283
909.762	3291
909.878	3256
909.993	3393
910.108	3336
910.224	3363
910.339	3431
910.454	3325
910.57	3275
910.685	3203
910.8	3625
910.915	3580
911.03	3401
911.145	3195
911.259	3241
911.374	3329
911.489	3222
911.604	3195
911.718	3138
911.833	3165
911.947	3005
912.062	2933
912.176	3150
912.291	3199
912.405	3203
912.519	3481
912.633	3428
912.748	3310
912.862	3272
912.976	3233
913.09	3058
913.204	3131
913.318	3207
913.431	3355
913.545	3332
913.659	3370
913.772	3351
913.886	3241
914	3184
914.113	3313
914.226	3409
914.34	3386
914.453	3211
914.566	3378
914.68	3279
914.793	3283
914.906	3146
915.019	3127
915.132	3047
915.245	3131
915.358	3214
915.47	3218
915.583	3268
915.696	3275
915.809	3386
915.921	3409
916.034	3253
916.146	3291
916.259	3230
916.371	3401
916.483	3355
916.595	3237
916.708	3336
916.82	3325
916.932	3317
917.044	3306
917.156	3367
917.268	3233
917.38	3283
917.491	3306
917.603	3344
917.715	3507
917.826	3481
917.938	3374
918.049	3294
918.161	3420
918.272	3568
918.384	3564
918.495	3469
918.606	3329
918.717	3283
918.828	3344
918.939	3412
919.05	3321
919.161	3348
919.272	3165
919.383	3249
919.494	3477
919.604	3694
919.715	3511
919.826	3393
919.936	3473
920.047	3591
920.157	3557
920.267	3762
920.378	3606
920.488	3549
920.598	3759
920.708	3934
920.818	3808
920.928	3808
921.038	4013
921.148	3983
921.258	3686
921.368	3633
921.477	3545
921.587	3526
921.697	3462
921.806	3614
921.916	3523
922.025	3348
922.134	3355
922.244	3321
922.353	3367
922.462	3268
922.571	3226
922.68	3093
922.789	3097
922.898	3161
923.007	3100
923.116	3222
923.224	3146
923.333	3192
923.442	3138
923.55	3097
923.659	3104
923.767	3195
923.876	3104
923.984	3222
924.092	3074
924.201	3214
924.309	3214
924.417	3256
924.525	3173
924.633	3226
924.741	4166
924.849	3043
924.956	3260
925.064	3100
925.172	3032
925.279	3089
925.387	3195
925.494	3165
925.602	3367
925.709	3370
925.816	3180
925.924	3317
926.031	3401
926.138	3317
926.245	3332
926.352	3275
926.459	3439
926.566	3462
926.673	3302
926.779	3260
926.886	3233
926.993	3108
927.099	3135
927.206	3138
927.312	3104
927.419	3222
927.525	3203
927.631	3283
927.737	3150
927.843	3119
927.95	2982
928.056	3150
928.162	3165
928.267	3256
928.373	3797
928.479	3310
928.585	3062
928.69	3199
928.796	3233
928.901	3199
929.007	3066
929.112	3233
929.218	3165
929.323	3146
929.428	3138
929.533	3367
929.638	3138
929.743	3180
929.848	3226
929.953	3188
930.058	3116
930.163	3001
930.267	3058
930.372	3188
930.477	3024
930.581	3268
930.685	3184
930.79	3058
930.894	3138
930.998	3085
931.103	3245
931.207	2948
931.311	2956
931.415	2899
931.519	2773
931.623	2815
