Data from test_V78500241_372.txt Node
Date: Fri Mar 25 16:17:46 CST 2022
User: usil
Spectrometer: V785-0024
Trigger mode: 0
Integration Time (sec): 4.000000E-1
Scans to average: 1
Nonlinearity correction enabled: false
Boxcar width: 0
Storing dark spectrum: false
XAxis mode: Wavelengths
Number of Pixels in Spectrum: 1024
>>>>>Begin Spectral Data<<<<<
801.071	2902
801.214	2975
801.356	2910
801.499	2937
801.641	2902
801.783	2948
801.926	3074
802.068	3020
802.211	3005
802.353	3066
802.496	2975
802.638	3020
802.78	3070
802.923	3093
803.065	3005
803.208	2906
803.35	2944
803.492	2933
803.635	2960
803.777	2811
803.919	2902
804.061	3230
804.204	2963
804.346	2914
804.488	2857
804.63	3017
804.773	2887
804.915	2944
805.057	3116
805.199	2979
805.341	3001
805.483	3062
805.626	3017
805.768	2998
805.91	3074
806.052	3119
806.194	3074
806.336	3260
806.478	3047
806.62	2944
806.762	2979
806.904	3043
807.046	3207
807.188	2967
807.33	2922
807.472	2982
807.614	2925
807.756	3013
807.898	2944
808.04	2899
808.182	2990
808.324	2971
808.465	2887
808.607	2883
808.749	2800
808.891	2876
809.033	2971
809.174	3009
809.316	2918
809.458	2899
809.6	2785
809.741	2773
809.883	2792
810.025	2868
810.166	2876
810.308	2853
810.45	2849
810.591	2792
810.733	2754
810.875	2807
811.016	2796
811.158	2766
811.299	2773
811.441	2918
811.582	2956
811.724	2845
811.865	2845
812.007	2937
812.148	2899
812.29	2872
812.431	2868
812.573	2971
812.714	3017
812.855	3047
812.997	3058
813.138	3188
813.279	3047
813.421	2982
813.562	2975
813.703	2876
813.845	2883
813.986	2815
814.127	2712
814.268	2838
814.41	2853
814.551	2845
814.692	2842
814.833	2868
814.974	2891
815.115	2933
815.256	2872
815.397	2819
815.539	2876
815.68	2796
815.821	2815
815.962	2925
816.103	2933
816.244	2880
816.385	2891
816.526	2971
816.666	2902
816.807	2758
816.948	2899
817.089	2914
817.23	2861
817.371	2788
817.512	2800
817.653	2849
817.793	2849
817.934	2872
818.075	2922
818.216	2994
818.356	3020
818.497	2876
818.638	2792
818.778	2800
818.919	2796
819.06	2762
819.2	2887
819.341	2792
819.481	2804
819.622	2948
819.762	3077
819.903	3062
820.043	2895
820.184	2918
820.324	2925
820.465	3032
820.605	3020
820.746	3036
820.886	2937
821.026	3074
821.167	3142
821.307	3264
821.447	3283
821.588	3249
821.728	3195
821.868	3214
822.008	3097
822.149	3188
822.289	3237
822.429	3089
822.569	3100
822.709	3173
822.849	3009
822.99	3077
823.13	3195
823.27	3203
823.41	3119
823.55	3157
823.69	3184
823.83	3180
823.97	3127
824.11	3036
824.25	3020
824.389	3089
824.529	3123
824.669	3074
824.809	3230
824.949	3272
825.089	3226
825.228	3188
825.368	3028
825.508	2967
825.648	2979
825.787	3055
825.927	3055
826.067	2998
826.206	3005
826.346	3123
826.485	3116
826.625	3138
826.765	3306
826.904	3260
827.044	3028
827.183	3009
827.323	2872
827.462	3043
827.601	2937
827.741	2944
827.88	3005
828.02	2899
828.159	2979
828.298	3085
828.437	3116
828.577	3070
828.716	3279
828.855	3142
828.994	2952
829.134	2929
829.273	2967
829.412	2910
829.551	2922
829.69	2963
829.829	3028
829.968	3173
830.107	3074
830.246	3055
830.385	2986
830.524	2937
830.663	2876
830.802	2792
830.941	2670
831.08	2686
831.219	2815
831.357	2788
831.496	3009
831.635	2750
831.774	2682
831.913	2686
832.051	2579
832.19	2625
832.329	2746
832.467	2594
832.606	2537
832.744	2651
832.883	2617
833.022	2636
833.16	2670
833.299	2735
833.437	2735
833.576	2727
833.714	2754
833.852	2735
833.991	2792
834.129	2880
834.267	2853
834.406	2800
834.544	2933
834.682	2902
834.821	2868
834.959	3097
835.097	2937
835.235	3058
835.373	3047
835.511	3055
835.65	2994
835.788	2975
835.926	2842
836.064	2868
836.202	2880
836.34	3150
836.478	3192
836.615	3100
836.753	3161
836.891	3279
837.029	3211
837.167	3165
837.305	3116
837.443	3093
837.58	3013
837.718	3169
837.856	3112
837.993	3089
838.131	3176
838.269	3123
838.406	3116
838.544	3142
838.681	2982
838.819	2937
838.956	2891
839.094	2849
839.231	2944
839.369	3077
839.506	3374
839.643	3241
839.781	3074
839.918	3024
840.055	3058
840.193	3043
840.33	3131
840.467	3123
840.604	3203
840.742	3401
840.879	3127
841.016	3089
841.153	3138
841.29	3405
841.427	3340
841.564	3264
841.701	3363
841.838	3249
841.975	3192
842.112	3260
842.249	3100
842.385	3097
842.522	3241
842.659	3127
842.796	3108
842.933	3131
843.069	3074
843.206	3077
843.343	3214
843.479	3169
843.616	3169
843.752	2944
843.889	2929
844.025	3077
844.162	2899
844.298	3131
844.435	2979
844.571	2944
844.708	3127
844.844	3222
844.98	3241
845.117	3211
845.253	3089
845.389	3020
845.525	3131
845.661	3100
845.798	3032
845.934	3180
846.07	3070
846.206	3291
846.342	3332
846.478	3260
846.614	3138
846.75	3089
846.886	3074
847.022	3283
847.158	3165
847.294	3222
847.429	3268
847.565	3226
847.701	3564
847.837	3066
847.972	3055
848.108	3180
848.244	3176
848.379	2994
848.515	2982
848.65	2941
848.786	3009
848.921	3062
849.057	3131
849.192	3184
849.328	3097
849.463	3127
849.598	3062
849.734	3062
849.869	2990
850.004	2967
850.14	3005
850.275	2937
850.41	2857
850.545	2910
850.68	2952
850.815	3013
850.95	2994
851.085	3226
851.22	3119
851.355	3062
851.49	3028
851.625	3070
851.76	3036
851.895	2982
852.03	2910
852.165	3074
852.299	3146
852.434	3207
852.569	3184
852.703	3176
852.838	3287
852.973	3405
853.107	3367
853.242	3131
853.376	3142
853.511	3017
853.645	3043
853.78	3268
853.914	3154
854.048	3131
854.183	3135
854.317	3161
854.451	3329
854.585	3135
854.72	3100
854.854	3268
854.988	3062
855.122	3150
855.256	2998
855.39	3188
855.524	3241
855.658	3233
855.792	3142
855.926	3237
856.06	3279
856.194	3279
856.327	3188
856.461	3066
856.595	3112
856.729	3112
856.862	3218
856.996	3195
857.13	3184
857.263	3233
857.397	3298
857.53	3135
857.664	3226
857.797	3264
857.931	3272
858.064	3203
858.197	3241
858.331	3157
858.464	3123
858.597	3017
858.731	3165
858.864	3192
858.997	3138
859.13	3154
859.263	3173
859.396	3237
859.529	3112
859.662	3123
859.795	3066
859.928	3150
860.061	3294
860.194	3332
860.327	3180
860.46	3131
860.592	3245
860.725	3256
860.858	3287
860.99	3100
861.123	3070
861.256	3066
861.388	3180
861.521	3903
861.653	3028
861.786	3005
861.918	3043
862.05	3066
862.183	3138
862.315	3176
862.447	3226
862.58	3165
862.712	2956
862.844	2933
862.976	3066
863.108	3043
863.24	3405
863.372	2914
863.504	2982
863.636	2975
863.768	3070
863.9	3005
864.032	2960
864.164	2998
864.296	3074
864.428	3138
864.559	3116
864.691	3085
864.823	3116
864.954	3039
865.086	3066
865.217	3043
865.349	3005
865.48	3024
865.612	3070
865.743	3157
865.875	3024
866.006	2975
866.137	3001
866.269	2967
866.4	2960
866.531	2948
866.662	2914
866.793	2910
866.924	2899
867.055	2979
867.186	2956
867.317	2883
867.448	2853
867.579	2880
867.71	2872
867.841	2842
867.972	2914
868.103	2929
868.233	2891
868.364	2922
868.495	2925
868.625	3081
868.756	3135
868.886	2979
869.017	3032
869.147	3169
869.278	3180
869.408	3066
869.539	3051
869.669	3123
869.799	3039
869.929	3192
870.06	3119
870.19	3325
870.32	3298
870.45	3310
870.58	3363
870.71	3488
870.84	3477
870.97	3317
871.1	3268
871.23	3485
871.36	3496
871.489	3393
871.619	3435
871.749	3401
871.879	3428
872.008	3488
872.138	3367
872.267	3287
872.397	3195
872.526	3093
872.656	3028
872.785	3119
872.915	3272
873.044	3287
873.173	3298
873.303	3260
873.432	3249
873.561	3237
873.69	3142
873.819	3222
873.948	3218
874.077	3116
874.206	3074
874.335	3093
874.464	3230
874.593	3348
874.722	3256
874.851	3397
874.979	3378
875.108	3321
875.237	3192
875.365	3192
875.494	3157
875.623	3268
875.751	3093
875.88	3123
876.008	3214
876.136	3291
876.265	3382
876.393	3542
876.521	3488
876.65	3401
876.778	3340
876.906	3298
877.034	3241
877.162	3241
877.29	3218
877.418	3283
877.546	3275
877.674	3268
877.802	3245
877.93	3214
878.058	3192
878.185	3112
878.313	3233
878.441	3184
878.568	3116
878.696	3218
878.824	3275
878.951	3329
879.079	3435
879.206	3656
879.333	3469
879.461	3355
879.588	3367
879.715	3500
879.842	3629
879.97	3435
880.097	3195
880.224	3203
880.351	3188
880.478	3222
880.605	3214
880.732	3188
880.859	3462
880.986	3298
881.112	3321
881.239	3211
881.366	3123
881.493	3028
881.619	3043
881.746	3058
881.872	3093
881.999	3119
882.125	3195
882.252	3226
882.378	3348
882.505	3412
882.631	3298
882.757	3150
882.883	3230
883.01	3249
883.136	3154
883.262	3116
883.388	3173
883.514	3317
883.64	3393
883.766	3313
883.892	3214
884.018	3298
884.143	3401
884.269	3557
884.395	3233
884.52	3222
884.646	3233
884.772	3176
884.897	3146
885.023	3222
885.148	3374
885.274	3431
885.399	3332
885.524	3344
885.65	3287
885.775	3325
885.9	3275
886.025	3507
886.15	3370
886.275	3294
886.4	3245
886.525	3344
886.65	3294
886.775	3310
886.9	3511
887.025	3633
887.149	3416
887.274	3253
887.399	3199
887.523	3199
887.648	3218
887.773	3233
887.897	3401
888.021	3443
888.146	3294
888.27	3466
888.395	3515
888.519	3462
888.643	3488
888.767	3485
888.891	3329
889.015	3272
889.139	3294
889.263	3245
889.387	3431
889.511	3492
889.635	3454
889.759	3287
889.883	3321
890.006	3389
890.13	3523
890.254	3279
890.377	3336
890.501	3241
890.624	3233
890.748	3325
890.871	3199
890.995	3146
891.118	3089
891.241	3146
891.364	3253
891.488	3317
891.611	3180
891.734	3245
891.857	3294
891.98	3268
892.103	3363
892.226	3291
892.349	3184
892.471	3119
892.594	3291
892.717	3291
892.839	3313
892.962	3272
893.085	3348
893.207	3313
893.33	3165
893.452	3199
893.575	3348
893.697	3306
893.819	3454
893.941	3515
894.064	3454
894.186	3268
894.308	3253
894.43	3443
894.552	3500
894.674	3466
894.796	3272
894.918	3306
895.04	3279
895.161	3496
895.283	3416
895.405	3344
895.526	3351
895.648	3458
895.769	3416
895.891	3481
896.012	3500
896.134	3466
896.255	3443
896.376	3450
896.498	3386
896.619	3409
896.74	3393
896.861	3382
896.982	3698
897.103	3873
897.224	3549
897.345	3523
897.466	3458
897.587	3511
897.708	3637
897.828	3507
897.949	3450
898.07	3351
898.19	3450
898.311	3618
898.431	3450
898.552	3504
898.672	3622
898.792	3526
898.913	3576
899.033	3420
899.153	3306
899.273	3222
899.393	3306
899.513	3310
899.633	3298
899.753	3363
899.873	3306
899.993	3389
900.113	3344
900.232	3428
900.352	3325
900.472	3291
900.591	3203
900.711	3321
900.83	3207
900.95	3401
901.069	3511
901.189	3370
901.308	3203
901.427	3127
901.546	3226
901.665	3310
901.784	3367
901.904	3207
902.023	3157
902.141	2982
902.26	3024
902.379	3165
902.498	3104
902.617	3070
902.735	3218
902.854	3233
902.973	3203
903.091	3051
903.21	3100
903.328	3142
903.446	3123
903.565	3146
903.683	3199
903.801	3142
903.919	3291
904.038	3279
904.156	3180
904.274	3279
904.392	3249
904.51	3310
904.627	3344
904.745	3450
904.863	3496
904.981	3253
905.098	3184
905.216	3230
905.334	3310
905.451	3298
905.569	3313
905.686	3409
905.803	3469
905.921	3336
906.038	3439
906.155	3367
906.272	3310
906.389	3344
906.506	3195
906.623	3294
906.74	3279
906.857	3203
906.974	3260
907.091	3435
907.208	3591
907.324	3473
907.441	3393
907.557	3211
907.674	3237
907.79	3218
907.907	3321
908.023	3405
908.139	3348
908.256	3317
908.372	3412
908.488	3370
908.604	3275
908.72	3253
908.836	3264
908.952	3279
909.068	3310
909.184	3481
909.3	3412
909.415	3526
909.531	3500
909.647	3298
909.762	3272
909.878	3298
909.993	3378
910.108	3374
910.224	3367
910.339	3401
910.454	3359
910.57	3294
910.685	3226
910.8	3564
910.915	3496
911.03	3428
911.145	3264
911.259	3283
911.374	3325
911.489	3264
911.604	3256
911.718	3135
911.833	3150
911.947	3070
912.062	2971
912.176	3154
912.291	3237
912.405	3222
912.519	3454
912.633	3481
912.748	3336
912.862	3306
912.976	3169
913.09	3077
913.204	3131
913.318	3233
913.431	3370
913.545	3355
913.659	3454
913.772	3317
913.886	3222
914	3230
914.113	3367
914.226	3416
914.34	3397
914.453	3233
914.566	3401
914.68	3302
914.793	3317
914.906	3195
915.019	3108
915.132	3097
915.245	3165
915.358	3218
915.47	3272
915.583	3287
915.696	3275
915.809	3420
915.921	3409
916.034	3298
916.146	3249
916.259	3188
916.371	3310
916.483	3348
916.595	3253
916.708	3351
916.82	3302
916.932	3321
917.044	3355
917.156	3378
917.268	3260
917.38	3325
917.491	3310
917.603	3378
917.715	3473
917.826	3435
917.938	3363
918.049	3294
918.161	3416
918.272	3572
918.384	3576
918.495	3511
918.606	3306
918.717	3336
918.828	3401
918.939	3401
919.05	3310
919.161	3363
919.272	3176
919.383	3294
919.494	3488
919.604	3667
919.715	3511
919.826	3416
919.936	3443
920.047	3584
920.157	3523
920.267	3747
920.378	3629
920.488	3587
920.598	3774
920.708	3934
920.818	3831
920.928	3869
921.038	4021
921.148	3987
921.258	3713
921.368	3641
921.477	3603
921.587	3545
921.697	3473
921.806	3641
921.916	3519
922.025	3344
922.134	3393
922.244	3340
922.353	3450
922.462	3268
922.571	3203
922.68	3127
922.789	3089
922.898	3112
923.007	3089
923.116	3207
923.224	3184
923.333	3154
923.442	3093
923.55	3085
923.659	3142
923.767	3230
923.876	3108
923.984	3241
924.092	3119
924.201	3161
924.309	3207
924.417	3256
924.525	3195
924.633	3226
924.741	4219
924.849	3039
924.956	3294
925.064	3100
925.172	3036
925.279	3085
925.387	3214
925.494	3188
925.602	3405
925.709	3344
925.816	3176
925.924	3302
926.031	3389
926.138	3321
926.245	3355
926.352	3245
926.459	3389
926.566	3481
926.673	3329
926.779	3226
926.886	3245
926.993	3123
927.099	3169
927.206	3116
927.312	3157
927.419	3237
927.525	3184
927.631	3275
927.737	3135
927.843	3123
927.95	3051
928.056	3135
928.162	3176
928.267	3256
928.373	3903
928.479	3302
928.585	3058
928.69	3211
928.796	3245
928.901	3203
929.007	3020
929.112	3218
929.218	3169
929.323	3112
929.428	3138
929.533	3306
929.638	3089
929.743	3199
929.848	3272
929.953	3211
930.058	3138
930.163	2998
930.267	3070
930.372	3180
930.477	3017
930.581	3332
930.685	3165
930.79	3070
930.894	3089
930.998	3097
931.103	3260
931.207	2948
931.311	3005
931.415	2910
931.519	2800
931.623	2815
