Data from test_V78500241_585.txt Node
Date: Fri Mar 25 16:19:15 CST 2022
User: usil
Spectrometer: V785-0024
Trigger mode: 0
Integration Time (sec): 4.000000E-1
Scans to average: 1
Nonlinearity correction enabled: false
Boxcar width: 0
Storing dark spectrum: false
XAxis mode: Wavelengths
Number of Pixels in Spectrum: 1024
>>>>>Begin Spectral Data<<<<<
801.071	2899
801.214	2918
801.356	2842
801.499	2868
801.641	2849
801.783	2902
801.926	3032
802.068	2971
802.211	2971
802.353	3032
802.496	2956
802.638	3001
802.78	3013
802.923	3058
803.065	2990
803.208	2887
803.35	2925
803.492	2956
803.635	2891
803.777	2750
803.919	2830
804.061	3173
804.204	2952
804.346	2887
804.488	2826
804.63	2971
804.773	2868
804.915	2937
805.057	3066
805.199	2944
805.341	2998
805.483	3051
805.626	2990
805.768	2967
805.91	3119
806.052	3066
806.194	3051
806.336	3214
806.478	3036
806.62	2975
806.762	2979
806.904	3028
807.046	3165
807.188	2982
807.33	2918
807.472	2956
807.614	2914
807.756	2963
807.898	2929
808.04	2883
808.182	2986
808.324	2925
808.465	2883
808.607	2845
808.749	2811
808.891	2830
809.033	2952
809.174	2990
809.316	2883
809.458	2891
809.6	2807
809.741	2762
809.883	2762
810.025	2826
810.166	2853
810.308	2830
810.45	2826
810.591	2777
810.733	2746
810.875	2823
811.016	2746
811.158	2766
811.299	2800
811.441	2929
811.582	2887
811.724	2788
811.865	2823
812.007	2891
812.148	2887
812.29	2891
812.431	2876
812.573	2918
812.714	2944
812.855	3028
812.997	3070
813.138	3097
813.279	2986
813.421	2982
813.562	2944
813.703	2883
813.845	2861
813.986	2769
814.127	2727
814.268	2815
814.41	2876
814.551	2842
814.692	2906
814.833	2800
814.974	2868
815.115	2929
815.256	2826
815.397	2800
815.539	2880
815.68	2754
815.821	2766
815.962	2910
816.103	2902
816.244	2895
816.385	2842
816.526	2967
816.666	2929
816.807	2712
816.948	2891
817.089	2880
817.23	2815
817.371	2785
817.512	2788
817.653	2811
817.793	2826
817.934	2899
818.075	2963
818.216	3017
818.356	3017
818.497	2868
818.638	2807
818.778	2800
818.919	2788
819.06	2724
819.2	2853
819.341	2762
819.481	2796
819.622	2975
819.762	3100
819.903	3066
820.043	2918
820.184	2906
820.324	2918
820.465	3013
820.605	3001
820.746	3032
820.886	2948
821.026	3093
821.167	3176
821.307	3253
821.447	3302
821.588	3241
821.728	3241
821.868	3218
822.008	3108
822.149	3199
822.289	3184
822.429	3081
822.569	3093
822.709	3173
822.849	3062
822.99	3077
823.13	3161
823.27	3207
823.41	3093
823.55	3131
823.69	3119
823.83	3188
823.97	3062
824.11	3009
824.25	2990
824.389	3062
824.529	3123
824.669	3055
824.809	3169
824.949	3233
825.089	3222
825.228	3176
825.368	3028
825.508	2971
825.648	2960
825.787	2990
825.927	3032
826.067	2967
826.206	2963
826.346	3028
826.485	3074
826.625	3051
826.765	3275
826.904	3214
827.044	3005
827.183	2922
827.323	2872
827.462	2982
827.601	2902
827.741	2948
827.88	2952
828.02	2857
828.159	2967
828.298	3043
828.437	3138
828.577	3024
828.716	3256
828.855	3085
828.994	2918
829.134	2819
829.273	2941
829.412	2861
829.551	2811
829.69	2906
829.829	2963
829.968	3127
830.107	2994
830.246	2963
830.385	2918
830.524	2895
830.663	2804
830.802	2746
830.941	2644
831.08	2644
831.219	2788
831.357	2743
831.496	2918
831.635	2743
831.774	2655
831.913	2632
832.051	2560
832.19	2571
832.329	2625
832.467	2556
832.606	2488
832.744	2587
832.883	2568
833.022	2632
833.16	2617
833.299	2663
833.437	2716
833.576	2701
833.714	2697
833.852	2746
833.991	2781
834.129	2796
834.267	2845
834.406	2746
834.544	2891
834.682	2868
834.821	2876
834.959	3108
835.097	2891
835.235	3036
835.373	2982
835.511	2971
835.65	2990
835.788	2918
835.926	2838
836.064	2792
836.202	2872
836.34	3066
836.478	3127
836.615	2994
836.753	3116
836.891	3192
837.029	3154
837.167	3097
837.305	3036
837.443	3043
837.58	2971
837.718	3112
837.856	3081
837.993	3032
838.131	3127
838.269	3116
838.406	3093
838.544	3070
838.681	2914
838.819	2933
838.956	2819
839.094	2815
839.231	2906
839.369	3001
839.506	3340
839.643	3211
839.781	2994
839.918	2933
840.055	3039
840.193	3043
840.33	3081
840.467	3066
840.604	3154
840.742	3409
840.879	3074
841.016	3017
841.153	3112
841.29	3313
841.427	3272
841.564	3275
841.701	3302
841.838	3226
841.975	3119
842.112	3218
842.249	3013
842.385	3032
842.522	3230
842.659	3081
842.796	3055
842.933	3074
843.069	3036
843.206	3028
843.343	3150
843.479	3093
843.616	3104
843.752	2880
843.889	2853
844.025	3100
844.162	2887
844.298	3074
844.435	2906
844.571	2872
844.708	3077
844.844	3150
844.98	3218
845.117	3165
845.253	3047
845.389	3009
845.525	3108
845.661	3108
845.798	2994
845.934	3093
846.07	3062
846.206	3195
846.342	3321
846.478	3249
846.614	3112
846.75	3051
846.886	3043
847.022	3256
847.158	3138
847.294	3207
847.429	3230
847.565	3184
847.701	3485
847.837	3036
847.972	3001
848.108	3165
848.244	3131
848.379	3001
848.515	2929
848.65	2929
848.786	2967
848.921	3009
849.057	3108
849.192	3165
849.328	3047
849.463	3116
849.598	3085
849.734	3024
849.869	2979
850.004	2933
850.14	2971
850.275	2883
850.41	2857
850.545	2887
850.68	2906
850.815	3001
850.95	2986
851.085	3180
851.22	3036
851.355	2971
851.49	2971
851.625	3043
851.76	3009
851.895	2895
852.03	2941
852.165	3047
852.299	3127
852.434	3127
852.569	3127
852.703	3150
852.838	3291
852.973	3287
853.107	3359
853.242	3157
853.376	3123
853.511	2944
853.645	3028
853.78	3249
853.914	3135
854.048	3112
854.183	3062
854.317	3116
854.451	3233
854.585	3116
854.72	3066
854.854	3188
854.988	3070
855.122	3085
855.256	2948
855.39	3108
855.524	3222
855.658	3184
855.792	3138
855.926	3165
856.06	3218
856.194	3260
856.327	3142
856.461	3066
856.595	3085
856.729	3112
856.862	3222
856.996	3150
857.13	3180
857.263	3222
857.397	3283
857.53	3089
857.664	3176
857.797	3249
857.931	3230
858.064	3169
858.197	3184
858.331	3142
858.464	3116
858.597	3005
858.731	3116
858.864	3116
858.997	3100
859.13	3146
859.263	3165
859.396	3214
859.529	3074
859.662	3036
859.795	3047
859.928	3112
860.061	3268
860.194	3264
860.327	3135
860.46	3051
860.592	3218
860.725	3237
860.858	3233
860.99	3116
861.123	3039
861.256	3032
861.388	3150
861.521	3686
861.653	3028
861.786	2944
861.918	2967
862.05	3062
862.183	3093
862.315	3150
862.447	3203
862.58	3097
862.712	2910
862.844	2918
862.976	3017
863.108	3013
863.24	3409
863.372	2883
863.504	2960
863.636	2929
863.768	3020
863.9	2975
864.032	2872
864.164	2922
864.296	3005
864.428	3043
864.559	3070
864.691	3043
864.823	3097
864.954	3017
865.086	3043
865.217	2971
865.349	2941
865.48	2990
865.612	3036
865.743	3150
865.875	3009
866.006	2941
866.137	2990
866.269	2960
866.4	2944
866.531	2922
866.662	2864
866.793	2842
866.924	2922
867.055	2967
867.186	2914
867.317	2895
867.448	2853
867.579	2876
867.71	2842
867.841	2804
867.972	2906
868.103	2876
868.233	2876
868.364	2845
868.495	2887
868.625	3077
868.756	3154
868.886	2971
869.017	3017
869.147	3192
869.278	3154
869.408	3051
869.539	2994
869.669	3093
869.799	3032
869.929	3127
870.06	3123
870.19	3321
870.32	3272
870.45	3264
870.58	3370
870.71	3454
870.84	3420
870.97	3241
871.1	3226
871.23	3500
871.36	3454
871.489	3351
871.619	3428
871.749	3431
871.879	3443
872.008	3515
872.138	3348
872.267	3294
872.397	3173
872.526	3058
872.656	2979
872.785	3100
872.915	3207
873.044	3291
873.173	3222
873.303	3222
873.432	3188
873.561	3226
873.69	3154
873.819	3142
873.948	3195
874.077	3100
874.206	3074
874.335	3085
874.464	3211
874.593	3332
874.722	3226
874.851	3359
874.979	3325
875.108	3302
875.237	3199
875.365	3169
875.494	3127
875.623	3226
875.751	3108
875.88	3119
876.008	3184
876.136	3203
876.265	3378
876.393	3515
876.521	3393
876.65	3389
876.778	3332
876.906	3264
877.034	3214
877.162	3211
877.29	3173
877.418	3230
877.546	3230
877.674	3233
877.802	3233
877.93	3199
878.058	3180
878.185	3112
878.313	3214
878.441	3203
878.568	3047
878.696	3146
878.824	3241
878.951	3291
879.079	3428
879.206	3606
879.333	3409
879.461	3302
879.588	3317
879.715	3416
879.842	3584
879.97	3386
880.097	3188
880.224	3131
880.351	3192
880.478	3211
880.605	3218
880.732	3218
880.859	3488
880.986	3298
881.112	3332
881.239	3226
881.366	3070
881.493	3074
881.619	3001
881.746	3047
881.872	3039
881.999	3097
882.125	3108
882.252	3272
882.378	3279
882.505	3443
882.631	3283
882.757	3157
882.883	3169
883.01	3214
883.136	3142
883.262	3112
883.388	3100
883.514	3367
883.64	3336
883.766	3291
883.892	3214
884.018	3264
884.143	3450
884.269	3526
884.395	3211
884.52	3176
884.646	3188
884.772	3142
884.897	3074
885.023	3264
885.148	3336
885.274	3469
885.399	3363
885.524	3237
885.65	3214
885.775	3310
885.9	3264
886.025	3424
886.15	3348
886.275	3275
886.4	3218
886.525	3294
886.65	3237
886.775	3279
886.9	3488
887.025	3625
887.149	3393
887.274	3241
887.399	3195
887.523	3195
887.648	3218
887.773	3192
887.897	3367
888.021	3370
888.146	3294
888.27	3420
888.395	3526
888.519	3443
888.643	3431
888.767	3466
888.891	3317
889.015	3256
889.139	3294
889.263	3195
889.387	3363
889.511	3523
889.635	3450
889.759	3317
889.883	3287
890.006	3363
890.13	3534
890.254	3249
890.377	3355
890.501	3142
890.624	3180
890.748	3264
890.871	3176
890.995	3093
891.118	3070
891.241	3184
891.364	3199
891.488	3370
891.611	3165
891.734	3180
891.857	3268
891.98	3211
892.103	3355
892.226	3283
892.349	3211
892.471	3116
892.594	3260
892.717	3283
892.839	3287
892.962	3268
893.085	3332
893.207	3291
893.33	3157
893.452	3230
893.575	3355
893.697	3253
893.819	3454
893.941	3469
894.064	3397
894.186	3272
894.308	3264
894.43	3454
894.552	3530
894.674	3466
894.796	3241
894.918	3329
895.04	3291
895.161	3450
895.283	3386
895.405	3283
895.526	3382
895.648	3443
895.769	3428
895.891	3435
896.012	3450
896.134	3466
896.255	3401
896.376	3359
896.498	3344
896.619	3462
896.74	3351
896.861	3378
896.982	3667
897.103	3850
897.224	3591
897.345	3500
897.466	3374
897.587	3515
897.708	3648
897.828	3561
897.949	3416
898.07	3302
898.19	3409
898.311	3599
898.431	3477
898.552	3485
898.672	3561
898.792	3564
898.913	3519
899.033	3416
899.153	3256
899.273	3195
899.393	3249
899.513	3329
899.633	3275
899.753	3351
899.873	3298
899.993	3382
900.113	3344
900.232	3386
900.352	3355
900.472	3260
900.591	3211
900.711	3249
900.83	3256
900.95	3412
901.069	3557
901.189	3325
901.308	3218
901.427	3150
901.546	3188
901.665	3291
901.784	3317
901.904	3218
902.023	3116
902.141	3013
902.26	3024
902.379	3135
902.498	3100
902.617	3062
902.735	3222
902.854	3237
902.973	3207
903.091	3017
903.21	3047
903.328	3138
903.446	3108
903.565	3097
903.683	3138
903.801	3138
903.919	3241
904.038	3264
904.156	3173
904.274	3275
904.392	3245
904.51	3310
904.627	3329
904.745	3435
904.863	3458
904.981	3233
905.098	3142
905.216	3222
905.334	3332
905.451	3310
905.569	3291
905.686	3443
905.803	3424
905.921	3287
906.038	3431
906.155	3348
906.272	3275
906.389	3344
906.506	3233
906.623	3245
906.74	3283
906.857	3161
906.974	3275
907.091	3473
907.208	3530
907.324	3443
907.441	3367
907.557	3237
907.674	3264
907.79	3207
907.907	3268
908.023	3363
908.139	3378
908.256	3321
908.372	3393
908.488	3332
908.604	3287
908.72	3279
908.836	3260
908.952	3264
909.068	3332
909.184	3462
909.3	3382
909.415	3496
909.531	3458
909.647	3279
909.762	3249
909.878	3287
909.993	3310
910.108	3329
910.224	3302
910.339	3386
910.454	3317
910.57	3313
910.685	3237
910.8	3553
910.915	3526
911.03	3412
911.145	3275
911.259	3279
911.374	3321
911.489	3222
911.604	3211
911.718	3131
911.833	3123
911.947	3028
912.062	2960
912.176	3188
912.291	3173
912.405	3211
912.519	3428
912.633	3447
912.748	3344
912.862	3294
912.976	3154
913.09	3066
913.204	3070
913.318	3218
913.431	3310
913.545	3382
913.659	3389
913.772	3294
913.886	3226
914	3188
914.113	3359
914.226	3431
914.34	3359
914.453	3211
914.566	3401
914.68	3222
914.793	3310
914.906	3157
915.019	3146
915.132	3081
915.245	3169
915.358	3199
915.47	3245
915.583	3222
915.696	3310
915.809	3424
915.921	3462
916.034	3233
916.146	3211
916.259	3241
916.371	3416
916.483	3348
916.595	3302
916.708	3359
916.82	3325
916.932	3401
917.044	3310
917.156	3359
917.268	3256
917.38	3275
917.491	3287
917.603	3329
917.715	3450
917.826	3500
917.938	3370
918.049	3253
918.161	3416
918.272	3557
918.384	3549
918.495	3473
918.606	3325
918.717	3302
918.828	3374
918.939	3405
919.05	3275
919.161	3389
919.272	3176
919.383	3275
919.494	3462
919.604	3682
919.715	3485
919.826	3420
919.936	3481
920.047	3564
920.157	3530
920.267	3793
920.378	3622
920.488	3576
920.598	3778
920.708	3949
920.818	3861
920.928	3816
921.038	4010
921.148	4029
921.258	3724
921.368	3614
921.477	3545
921.587	3515
921.697	3469
921.806	3622
921.916	3542
922.025	3344
922.134	3355
922.244	3306
922.353	3424
922.462	3260
922.571	3218
922.68	3119
922.789	3070
922.898	3154
923.007	3100
923.116	3199
923.224	3184
923.333	3173
923.442	3100
923.55	3081
923.659	3127
923.767	3192
923.876	3116
923.984	3222
924.092	3070
924.201	3154
924.309	3222
924.417	3237
924.525	3180
924.633	3211
924.741	3987
924.849	2986
924.956	3268
925.064	3070
925.172	3036
925.279	3093
925.387	3154
925.494	3199
925.602	3336
925.709	3325
925.816	3188
925.924	3294
926.031	3397
926.138	3344
926.245	3348
926.352	3275
926.459	3409
926.566	3477
926.673	3283
926.779	3268
926.886	3260
926.993	3146
927.099	3127
927.206	3081
927.312	3081
927.419	3241
927.525	3207
927.631	3302
927.737	3138
927.843	3119
927.95	3005
928.056	3123
928.162	3123
928.267	3245
928.373	3766
928.479	3253
928.585	3074
928.69	3230
928.796	3264
928.901	3165
929.007	3051
929.112	3199
929.218	3192
929.323	3161
929.428	3173
929.533	3351
929.638	3131
929.743	3195
929.848	3279
929.953	3222
930.058	3138
930.163	2994
930.267	3051
930.372	3214
930.477	3013
930.581	3256
930.685	3180
930.79	3039
930.894	3112
930.998	3108
931.103	3260
931.207	2967
931.311	2925
931.415	2925
931.519	2785
931.623	2773
