Data from test_V78500241_1954.txt Node
Date: Fri Mar 25 16:28:44 CST 2022
User: usil
Spectrometer: V785-0024
Trigger mode: 0
Integration Time (sec): 4.000000E-1
Scans to average: 1
Nonlinearity correction enabled: false
Boxcar width: 0
Storing dark spectrum: false
XAxis mode: Wavelengths
Number of Pixels in Spectrum: 1024
>>>>>Begin Spectral Data<<<<<
801.071	2925
801.214	2986
801.356	2845
801.499	2819
801.641	2838
801.783	2899
801.926	3039
802.068	2982
802.211	2990
802.353	3036
802.496	2979
802.638	3032
802.78	3020
802.923	3066
803.065	2986
803.208	2883
803.35	2906
803.492	2937
803.635	2922
803.777	2777
803.919	2857
804.061	3184
804.204	2956
804.346	2918
804.488	2883
804.63	2960
804.773	2891
804.915	2922
805.057	3070
805.199	2941
805.341	2986
805.483	3039
805.626	3009
805.768	2960
805.91	3089
806.052	3104
806.194	3028
806.336	3222
806.478	3017
806.62	2956
806.762	2956
806.904	3028
807.046	3180
807.188	3001
807.33	2944
807.472	2994
807.614	2929
807.756	2941
807.898	2937
808.04	2902
808.182	3009
808.324	2929
808.465	2902
808.607	2872
808.749	2826
808.891	2834
809.033	2971
809.174	2998
809.316	2880
809.458	2876
809.6	2788
809.741	2758
809.883	2758
810.025	2861
810.166	2845
810.308	2842
810.45	2853
810.591	2777
810.733	2766
810.875	2834
811.016	2781
811.158	2758
811.299	2792
811.441	2922
811.582	2857
811.724	2819
811.865	2807
812.007	2937
812.148	2857
812.29	2849
812.431	2880
812.573	2944
812.714	2956
812.855	3024
812.997	3043
813.138	3108
813.279	2971
813.421	3005
813.562	2925
813.703	2906
813.845	2918
813.986	2758
814.127	2712
814.268	2845
814.41	2830
814.551	2823
814.692	2914
814.833	2811
814.974	2906
815.115	2937
815.256	2792
815.397	2807
815.539	2868
815.68	2727
815.821	2766
815.962	2948
816.103	2922
816.244	2876
816.385	2857
816.526	2971
816.666	2902
816.807	2758
816.948	2895
817.089	2922
817.23	2883
817.371	2785
817.512	2800
817.653	2838
817.793	2815
817.934	2876
818.075	2925
818.216	2994
818.356	2990
818.497	2842
818.638	2758
818.778	2811
818.919	2781
819.06	2758
819.2	2880
819.341	2785
819.481	2811
819.622	2929
819.762	3070
819.903	3058
820.043	2876
820.184	2906
820.324	2887
820.465	3036
820.605	3024
820.746	3017
820.886	2922
821.026	3123
821.167	3161
821.307	3268
821.447	3226
821.588	3279
821.728	3226
821.868	3199
822.008	3051
822.149	3165
822.289	3233
822.429	3142
822.569	3123
822.709	3150
822.849	3043
822.99	3070
823.13	3173
823.27	3184
823.41	3135
823.55	3138
823.69	3169
823.83	3157
823.97	3051
824.11	2986
824.25	3020
824.389	3081
824.529	3169
824.669	3070
824.809	3184
824.949	3214
825.089	3203
825.228	3142
825.368	3005
825.508	2937
825.648	2963
825.787	2998
825.927	3055
826.067	2910
826.206	2994
826.346	3017
826.485	3100
826.625	3116
826.765	3264
826.904	3222
827.044	3024
827.183	2929
827.323	2864
827.462	2963
827.601	2895
827.741	2941
827.88	2975
828.02	2819
828.159	2956
828.298	3043
828.437	3123
828.577	3028
828.716	3249
828.855	3051
828.994	2891
829.134	2872
829.273	2899
829.412	2849
829.551	2842
829.69	2906
829.829	2941
829.968	3138
830.107	2982
830.246	2982
830.385	2906
830.524	2876
830.663	2804
830.802	2727
830.941	2651
831.08	2629
831.219	2708
831.357	2754
831.496	2960
831.635	2689
831.774	2651
831.913	2632
832.051	2530
832.19	2575
832.329	2670
832.467	2545
832.606	2507
832.744	2575
832.883	2579
833.022	2594
833.16	2667
833.299	2663
833.437	2682
833.576	2689
833.714	2708
833.852	2720
833.991	2785
834.129	2834
834.267	2792
834.406	2777
834.544	2883
834.682	2902
834.821	2842
834.959	3058
835.097	2880
835.235	3047
835.373	3001
835.511	2990
835.65	2963
835.788	2937
835.926	2811
836.064	2807
836.202	2838
836.34	3089
836.478	3131
836.615	3020
836.753	3176
836.891	3180
837.029	3161
837.167	3104
837.305	3047
837.443	3032
837.58	2922
837.718	3138
837.856	3093
837.993	3024
838.131	3138
838.269	3100
838.406	3089
838.544	3074
838.681	2937
838.819	2895
838.956	2819
839.094	2807
839.231	2906
839.369	3051
839.506	3359
839.643	3173
839.781	2998
839.918	2986
840.055	3070
840.193	3055
840.33	3055
840.467	3066
840.604	3188
840.742	3382
840.879	3051
841.016	3032
841.153	3116
841.29	3329
841.427	3249
841.564	3272
841.701	3291
841.838	3169
841.975	3176
842.112	3157
842.249	3081
842.385	3005
842.522	3237
842.659	3081
842.796	3036
842.933	3097
843.069	3039
843.206	3024
843.343	3184
843.479	3116
843.616	3135
843.752	2864
843.889	2868
844.025	3097
844.162	2914
844.298	3058
844.435	2914
844.571	2906
844.708	3070
844.844	3184
844.98	3249
845.117	3188
845.253	3070
845.389	3024
845.525	3112
845.661	3062
845.798	2979
845.934	3127
846.07	3039
846.206	3211
846.342	3310
846.478	3230
846.614	3074
846.75	3024
846.886	3032
847.022	3245
847.158	3123
847.294	3195
847.429	3256
847.565	3237
847.701	3523
847.837	3005
847.972	2971
848.108	3138
848.244	3146
848.379	2979
848.515	2914
848.65	2929
848.786	2944
848.921	3009
849.057	3081
849.192	3142
849.328	3089
849.463	3089
849.598	3017
849.734	3039
849.869	2998
850.004	2910
850.14	2933
850.275	2933
850.41	2800
850.545	2868
850.68	2933
850.815	2963
850.95	2960
851.085	3176
851.22	3100
851.355	3039
851.49	3017
851.625	2994
851.76	3039
851.895	2922
852.03	2922
852.165	3062
852.299	3112
852.434	3176
852.569	3150
852.703	3161
852.838	3249
852.973	3321
853.107	3340
853.242	3150
853.376	3074
853.511	2975
853.645	2990
853.78	3249
853.914	3104
854.048	3135
854.183	3032
854.317	3161
854.451	3302
854.585	3112
854.72	3058
854.854	3176
854.988	3047
855.122	3081
855.256	2982
855.39	3077
855.524	3260
855.658	3176
855.792	3127
855.926	3123
856.06	3211
856.194	3207
856.327	3146
856.461	3077
856.595	3055
856.729	3074
856.862	3180
856.996	3161
857.13	3180
857.263	3192
857.397	3298
857.53	3116
857.664	3176
857.797	3245
857.931	3222
858.064	3131
858.197	3207
858.331	3135
858.464	3058
858.597	3005
858.731	3097
858.864	3108
858.997	3051
859.13	3154
859.263	3150
859.396	3207
859.529	3074
859.662	3097
859.795	3024
859.928	3131
860.061	3233
860.194	3287
860.327	3119
860.46	3085
860.592	3241
860.725	3211
860.858	3241
860.99	3089
861.123	3085
861.256	3062
861.388	3131
861.521	3850
861.653	3039
861.786	2979
861.918	2998
862.05	3077
862.183	3108
862.315	3112
862.447	3222
862.58	3108
862.712	2929
862.844	2853
862.976	3017
863.108	2990
863.24	3275
863.372	2868
863.504	2933
863.636	2937
863.768	3039
863.9	2960
864.032	2941
864.164	2906
864.296	3009
864.428	3074
864.559	3089
864.691	3077
864.823	3036
864.954	2998
865.086	3032
865.217	2967
865.349	2944
865.48	2998
865.612	2998
865.743	3085
865.875	2944
866.006	2937
866.137	2971
866.269	2960
866.4	2960
866.531	2902
866.662	2910
866.793	2895
866.924	2872
867.055	2956
867.186	2937
867.317	2868
867.448	2853
867.579	2849
867.71	2861
867.841	2830
867.972	2895
868.103	2887
868.233	2834
868.364	2883
868.495	2895
868.625	3066
868.756	3188
868.886	3005
869.017	3001
869.147	3169
869.278	3165
869.408	3036
869.539	3062
869.669	3089
869.799	3017
869.929	3112
870.06	3100
870.19	3298
870.32	3275
870.45	3294
870.58	3355
870.71	3481
870.84	3439
870.97	3313
871.1	3241
871.23	3500
871.36	3439
871.489	3367
871.619	3409
871.749	3428
871.879	3439
872.008	3458
872.138	3355
872.267	3291
872.397	3150
872.526	3123
872.656	3013
872.785	3081
872.915	3214
873.044	3317
873.173	3222
873.303	3214
873.432	3203
873.561	3237
873.69	3169
873.819	3135
873.948	3195
874.077	3058
874.206	3051
874.335	3089
874.464	3195
874.593	3344
874.722	3222
874.851	3382
874.979	3302
875.108	3272
875.237	3222
875.365	3173
875.494	3161
875.623	3211
875.751	3039
875.88	3112
876.008	3192
876.136	3199
876.265	3351
876.393	3511
876.521	3450
876.65	3378
876.778	3332
876.906	3253
877.034	3165
877.162	3184
877.29	3195
877.418	3237
877.546	3207
877.674	3253
877.802	3241
877.93	3218
878.058	3176
878.185	3097
878.313	3184
878.441	3195
878.568	3085
878.696	3131
878.824	3241
878.951	3268
879.079	3466
879.206	3599
879.333	3443
879.461	3340
879.588	3310
879.715	3458
879.842	3561
879.97	3378
880.097	3154
880.224	3123
880.351	3199
880.478	3203
880.605	3176
880.732	3180
880.859	3523
880.986	3302
881.112	3302
881.239	3169
881.366	3089
881.493	3024
881.619	3005
881.746	3077
881.872	3070
881.999	3116
882.125	3173
882.252	3233
882.378	3272
882.505	3439
882.631	3279
882.757	3203
882.883	3180
883.01	3230
883.136	3135
883.262	3074
883.388	3108
883.514	3321
883.64	3359
883.766	3275
883.892	3195
884.018	3233
884.143	3409
884.269	3511
884.395	3203
884.52	3138
884.646	3180
884.772	3089
884.897	3135
885.023	3218
885.148	3348
885.274	3401
885.399	3336
885.524	3268
885.65	3275
885.775	3313
885.9	3260
886.025	3420
886.15	3340
886.275	3287
886.4	3218
886.525	3268
886.65	3272
886.775	3279
886.9	3485
887.025	3633
887.149	3416
887.274	3214
887.399	3157
887.523	3180
887.648	3188
887.773	3203
887.897	3351
888.021	3409
888.146	3302
888.27	3428
888.395	3530
888.519	3435
888.643	3469
888.767	3450
888.891	3298
889.015	3222
889.139	3275
889.263	3222
889.387	3397
889.511	3469
889.635	3416
889.759	3272
889.883	3275
890.006	3370
890.13	3504
890.254	3298
890.377	3359
890.501	3188
890.624	3199
890.748	3275
890.871	3176
890.995	3081
891.118	3043
891.241	3188
891.364	3218
891.488	3279
891.611	3161
891.734	3249
891.857	3302
891.98	3211
892.103	3298
892.226	3272
892.349	3203
892.471	3138
892.594	3237
892.717	3272
892.839	3233
892.962	3275
893.085	3386
893.207	3268
893.33	3146
893.452	3199
893.575	3340
893.697	3253
893.819	3450
893.941	3466
894.064	3428
894.186	3264
894.308	3272
894.43	3428
894.552	3542
894.674	3477
894.796	3279
894.918	3287
895.04	3272
895.161	3477
895.283	3412
895.405	3348
895.526	3344
895.648	3412
895.769	3412
895.891	3462
896.012	3447
896.134	3469
896.255	3386
896.376	3401
896.498	3348
896.619	3450
896.74	3386
896.861	3389
896.982	3679
897.103	3785
897.224	3564
897.345	3523
897.466	3397
897.587	3492
897.708	3637
897.828	3515
897.949	3424
898.07	3302
898.19	3405
898.311	3580
898.431	3477
898.552	3466
898.672	3561
898.792	3557
898.913	3549
899.033	3378
899.153	3306
899.273	3211
899.393	3279
899.513	3325
899.633	3332
899.753	3351
899.873	3275
899.993	3386
900.113	3367
900.232	3409
900.352	3306
900.472	3287
900.591	3222
900.711	3245
900.83	3199
900.95	3409
901.069	3469
901.189	3329
901.308	3188
901.427	3081
901.546	3188
901.665	3321
901.784	3340
901.904	3188
902.023	3138
902.141	3032
902.26	2975
902.379	3131
902.498	3066
902.617	3039
902.735	3195
902.854	3230
902.973	3173
903.091	3039
903.21	3066
903.328	3142
903.446	3127
903.565	3119
903.683	3192
903.801	3112
903.919	3188
904.038	3291
904.156	3195
904.274	3306
904.392	3256
904.51	3325
904.627	3348
904.745	3466
904.863	3469
904.981	3237
905.098	3157
905.216	3226
905.334	3294
905.451	3302
905.569	3294
905.686	3412
905.803	3450
905.921	3279
906.038	3431
906.155	3374
906.272	3260
906.389	3325
906.506	3253
906.623	3249
906.74	3256
906.857	3161
906.974	3275
907.091	3439
907.208	3542
907.324	3458
907.441	3374
907.557	3230
907.674	3245
907.79	3222
907.907	3233
908.023	3416
908.139	3348
908.256	3321
908.372	3325
908.488	3348
908.604	3222
908.72	3260
908.836	3294
908.952	3298
909.068	3355
909.184	3477
909.3	3424
909.415	3466
909.531	3466
909.647	3256
909.762	3287
909.878	3241
909.993	3363
910.108	3294
910.224	3264
910.339	3393
910.454	3302
910.57	3291
910.685	3245
910.8	3629
910.915	3515
911.03	3409
911.145	3249
911.259	3275
911.374	3313
911.489	3207
911.604	3241
911.718	3127
911.833	3176
911.947	3062
912.062	2982
912.176	3161
912.291	3226
912.405	3199
912.519	3462
912.633	3469
912.748	3359
912.862	3241
912.976	3195
913.09	3051
913.204	3116
913.318	3211
913.431	3321
913.545	3310
913.659	3389
913.772	3344
913.886	3214
914	3180
914.113	3389
914.226	3405
914.34	3367
914.453	3188
914.566	3420
914.68	3302
914.793	3321
914.906	3131
915.019	3119
915.132	3074
915.245	3195
915.358	3169
915.47	3237
915.583	3275
915.696	3291
915.809	3405
915.921	3435
916.034	3253
916.146	3253
916.259	3222
916.371	3386
916.483	3374
916.595	3275
916.708	3302
916.82	3348
916.932	3310
917.044	3344
917.156	3348
917.268	3226
917.38	3291
917.491	3264
917.603	3344
917.715	3409
917.826	3454
917.938	3298
918.049	3291
918.161	3458
918.272	3564
918.384	3557
918.495	3481
918.606	3332
918.717	3306
918.828	3367
918.939	3397
919.05	3310
919.161	3351
919.272	3142
919.383	3298
919.494	3485
919.604	3675
919.715	3507
919.826	3443
919.936	3443
920.047	3572
920.157	3538
920.267	3736
920.378	3606
920.488	3606
920.598	3747
920.708	3922
920.818	3823
920.928	3816
921.038	3998
921.148	3941
921.258	3675
921.368	3633
921.477	3599
921.587	3523
921.697	3443
921.806	3614
921.916	3523
922.025	3332
922.134	3370
922.244	3317
922.353	3401
922.462	3294
922.571	3199
922.68	3119
922.789	3066
922.898	3116
923.007	3104
923.116	3199
923.224	3173
923.333	3157
923.442	3089
923.55	3070
923.659	3135
923.767	3203
923.876	3112
923.984	3245
924.092	3108
924.201	3195
924.309	3218
924.417	3264
924.525	3176
924.633	3253
924.741	4177
924.849	3055
924.956	3279
925.064	3108
925.172	2986
925.279	3085
925.387	3169
925.494	3192
925.602	3344
925.709	3313
925.816	3161
925.924	3332
926.031	3367
926.138	3332
926.245	3344
926.352	3249
926.459	3420
926.566	3458
926.673	3321
926.779	3233
926.886	3245
926.993	3154
927.099	3116
927.206	3127
927.312	3093
927.419	3245
927.525	3199
927.631	3291
927.737	3150
927.843	3108
927.95	3005
928.056	3138
928.162	3154
928.267	3237
928.373	3899
928.479	3329
928.585	3062
928.69	3249
928.796	3279
928.901	3184
929.007	3066
929.112	3233
929.218	3131
929.323	3169
929.428	3165
929.533	3275
929.638	3119
929.743	3169
929.848	3245
929.953	3207
930.058	3142
930.163	2979
930.267	3024
930.372	3188
930.477	3005
930.581	3302
930.685	3173
930.79	3077
930.894	3165
930.998	3077
931.103	3275
931.207	2937
931.311	2967
931.415	2925
931.519	2743
931.623	2769
