Data from test_V78500241_1090.txt Node
Date: Fri Mar 25 16:22:45 CST 2022
User: usil
Spectrometer: V785-0024
Trigger mode: 0
Integration Time (sec): 4.000000E-1
Scans to average: 1
Nonlinearity correction enabled: false
Boxcar width: 0
Storing dark spectrum: false
XAxis mode: Wavelengths
Number of Pixels in Spectrum: 1024
>>>>>Begin Spectral Data<<<<<
801.071	2910
801.214	2918
801.356	2876
801.499	2880
801.641	2845
801.783	2895
801.926	3089
802.068	2960
802.211	3001
802.353	3017
802.496	2960
802.638	2998
802.78	2986
802.923	3085
803.065	2975
803.208	2857
803.35	2895
803.492	2914
803.635	2922
803.777	2766
803.919	2868
804.061	3176
804.204	2963
804.346	2891
804.488	2823
804.63	2982
804.773	2872
804.915	2914
805.057	3100
805.199	2914
805.341	2960
805.483	3009
805.626	2960
805.768	2922
805.91	3089
806.052	3097
806.194	3005
806.336	3188
806.478	3001
806.62	2933
806.762	2986
806.904	3066
807.046	3169
807.188	2971
807.33	2933
807.472	2994
807.614	2902
807.756	3005
807.898	2952
808.04	2868
808.182	2952
808.324	2948
808.465	2883
808.607	2910
808.749	2769
808.891	2830
809.033	2922
809.174	2971
809.316	2864
809.458	2880
809.6	2800
809.741	2773
809.883	2788
810.025	2819
810.166	2830
810.308	2807
810.45	2864
810.591	2773
810.733	2754
810.875	2830
811.016	2773
811.158	2750
811.299	2792
811.441	2876
811.582	2925
811.724	2834
811.865	2811
812.007	2887
812.148	2895
812.29	2819
812.431	2883
812.573	2922
812.714	2914
812.855	3028
812.997	3032
813.138	3169
813.279	3032
813.421	2986
813.562	2914
813.703	2864
813.845	2842
813.986	2800
814.127	2708
814.268	2800
814.41	2807
814.551	2834
814.692	2891
814.833	2807
814.974	2880
815.115	2952
815.256	2845
815.397	2838
815.539	2826
815.68	2758
815.821	2804
815.962	2960
816.103	2902
816.244	2906
816.385	2845
816.526	2956
816.666	2937
816.807	2712
816.948	2899
817.089	2883
817.23	2880
817.371	2785
817.512	2766
817.653	2876
817.793	2792
817.934	2895
818.075	2963
818.216	2990
818.356	3062
818.497	2887
818.638	2766
818.778	2804
818.919	2781
819.06	2773
819.2	2876
819.341	2788
819.481	2792
819.622	2929
819.762	3116
819.903	3047
820.043	2891
820.184	2929
820.324	2864
820.465	3028
820.605	3043
820.746	3028
820.886	2918
821.026	3119
821.167	3127
821.307	3268
821.447	3294
821.588	3218
821.728	3222
821.868	3199
822.008	3100
822.149	3176
822.289	3226
822.429	3066
822.569	3077
822.709	3176
822.849	3020
822.99	3108
823.13	3157
823.27	3218
823.41	3116
823.55	3123
823.69	3173
823.83	3169
823.97	3097
824.11	2960
824.25	2986
824.389	3028
824.529	3123
824.669	3070
824.809	3188
824.949	3272
825.089	3195
825.228	3157
825.368	2998
825.508	2941
825.648	2948
825.787	2979
825.927	3039
826.067	2971
826.206	3020
826.346	3085
826.485	3093
826.625	3047
826.765	3272
826.904	3207
827.044	3036
827.183	2922
827.323	2899
827.462	2994
827.601	2941
827.741	2963
827.88	2986
828.02	2876
828.159	2998
828.298	3058
828.437	3100
828.577	3055
828.716	3291
828.855	3100
828.994	2960
829.134	2906
829.273	2933
829.412	2899
829.551	2914
829.69	2918
829.829	3017
829.968	3150
830.107	3024
830.246	3074
830.385	2941
830.524	2925
830.663	2853
830.802	2746
830.941	2697
831.08	2697
831.219	2785
831.357	2811
831.496	2998
831.635	2743
831.774	2701
831.913	2682
832.051	2598
832.19	2640
832.329	2727
832.467	2575
832.606	2511
832.744	2629
832.883	2625
833.022	2613
833.16	2701
833.299	2727
833.437	2720
833.576	2758
833.714	2739
833.852	2750
833.991	2830
834.129	2910
834.267	2849
834.406	2849
834.544	2887
834.682	2918
834.821	2910
834.959	3138
835.097	2956
835.235	3074
835.373	3013
835.511	3093
835.65	3001
835.788	2933
835.926	2883
836.064	2819
836.202	2899
836.34	3142
836.478	3165
836.615	3097
836.753	3154
836.891	3233
837.029	3203
837.167	3146
837.305	3123
837.443	3058
837.58	2979
837.718	3169
837.856	3097
837.993	3074
838.131	3138
838.269	3138
838.406	3093
838.544	3119
838.681	2956
838.819	2952
838.956	2895
839.094	2883
839.231	2956
839.369	3036
839.506	3397
839.643	3279
839.781	3043
839.918	3024
840.055	3108
840.193	3077
840.33	3104
840.467	3104
840.604	3180
840.742	3500
840.879	3112
841.016	3055
841.153	3165
841.29	3355
841.427	3340
841.564	3287
841.701	3370
841.838	3241
841.975	3241
842.112	3256
842.249	3089
842.385	3055
842.522	3313
842.659	3100
842.796	3093
842.933	3108
843.069	3093
843.206	3108
843.343	3188
843.479	3108
843.616	3138
843.752	2899
843.889	2902
844.025	3112
844.162	2941
844.298	3097
844.435	3001
844.571	2948
844.708	3108
844.844	3211
844.98	3245
845.117	3218
845.253	3093
845.389	3043
845.525	3131
845.661	3127
845.798	3043
845.934	3161
846.07	3089
846.206	3275
846.342	3325
846.478	3279
846.614	3154
846.75	3081
846.886	3070
847.022	3287
847.158	3131
847.294	3249
847.429	3291
847.565	3256
847.701	3500
847.837	3100
847.972	3020
848.108	3188
848.244	3188
848.379	3005
848.515	2952
848.65	2952
848.786	2998
848.921	3028
849.057	3142
849.192	3226
849.328	3142
849.463	3165
849.598	3119
849.734	3081
849.869	3005
850.004	2944
850.14	3032
850.275	2944
850.41	2887
850.545	2933
850.68	2979
850.815	3005
850.95	2990
851.085	3226
851.22	3165
851.355	3058
851.49	3013
851.625	3009
851.76	3017
851.895	2952
852.03	2891
852.165	3055
852.299	3116
852.434	3203
852.569	3173
852.703	3207
852.838	3272
852.973	3348
853.107	3317
853.242	3184
853.376	3127
853.511	2998
853.645	3047
853.78	3245
853.914	3157
854.048	3173
854.183	3119
854.317	3184
854.451	3287
854.585	3138
854.72	3146
854.854	3218
854.988	3089
855.122	3077
855.256	2994
855.39	3150
855.524	3283
855.658	3249
855.792	3173
855.926	3195
856.06	3268
856.194	3313
856.327	3161
856.461	3085
856.595	3108
856.729	3116
856.862	3275
856.996	3207
857.13	3214
857.263	3283
857.397	3294
857.53	3154
857.664	3218
857.797	3256
857.931	3260
858.064	3142
858.197	3241
858.331	3161
858.464	3112
858.597	3001
858.731	3150
858.864	3154
858.997	3074
859.13	3188
859.263	3203
859.396	3287
859.529	3108
859.662	3081
859.795	3085
859.928	3157
860.061	3294
860.194	3306
860.327	3154
860.46	3097
860.592	3260
860.725	3275
860.858	3317
860.99	3112
861.123	3085
861.256	3093
861.388	3173
861.521	3759
861.653	3024
861.786	3013
861.918	3020
862.05	3085
862.183	3093
862.315	3150
862.447	3226
862.58	3104
862.712	2982
862.844	2887
862.976	3070
863.108	3070
863.24	3443
863.372	2910
863.504	2975
863.636	2960
863.768	3058
863.9	3024
864.032	2937
864.164	2967
864.296	3051
864.428	3070
864.559	3161
864.691	3100
864.823	3062
864.954	3081
865.086	3077
865.217	3028
865.349	2990
865.48	3047
865.612	3077
865.743	3180
865.875	3001
866.006	2967
866.137	3028
866.269	2952
866.4	2948
866.531	2933
866.662	2883
866.793	2922
866.924	2922
867.055	3017
867.186	2933
867.317	2910
867.448	2868
867.579	2883
867.71	2887
867.841	2819
867.972	2906
868.103	2918
868.233	2910
868.364	2887
868.495	2895
868.625	3112
868.756	3218
868.886	2956
869.017	3066
869.147	3195
869.278	3207
869.408	3058
869.539	3043
869.669	3108
869.799	3104
869.929	3142
870.06	3116
870.19	3317
870.32	3283
870.45	3367
870.58	3340
870.71	3454
870.84	3477
870.97	3302
871.1	3275
871.23	3477
871.36	3496
871.489	3370
871.619	3412
871.749	3431
871.879	3443
872.008	3545
872.138	3367
872.267	3317
872.397	3165
872.526	3104
872.656	3013
872.785	3142
872.915	3272
873.044	3306
873.173	3241
873.303	3302
873.432	3275
873.561	3256
873.69	3184
873.819	3184
873.948	3188
874.077	3157
874.206	3009
874.335	3112
874.464	3203
874.593	3389
874.722	3260
874.851	3409
874.979	3370
875.108	3336
875.237	3199
875.365	3214
875.494	3192
875.623	3256
875.751	3100
875.88	3142
876.008	3180
876.136	3253
876.265	3416
876.393	3507
876.521	3458
876.65	3439
876.778	3359
876.906	3249
877.034	3222
877.162	3268
877.29	3222
877.418	3256
877.546	3283
877.674	3241
877.802	3256
877.93	3237
878.058	3150
878.185	3116
878.313	3207
878.441	3256
878.568	3093
878.696	3165
878.824	3275
878.951	3367
879.079	3447
879.206	3610
879.333	3477
879.461	3370
879.588	3363
879.715	3511
879.842	3599
879.97	3397
880.097	3157
880.224	3146
880.351	3176
880.478	3241
880.605	3199
880.732	3211
880.859	3496
880.986	3329
881.112	3355
881.239	3218
881.366	3112
881.493	3032
881.619	3043
881.746	3108
881.872	3119
881.999	3085
882.125	3173
882.252	3222
882.378	3264
882.505	3447
882.631	3291
882.757	3203
882.883	3192
883.01	3241
883.136	3184
883.262	3070
883.388	3127
883.514	3317
883.64	3386
883.766	3313
883.892	3199
884.018	3233
884.143	3405
884.269	3526
884.395	3226
884.52	3161
884.646	3233
884.772	3085
884.897	3104
885.023	3211
885.148	3336
885.274	3443
885.399	3359
885.524	3294
885.65	3237
885.775	3348
885.9	3275
886.025	3424
886.15	3363
886.275	3302
886.4	3233
886.525	3283
886.65	3260
886.775	3275
886.9	3481
887.025	3663
887.149	3431
887.274	3253
887.399	3192
887.523	3230
887.648	3214
887.773	3192
887.897	3386
888.021	3378
888.146	3275
888.27	3450
888.395	3519
888.519	3416
888.643	3447
888.767	3466
888.891	3317
889.015	3275
889.139	3294
889.263	3268
889.387	3409
889.511	3523
889.635	3481
889.759	3317
889.883	3306
890.006	3378
890.13	3519
890.254	3233
890.377	3428
890.501	3237
890.624	3218
890.748	3325
890.871	3180
890.995	3112
891.118	3097
891.241	3218
891.364	3256
891.488	3302
891.611	3218
891.734	3214
891.857	3336
891.98	3287
892.103	3344
892.226	3279
892.349	3245
892.471	3127
892.594	3249
892.717	3321
892.839	3298
892.962	3287
893.085	3370
893.207	3275
893.33	3173
893.452	3275
893.575	3370
893.697	3264
893.819	3485
893.941	3515
894.064	3439
894.186	3287
894.308	3268
894.43	3447
894.552	3545
894.674	3469
894.796	3272
894.918	3321
895.04	3306
895.161	3439
895.283	3401
895.405	3325
895.526	3416
895.648	3431
895.769	3439
895.891	3492
896.012	3477
896.134	3492
896.255	3420
896.376	3424
896.498	3401
896.619	3454
896.74	3355
896.861	3435
896.982	3690
897.103	3880
897.224	3561
897.345	3504
897.466	3420
897.587	3477
897.708	3637
897.828	3519
897.949	3409
898.07	3306
898.19	3409
898.311	3625
898.431	3466
898.552	3545
898.672	3568
898.792	3584
898.913	3507
899.033	3401
899.153	3268
899.273	3188
899.393	3264
899.513	3298
899.633	3310
899.753	3351
899.873	3325
899.993	3374
900.113	3336
900.232	3363
900.352	3336
900.472	3291
900.591	3226
900.711	3317
900.83	3241
900.95	3416
901.069	3515
901.189	3351
901.308	3218
901.427	3123
901.546	3207
901.665	3294
901.784	3348
901.904	3226
902.023	3135
902.141	3020
902.26	3017
902.379	3142
902.498	3093
902.617	3085
902.735	3245
902.854	3222
902.973	3207
903.091	3043
903.21	3036
903.328	3161
903.446	3089
903.565	3097
903.683	3207
903.801	3131
903.919	3264
904.038	3245
904.156	3165
904.274	3313
904.392	3283
904.51	3283
904.627	3386
904.745	3428
904.863	3496
904.981	3302
905.098	3157
905.216	3268
905.334	3283
905.451	3344
905.569	3325
905.686	3401
905.803	3454
905.921	3294
906.038	3412
906.155	3344
906.272	3275
906.389	3344
906.506	3214
906.623	3249
906.74	3253
906.857	3165
906.974	3268
907.091	3462
907.208	3542
907.324	3496
907.441	3409
907.557	3241
907.674	3226
907.79	3207
907.907	3207
908.023	3405
908.139	3382
908.256	3344
908.372	3382
908.488	3344
908.604	3256
908.72	3260
908.836	3306
908.952	3268
909.068	3332
909.184	3462
909.3	3386
909.415	3511
909.531	3450
909.647	3291
909.762	3325
909.878	3260
909.993	3359
910.108	3332
910.224	3370
910.339	3428
910.454	3313
910.57	3306
910.685	3249
910.8	3618
910.915	3564
911.03	3450
911.145	3275
911.259	3253
911.374	3306
911.489	3226
911.604	3237
911.718	3100
911.833	3150
911.947	3058
912.062	2994
912.176	3184
912.291	3218
912.405	3188
912.519	3431
912.633	3469
912.748	3313
912.862	3283
912.976	3203
913.09	3055
913.204	3157
913.318	3218
913.431	3348
913.545	3351
913.659	3416
913.772	3317
913.886	3253
914	3214
914.113	3374
914.226	3401
914.34	3344
914.453	3207
914.566	3401
914.68	3264
914.793	3329
914.906	3173
915.019	3119
915.132	3089
915.245	3184
915.358	3237
915.47	3226
915.583	3294
915.696	3310
915.809	3405
915.921	3420
916.034	3283
916.146	3283
916.259	3241
916.371	3435
916.483	3393
916.595	3329
916.708	3325
916.82	3325
916.932	3355
917.044	3306
917.156	3348
917.268	3237
917.38	3321
917.491	3260
917.603	3386
917.715	3481
917.826	3485
917.938	3389
918.049	3249
918.161	3386
918.272	3603
918.384	3542
918.495	3469
918.606	3370
918.717	3253
918.828	3382
918.939	3420
919.05	3294
919.161	3401
919.272	3154
919.383	3321
919.494	3492
919.604	3679
919.715	3454
919.826	3424
919.936	3473
920.047	3587
920.157	3511
920.267	3766
920.378	3606
920.488	3549
920.598	3785
920.708	3953
920.818	3854
920.928	3831
921.038	4044
921.148	4017
921.258	3720
921.368	3637
921.477	3572
921.587	3561
921.697	3450
921.806	3637
921.916	3496
922.025	3378
922.134	3359
922.244	3302
922.353	3420
922.462	3279
922.571	3230
922.68	3135
922.789	3043
922.898	3150
923.007	3119
923.116	3199
923.224	3188
923.333	3226
923.442	3089
923.55	3131
923.659	3161
923.767	3199
923.876	3127
923.984	3241
924.092	3097
924.201	3199
924.309	3207
924.417	3260
924.525	3207
924.633	3260
924.741	4006
924.849	3070
924.956	3283
925.064	3112
925.172	3032
925.279	3112
925.387	3188
925.494	3195
925.602	3310
925.709	3310
925.816	3184
925.924	3294
926.031	3348
926.138	3298
926.245	3374
926.352	3253
926.459	3409
926.566	3447
926.673	3359
926.779	3237
926.886	3253
926.993	3180
927.099	3135
927.206	3123
927.312	3085
927.419	3207
927.525	3218
927.631	3321
927.737	3157
927.843	3123
927.95	3039
928.056	3112
928.162	3154
928.267	3226
928.373	3831
928.479	3317
928.585	3009
928.69	3222
928.796	3283
928.901	3150
929.007	3070
929.112	3199
929.218	3176
929.323	3116
929.428	3154
929.533	3332
929.638	3135
929.743	3165
929.848	3245
929.953	3222
930.058	3127
930.163	3009
930.267	3017
930.372	3180
930.477	3009
930.581	3298
930.685	3180
930.79	3043
930.894	3138
930.998	3070
931.103	3275
931.207	2963
931.311	2948
931.415	2937
931.519	2754
931.623	2800
