Data from test_V78500241_373.txt Node
Date: Fri Mar 25 16:17:47 CST 2022
User: usil
Spectrometer: V785-0024
Trigger mode: 0
Integration Time (sec): 4.000000E-1
Scans to average: 1
Nonlinearity correction enabled: false
Boxcar width: 0
Storing dark spectrum: false
XAxis mode: Wavelengths
Number of Pixels in Spectrum: 1024
>>>>>Begin Spectral Data<<<<<
801.071	2864
801.214	2971
801.356	2872
801.499	2914
801.641	2826
801.783	2929
801.926	3047
802.068	2944
802.211	3058
802.353	3020
802.496	2952
802.638	2971
802.78	3020
802.923	3112
803.065	2948
803.208	2853
803.35	2910
803.492	2876
803.635	2929
803.777	2773
803.919	2830
804.061	3165
804.204	2925
804.346	2868
804.488	2842
804.63	2975
804.773	2872
804.915	2910
805.057	3055
805.199	2895
805.341	2979
805.483	3028
805.626	2986
805.768	2937
805.91	3070
806.052	3127
806.194	3032
806.336	3218
806.478	3036
806.62	2937
806.762	2975
806.904	3058
807.046	3165
807.188	2994
807.33	2899
807.472	2975
807.614	2887
807.756	2971
807.898	2918
808.04	2906
808.182	2944
808.324	2956
808.465	2872
808.607	2845
808.749	2785
808.891	2842
809.033	2994
809.174	2944
809.316	2899
809.458	2876
809.6	2788
809.741	2762
809.883	2777
810.025	2830
810.166	2895
810.308	2823
810.45	2845
810.591	2735
810.733	2766
810.875	2815
811.016	2807
811.158	2743
811.299	2834
811.441	2925
811.582	2883
811.724	2815
811.865	2807
812.007	2941
812.148	2864
812.29	2834
812.431	2902
812.573	2910
812.714	2982
812.855	3043
812.997	3051
813.138	3100
813.279	2998
813.421	2967
813.562	2944
813.703	2864
813.845	2899
813.986	2785
814.127	2766
814.268	2807
814.41	2872
814.551	2819
814.692	2864
814.833	2834
814.974	2883
815.115	2990
815.256	2826
815.397	2796
815.539	2834
815.68	2750
815.821	2769
815.962	2925
816.103	2929
816.244	2864
816.385	2857
816.526	2967
816.666	2902
816.807	2735
816.948	2876
817.089	2899
817.23	2826
817.371	2773
817.512	2785
817.653	2830
817.793	2834
817.934	2845
818.075	2929
818.216	2990
818.356	3001
818.497	2883
818.638	2773
818.778	2796
818.919	2777
819.06	2754
819.2	2849
819.341	2754
819.481	2800
819.622	2925
819.762	3047
819.903	3066
820.043	2910
820.184	2868
820.324	2868
820.465	2967
820.605	3017
820.746	3009
820.886	2971
821.026	3085
821.167	3138
821.307	3253
821.447	3325
821.588	3214
821.728	3218
821.868	3173
822.008	3081
822.149	3195
822.289	3218
822.429	3097
822.569	3081
822.709	3192
822.849	3070
822.99	3043
823.13	3135
823.27	3211
823.41	3112
823.55	3176
823.69	3146
823.83	3188
823.97	3112
824.11	3055
824.25	2982
824.389	3074
824.529	3093
824.669	3085
824.809	3230
824.949	3302
825.089	3218
825.228	3211
825.368	3001
825.508	2960
825.648	2998
825.787	3009
825.927	3074
826.067	3039
826.206	3009
826.346	3081
826.485	3081
826.625	3138
826.765	3245
826.904	3275
827.044	3017
827.183	2979
827.323	2910
827.462	3020
827.601	2922
827.741	2990
827.88	2990
828.02	2902
828.159	3017
828.298	3058
828.437	3211
828.577	3036
828.716	3302
828.855	3112
828.994	2944
829.134	2925
829.273	3005
829.412	2902
829.551	2887
829.69	2979
829.829	3024
829.968	3138
830.107	3036
830.246	3089
830.385	2944
830.524	2880
830.663	2842
830.802	2766
830.941	2693
831.08	2716
831.219	2819
831.357	2777
831.496	2975
831.635	2758
831.774	2670
831.913	2693
832.051	2575
832.19	2651
832.329	2735
832.467	2568
832.606	2514
832.744	2629
832.883	2613
833.022	2629
833.16	2705
833.299	2705
833.437	2724
833.576	2743
833.714	2746
833.852	2758
833.991	2792
834.129	2868
834.267	2861
834.406	2845
834.544	2952
834.682	2910
834.821	2929
834.959	3116
835.097	2922
835.235	3108
835.373	3024
835.511	3039
835.65	3005
835.788	2944
835.926	2883
836.064	2819
836.202	2883
836.34	3131
836.478	3192
836.615	3104
836.753	3165
836.891	3237
837.029	3192
837.167	3138
837.305	3081
837.443	3100
837.58	3005
837.718	3165
837.856	3154
837.993	3097
838.131	3138
838.269	3135
838.406	3123
838.544	3127
838.681	2960
838.819	2941
838.956	2845
839.094	2887
839.231	2952
839.369	3058
839.506	3424
839.643	3256
839.781	3032
839.918	2986
840.055	3081
840.193	3100
840.33	3089
840.467	3100
840.604	3157
840.742	3435
840.879	3062
841.016	3070
841.153	3146
841.29	3405
841.427	3317
841.564	3317
841.701	3294
841.838	3256
841.975	3188
842.112	3268
842.249	3112
842.385	3100
842.522	3294
842.659	3100
842.796	3104
842.933	3131
843.069	3055
843.206	3066
843.343	3241
843.479	3116
843.616	3157
843.752	2937
843.889	2899
844.025	3108
844.162	2902
844.298	3112
844.435	2998
844.571	2929
844.708	3070
844.844	3211
844.98	3294
845.117	3230
845.253	3058
845.389	3032
845.525	3100
845.661	3112
845.798	3043
845.934	3161
846.07	3093
846.206	3230
846.342	3287
846.478	3310
846.614	3112
846.75	3081
846.886	3058
847.022	3279
847.158	3150
847.294	3214
847.429	3256
847.565	3199
847.701	3538
847.837	3070
847.972	3062
848.108	3188
848.244	3169
848.379	3043
848.515	2929
848.65	2963
848.786	3009
848.921	3047
849.057	3097
849.192	3192
849.328	3108
849.463	3108
849.598	3085
849.734	3070
849.869	3009
850.004	2929
850.14	2998
850.275	2960
850.41	2853
850.545	2891
850.68	2933
850.815	2979
850.95	3017
851.085	3199
851.22	3104
851.355	3070
851.49	2994
851.625	3051
851.76	3032
851.895	2963
852.03	2967
852.165	3085
852.299	3138
852.434	3211
852.569	3207
852.703	3173
852.838	3313
852.973	3370
853.107	3317
853.242	3203
853.376	3116
853.511	2990
853.645	3062
853.78	3268
853.914	3165
854.048	3150
854.183	3081
854.317	3222
854.451	3355
854.585	3146
854.72	3089
854.854	3260
854.988	3070
855.122	3116
855.256	3005
855.39	3154
855.524	3230
855.658	3218
855.792	3173
855.926	3241
856.06	3203
856.194	3313
856.327	3150
856.461	3093
856.595	3108
856.729	3119
856.862	3260
856.996	3199
857.13	3230
857.263	3253
857.397	3306
857.53	3184
857.664	3218
857.797	3272
857.931	3291
858.064	3169
858.197	3214
858.331	3184
858.464	3112
858.597	3066
858.731	3135
858.864	3173
858.997	3116
859.13	3188
859.263	3169
859.396	3249
859.529	3135
859.662	3085
859.795	3093
859.928	3146
860.061	3321
860.194	3302
860.327	3176
860.46	3146
860.592	3283
860.725	3253
860.858	3291
860.99	3142
861.123	3062
861.256	3097
861.388	3138
861.521	3899
861.653	3036
861.786	3001
861.918	3039
862.05	3058
862.183	3089
862.315	3173
862.447	3203
862.58	3116
862.712	2956
862.844	2929
862.976	3055
863.108	3081
863.24	3397
863.372	2902
863.504	3017
863.636	2982
863.768	3055
863.9	3028
864.032	2929
864.164	2990
864.296	3047
864.428	3123
864.559	3066
864.691	3119
864.823	3123
864.954	3093
865.086	3097
865.217	3028
865.349	2986
865.48	2982
865.612	3055
865.743	3173
865.875	3036
866.006	3017
866.137	2982
866.269	2967
866.4	2967
866.531	2914
866.662	2922
866.793	2906
866.924	2925
867.055	2986
867.186	2956
867.317	2902
867.448	2845
867.579	2868
867.71	2876
867.841	2838
867.972	2937
868.103	2906
868.233	2925
868.364	2902
868.495	2918
868.625	3108
868.756	3218
868.886	2963
869.017	3047
869.147	3165
869.278	3207
869.408	3051
869.539	3028
869.669	3142
869.799	3100
869.929	3207
870.06	3108
870.19	3302
870.32	3332
870.45	3336
870.58	3443
870.71	3443
870.84	3454
870.97	3340
871.1	3237
871.23	3507
871.36	3469
871.489	3374
871.619	3389
871.749	3420
871.879	3462
872.008	3477
872.138	3382
872.267	3298
872.397	3157
872.526	3142
872.656	3047
872.785	3112
872.915	3283
873.044	3340
873.173	3230
873.303	3260
873.432	3237
873.561	3256
873.69	3188
873.819	3192
873.948	3207
874.077	3123
874.206	3036
874.335	3135
874.464	3207
874.593	3378
874.722	3253
874.851	3428
874.979	3344
875.108	3344
875.237	3211
875.365	3203
875.494	3188
875.623	3253
875.751	3123
875.88	3131
876.008	3222
876.136	3222
876.265	3405
876.393	3504
876.521	3477
876.65	3431
876.778	3382
876.906	3260
877.034	3218
877.162	3230
877.29	3184
877.418	3268
877.546	3253
877.674	3272
877.802	3256
877.93	3264
878.058	3154
878.185	3135
878.313	3218
878.441	3207
878.568	3100
878.696	3192
878.824	3287
878.951	3329
879.079	3500
879.206	3625
879.333	3462
879.461	3344
879.588	3378
879.715	3504
879.842	3618
879.97	3424
880.097	3157
880.224	3184
880.351	3192
880.478	3241
880.605	3218
880.732	3211
880.859	3488
880.986	3329
881.112	3351
881.239	3237
881.366	3131
881.493	3039
881.619	3047
881.746	3085
881.872	3097
881.999	3104
882.125	3135
882.252	3287
882.378	3317
882.505	3447
882.631	3325
882.757	3138
882.883	3253
883.01	3245
883.136	3184
883.262	3100
883.388	3116
883.514	3321
883.64	3397
883.766	3336
883.892	3184
884.018	3310
884.143	3409
884.269	3561
884.395	3211
884.52	3176
884.646	3203
884.772	3123
884.897	3116
885.023	3214
885.148	3348
885.274	3393
885.399	3374
885.524	3302
885.65	3260
885.775	3313
885.9	3291
886.025	3466
886.15	3409
886.275	3325
886.4	3272
886.525	3329
886.65	3294
886.775	3283
886.9	3511
887.025	3656
887.149	3447
887.274	3291
887.399	3218
887.523	3237
887.648	3184
887.773	3218
887.897	3359
888.021	3370
888.146	3332
888.27	3450
888.395	3553
888.519	3420
888.643	3466
888.767	3443
888.891	3325
889.015	3287
889.139	3306
889.263	3260
889.387	3420
889.511	3542
889.635	3450
889.759	3329
889.883	3344
890.006	3405
890.13	3523
890.254	3264
890.377	3359
890.501	3287
890.624	3157
890.748	3287
890.871	3207
890.995	3112
891.118	3097
891.241	3199
891.364	3260
891.488	3325
891.611	3211
891.734	3249
891.857	3329
891.98	3249
892.103	3355
892.226	3272
892.349	3203
892.471	3150
892.594	3233
892.717	3344
892.839	3291
892.962	3317
893.085	3348
893.207	3325
893.33	3165
893.452	3245
893.575	3313
893.697	3268
893.819	3462
893.941	3488
894.064	3454
894.186	3241
894.308	3279
894.43	3447
894.552	3568
894.674	3481
894.796	3245
894.918	3294
895.04	3272
895.161	3466
895.283	3382
895.405	3275
895.526	3344
895.648	3435
895.769	3416
895.891	3473
896.012	3519
896.134	3469
896.255	3393
896.376	3374
896.498	3401
896.619	3428
896.74	3389
896.861	3462
896.982	3698
897.103	3865
897.224	3591
897.345	3526
897.466	3469
897.587	3511
897.708	3663
897.828	3492
897.949	3488
898.07	3344
898.19	3367
898.311	3606
898.431	3439
898.552	3530
898.672	3580
898.792	3622
898.913	3545
899.033	3397
899.153	3332
899.273	3218
899.393	3329
899.513	3291
899.633	3310
899.753	3348
899.873	3317
899.993	3359
900.113	3317
900.232	3435
900.352	3374
900.472	3306
900.591	3218
900.711	3291
900.83	3256
900.95	3389
901.069	3496
901.189	3336
901.308	3195
901.427	3157
901.546	3214
901.665	3275
901.784	3302
901.904	3230
902.023	3146
902.141	3051
902.26	2986
902.379	3146
902.498	3085
902.617	3051
902.735	3199
902.854	3245
902.973	3233
903.091	3055
903.21	3051
903.328	3146
903.446	3142
903.565	3116
903.683	3226
903.801	3157
903.919	3298
904.038	3317
904.156	3184
904.274	3291
904.392	3298
904.51	3348
904.627	3313
904.745	3443
904.863	3504
904.981	3294
905.098	3161
905.216	3207
905.334	3310
905.451	3298
905.569	3329
905.686	3412
905.803	3466
905.921	3321
906.038	3435
906.155	3370
906.272	3291
906.389	3332
906.506	3245
906.623	3264
906.74	3287
906.857	3203
906.974	3256
907.091	3462
907.208	3591
907.324	3469
907.441	3405
907.557	3253
907.674	3241
907.79	3214
907.907	3294
908.023	3397
908.139	3359
908.256	3374
908.372	3386
908.488	3416
908.604	3291
908.72	3226
908.836	3279
908.952	3329
909.068	3344
909.184	3488
909.3	3386
909.415	3473
909.531	3462
909.647	3298
909.762	3336
909.878	3283
909.993	3386
910.108	3351
910.224	3332
910.339	3393
910.454	3340
910.57	3306
910.685	3264
910.8	3591
910.915	3542
911.03	3458
911.145	3279
911.259	3302
911.374	3359
911.489	3233
911.604	3233
911.718	3112
911.833	3161
911.947	3028
912.062	2979
912.176	3184
912.291	3211
912.405	3222
912.519	3443
912.633	3447
912.748	3351
912.862	3260
912.976	3207
913.09	3089
913.204	3176
913.318	3245
913.431	3313
913.545	3363
913.659	3355
913.772	3329
913.886	3214
914	3180
914.113	3351
914.226	3401
914.34	3359
914.453	3237
914.566	3405
914.68	3310
914.793	3317
914.906	3131
915.019	3161
915.132	3043
915.245	3184
915.358	3199
915.47	3207
915.583	3253
915.696	3317
915.809	3439
915.921	3393
916.034	3256
916.146	3253
916.259	3222
916.371	3393
916.483	3355
916.595	3279
916.708	3344
916.82	3329
916.932	3359
917.044	3329
917.156	3340
917.268	3233
917.38	3313
917.491	3302
917.603	3359
917.715	3439
917.826	3492
917.938	3344
918.049	3329
918.161	3405
918.272	3572
918.384	3599
918.495	3511
918.606	3306
918.717	3279
918.828	3378
918.939	3367
919.05	3287
919.161	3351
919.272	3192
919.383	3306
919.494	3507
919.604	3660
919.715	3485
919.826	3416
919.936	3454
920.047	3610
920.157	3526
920.267	3751
920.378	3625
920.488	3553
920.598	3808
920.708	3941
920.818	3759
920.928	3823
921.038	4048
921.148	3983
921.258	3717
921.368	3641
921.477	3625
921.587	3542
921.697	3473
921.806	3629
921.916	3561
922.025	3363
922.134	3344
922.244	3302
922.353	3416
922.462	3283
922.571	3199
922.68	3081
922.789	3074
922.898	3142
923.007	3085
923.116	3214
923.224	3192
923.333	3161
923.442	3108
923.55	3100
923.659	3150
923.767	3253
923.876	3108
923.984	3222
924.092	3104
924.201	3226
924.309	3203
924.417	3268
924.525	3211
924.633	3233
924.741	4173
924.849	3058
924.956	3241
925.064	3127
925.172	3028
925.279	3112
925.387	3173
925.494	3203
925.602	3367
925.709	3317
925.816	3214
925.924	3264
926.031	3386
926.138	3310
926.245	3409
926.352	3249
926.459	3389
926.566	3496
926.673	3310
926.779	3249
926.886	3245
926.993	3135
927.099	3154
927.206	3104
927.312	3123
927.419	3233
927.525	3199
927.631	3268
927.737	3165
927.843	3157
927.95	3017
928.056	3157
928.162	3173
928.267	3249
928.373	3846
928.479	3279
928.585	3070
928.69	3214
928.796	3283
928.901	3188
929.007	3036
929.112	3214
929.218	3142
929.323	3138
929.428	3116
929.533	3340
929.638	3146
929.743	3146
929.848	3233
929.953	3226
930.058	3142
930.163	3005
930.267	3066
930.372	3199
930.477	3036
930.581	3325
930.685	3146
930.79	3051
930.894	3089
930.998	3116
931.103	3249
931.207	2967
931.311	2971
931.415	2944
931.519	2788
931.623	2800
