Data from test_V78500241_1626.txt Node
Date: Fri Mar 25 16:26:28 CST 2022
User: usil
Spectrometer: V785-0024
Trigger mode: 0
Integration Time (sec): 4.000000E-1
Scans to average: 1
Nonlinearity correction enabled: false
Boxcar width: 0
Storing dark spectrum: false
XAxis mode: Wavelengths
Number of Pixels in Spectrum: 1024
>>>>>Begin Spectral Data<<<<<
801.071	2883
801.214	2948
801.356	2872
801.499	2845
801.641	2868
801.783	2929
801.926	3024
802.068	2971
802.211	3009
802.353	2994
802.496	2979
802.638	3001
802.78	3036
802.923	3070
803.065	2990
803.208	2891
803.35	2906
803.492	2925
803.635	2937
803.777	2731
803.919	2834
804.061	3192
804.204	2975
804.346	2925
804.488	2845
804.63	3001
804.773	2883
804.915	2925
805.057	3039
805.199	2914
805.341	2986
805.483	3039
805.626	2979
805.768	2960
805.91	3093
806.052	3066
806.194	3020
806.336	3195
806.478	3055
806.62	2967
806.762	2986
806.904	3028
807.046	3161
807.188	2963
807.33	2887
807.472	3001
807.614	2883
807.756	3005
807.898	2956
808.04	2864
808.182	2994
808.324	2937
808.465	2872
808.607	2838
808.749	2811
808.891	2853
809.033	2994
809.174	3009
809.316	2902
809.458	2887
809.6	2788
809.741	2750
809.883	2777
810.025	2857
810.166	2864
810.308	2834
810.45	2853
810.591	2769
810.733	2758
810.875	2815
811.016	2769
811.158	2781
811.299	2811
811.441	2925
811.582	2864
811.724	2804
811.865	2853
812.007	2914
812.148	2876
812.29	2830
812.431	2883
812.573	2941
812.714	2994
812.855	3055
812.997	3058
813.138	3123
813.279	3009
813.421	2982
813.562	2941
813.703	2883
813.845	2864
813.986	2743
814.127	2716
814.268	2819
814.41	2857
814.551	2811
814.692	2849
814.833	2804
814.974	2857
815.115	2971
815.256	2830
815.397	2849
815.539	2864
815.68	2739
815.821	2819
815.962	2910
816.103	2933
816.244	2891
816.385	2868
816.526	2975
816.666	2929
816.807	2739
816.948	2918
817.089	2910
817.23	2857
817.371	2773
817.512	2785
817.653	2830
817.793	2819
817.934	2883
818.075	2952
818.216	2990
818.356	3032
818.497	2910
818.638	2735
818.778	2804
818.919	2777
819.06	2754
819.2	2864
819.341	2796
819.481	2792
819.622	2948
819.762	3100
819.903	3028
820.043	2895
820.184	2887
820.324	2922
820.465	2982
820.605	3024
820.746	3013
820.886	2925
821.026	3081
821.167	3157
821.307	3207
821.447	3275
821.588	3222
821.728	3188
821.868	3207
822.008	3085
822.149	3199
822.289	3195
822.429	3085
822.569	3051
822.709	3180
822.849	3032
822.99	3089
823.13	3154
823.27	3192
823.41	3112
823.55	3150
823.69	3119
823.83	3146
823.97	3077
824.11	2971
824.25	2963
824.389	3051
824.529	3146
824.669	3077
824.809	3176
824.949	3233
825.089	3188
825.228	3138
825.368	3024
825.508	2971
825.648	3009
825.787	3005
825.927	2952
826.067	2963
826.206	2948
826.346	3001
826.485	3066
826.625	3093
826.765	3233
826.904	3180
827.044	2979
827.183	2906
827.323	2853
827.462	2975
827.601	2918
827.741	2952
827.88	2944
828.02	2838
828.159	2963
828.298	3032
828.437	3116
828.577	3032
828.716	3226
828.855	3097
828.994	2925
829.134	2880
829.273	2929
829.412	2845
829.551	2842
829.69	2887
829.829	2982
829.968	3112
830.107	3032
830.246	3024
830.385	2883
830.524	2880
830.663	2823
830.802	2754
830.941	2636
831.08	2598
831.219	2754
831.357	2792
831.496	2910
831.635	2716
831.774	2655
831.913	2667
832.051	2526
832.19	2587
832.329	2701
832.467	2552
832.606	2480
832.744	2533
832.883	2583
833.022	2621
833.16	2636
833.299	2705
833.437	2678
833.576	2705
833.714	2724
833.852	2724
833.991	2766
834.129	2857
834.267	2800
834.406	2800
834.544	2864
834.682	2887
834.821	2887
834.959	3024
835.097	2918
835.235	3058
835.373	3001
835.511	3017
835.65	2941
835.788	2956
835.926	2792
836.064	2762
836.202	2830
836.34	3100
836.478	3157
836.615	3055
836.753	3123
836.891	3188
837.029	3176
837.167	3055
837.305	3055
837.443	3043
837.58	2933
837.718	3135
837.856	3051
837.993	3039
838.131	3119
838.269	3108
838.406	3123
838.544	3066
838.681	2952
838.819	2910
838.956	2826
839.094	2849
839.231	2861
839.369	3024
839.506	3382
839.643	3154
839.781	3028
839.918	2963
840.055	3024
840.193	3013
840.33	3058
840.467	3066
840.604	3108
840.742	3397
840.879	3085
841.016	3043
841.153	3112
841.29	3310
841.427	3279
841.564	3256
841.701	3291
841.838	3207
841.975	3184
842.112	3233
842.249	3089
842.385	3020
842.522	3260
842.659	3062
842.796	3055
842.933	3093
843.069	3097
843.206	3017
843.343	3157
843.479	3077
843.616	3169
843.752	2883
843.889	2849
844.025	3043
844.162	2880
844.298	3097
844.435	2967
844.571	2880
844.708	3043
844.844	3192
844.98	3237
845.117	3199
845.253	3024
845.389	2990
845.525	3085
845.661	3108
845.798	2998
845.934	3123
846.07	3032
846.206	3203
846.342	3348
846.478	3237
846.614	3047
846.75	3013
846.886	2998
847.022	3211
847.158	3127
847.294	3176
847.429	3260
847.565	3249
847.701	3473
847.837	3020
847.972	2990
848.108	3169
848.244	3123
848.379	2990
848.515	2910
848.65	2937
848.786	2956
848.921	2990
849.057	3089
849.192	3154
849.328	3055
849.463	3127
849.598	3024
849.734	3047
849.869	2971
850.004	2864
850.14	2967
850.275	2906
850.41	2823
850.545	2868
850.68	2876
850.815	2956
850.95	2982
851.085	3150
851.22	3074
851.355	3009
851.49	2986
851.625	3009
851.76	3001
851.895	2929
852.03	2918
852.165	3024
852.299	3123
852.434	3161
852.569	3157
852.703	3142
852.838	3287
852.973	3298
853.107	3336
853.242	3161
853.376	3081
853.511	2967
853.645	2994
853.78	3256
853.914	3154
854.048	3146
854.183	3066
854.317	3154
854.451	3283
854.585	3123
854.72	3047
854.854	3184
854.988	3070
855.122	3074
855.256	2975
855.39	3116
855.524	3211
855.658	3157
855.792	3150
855.926	3188
856.06	3192
856.194	3264
856.327	3150
856.461	3047
856.595	3081
856.729	3108
856.862	3211
856.996	3146
857.13	3188
857.263	3241
857.397	3268
857.53	3119
857.664	3154
857.797	3226
857.931	3241
858.064	3218
858.197	3199
858.331	3154
858.464	3142
858.597	3001
858.731	3089
858.864	3112
858.997	3047
859.13	3089
859.263	3154
859.396	3192
859.529	3070
859.662	3028
859.795	3028
859.928	3146
860.061	3245
860.194	3283
860.327	3123
860.46	3085
860.592	3241
860.725	3233
860.858	3287
860.99	3089
861.123	3066
861.256	3039
861.388	3097
861.521	3850
861.653	3001
861.786	2960
861.918	3005
862.05	3081
862.183	3066
862.315	3176
862.447	3154
862.58	3055
862.712	2918
862.844	2887
862.976	3024
863.108	2982
863.24	3291
863.372	2857
863.504	2944
863.636	2979
863.768	3020
863.9	2975
864.032	2922
864.164	2941
864.296	3013
864.428	3066
864.559	3081
864.691	3066
864.823	3108
864.954	3047
865.086	3028
865.217	2960
865.349	2948
865.48	2967
865.612	2971
865.743	3104
865.875	2971
866.006	2910
866.137	2982
866.269	2982
866.4	2922
866.531	2902
866.662	2864
866.793	2883
866.924	2899
867.055	2960
867.186	2941
867.317	2857
867.448	2838
867.579	2842
867.71	2815
867.841	2819
867.972	2918
868.103	2937
868.233	2925
868.364	2910
868.495	2857
868.625	3066
868.756	3157
868.886	2925
869.017	3001
869.147	3157
869.278	3138
869.408	3039
869.539	3001
869.669	3089
869.799	3058
869.929	3138
870.06	3081
870.19	3302
870.32	3291
870.45	3272
870.58	3329
870.71	3447
870.84	3424
870.97	3306
871.1	3214
871.23	3447
871.36	3435
871.489	3359
871.619	3367
871.749	3378
871.879	3424
872.008	3496
872.138	3340
872.267	3268
872.397	3108
872.526	3097
872.656	3013
872.785	3146
872.915	3226
873.044	3260
873.173	3249
873.303	3268
873.432	3249
873.561	3253
873.69	3150
873.819	3157
873.948	3226
874.077	3093
874.206	3024
874.335	3093
874.464	3199
874.593	3313
874.722	3268
874.851	3397
874.979	3344
875.108	3298
875.237	3161
875.365	3188
875.494	3135
875.623	3272
875.751	3085
875.88	3077
876.008	3203
876.136	3233
876.265	3336
876.393	3447
876.521	3386
876.65	3397
876.778	3332
876.906	3230
877.034	3176
877.162	3207
877.29	3192
877.418	3233
877.546	3249
877.674	3253
877.802	3264
877.93	3218
878.058	3135
878.185	3062
878.313	3173
878.441	3222
878.568	3062
878.696	3146
878.824	3207
878.951	3310
879.079	3409
879.206	3637
879.333	3439
879.461	3329
879.588	3363
879.715	3488
879.842	3591
879.97	3393
880.097	3173
880.224	3135
880.351	3165
880.478	3226
880.605	3176
880.732	3192
880.859	3443
880.986	3298
881.112	3306
881.239	3214
881.366	3077
881.493	3043
881.619	3024
881.746	3081
881.872	3100
881.999	3104
882.125	3176
882.252	3260
882.378	3272
882.505	3393
882.631	3294
882.757	3127
882.883	3226
883.01	3203
883.136	3154
883.262	3077
883.388	3123
883.514	3317
883.64	3340
883.766	3306
883.892	3173
884.018	3199
884.143	3378
884.269	3515
884.395	3222
884.52	3169
884.646	3176
884.772	3127
884.897	3112
885.023	3192
885.148	3351
885.274	3443
885.399	3401
885.524	3237
885.65	3272
885.775	3317
885.9	3291
886.025	3469
886.15	3351
886.275	3272
886.4	3222
886.525	3325
886.65	3279
886.775	3287
886.9	3469
887.025	3618
887.149	3409
887.274	3256
887.399	3184
887.523	3176
887.648	3173
887.773	3173
887.897	3340
888.021	3420
888.146	3291
888.27	3428
888.395	3515
888.519	3420
888.643	3420
888.767	3450
888.891	3336
889.015	3207
889.139	3283
889.263	3245
889.387	3386
889.511	3481
889.635	3435
889.759	3321
889.883	3283
890.006	3367
890.13	3435
890.254	3264
890.377	3348
890.501	3184
890.624	3192
890.748	3321
890.871	3146
890.995	3112
891.118	3039
891.241	3142
891.364	3222
891.488	3306
891.611	3157
891.734	3195
891.857	3294
891.98	3241
892.103	3336
892.226	3264
892.349	3195
892.471	3097
892.594	3245
892.717	3294
892.839	3237
892.962	3294
893.085	3336
893.207	3321
893.33	3165
893.452	3192
893.575	3325
893.697	3249
893.819	3431
893.941	3466
894.064	3488
894.186	3275
894.308	3233
894.43	3439
894.552	3534
894.674	3454
894.796	3272
894.918	3287
895.04	3275
895.161	3431
895.283	3374
895.405	3291
895.526	3374
895.648	3420
895.769	3454
895.891	3431
896.012	3488
896.134	3485
896.255	3382
896.376	3409
896.498	3340
896.619	3420
896.74	3351
896.861	3405
896.982	3644
897.103	3850
897.224	3606
897.345	3523
897.466	3435
897.587	3507
897.708	3667
897.828	3534
897.949	3401
898.07	3355
898.19	3412
898.311	3641
898.431	3443
898.552	3515
898.672	3606
898.792	3618
898.913	3564
899.033	3370
899.153	3325
899.273	3192
899.393	3272
899.513	3287
899.633	3294
899.753	3321
899.873	3291
899.993	3370
900.113	3332
900.232	3386
900.352	3382
900.472	3283
900.591	3195
900.711	3272
900.83	3268
900.95	3378
901.069	3504
901.189	3351
901.308	3169
901.427	3131
901.546	3203
901.665	3294
901.784	3329
901.904	3260
902.023	3192
902.141	2998
902.26	3020
902.379	3127
902.498	3093
902.617	3039
902.735	3180
902.854	3230
902.973	3173
903.091	3077
903.21	3081
903.328	3154
903.446	3119
903.565	3100
903.683	3188
903.801	3093
903.919	3230
904.038	3253
904.156	3161
904.274	3279
904.392	3264
904.51	3279
904.627	3325
904.745	3477
904.863	3481
904.981	3294
905.098	3173
905.216	3203
905.334	3283
905.451	3321
905.569	3321
905.686	3412
905.803	3412
905.921	3283
906.038	3443
906.155	3363
906.272	3264
906.389	3348
906.506	3230
906.623	3287
906.74	3264
906.857	3199
906.974	3249
907.091	3428
907.208	3580
907.324	3488
907.441	3336
907.557	3214
907.674	3226
907.79	3195
907.907	3268
908.023	3416
908.139	3378
908.256	3325
908.372	3382
908.488	3325
908.604	3241
908.72	3184
908.836	3291
908.952	3207
909.068	3351
909.184	3488
909.3	3401
909.415	3526
909.531	3462
909.647	3260
909.762	3268
909.878	3241
909.993	3329
910.108	3332
910.224	3340
910.339	3397
910.454	3348
910.57	3317
910.685	3256
910.8	3610
910.915	3538
911.03	3412
911.145	3241
911.259	3256
911.374	3306
911.489	3233
911.604	3211
911.718	3112
911.833	3146
911.947	3013
912.062	2979
912.176	3119
912.291	3211
912.405	3195
912.519	3382
912.633	3466
912.748	3321
912.862	3253
912.976	3157
913.09	3036
913.204	3127
913.318	3253
913.431	3336
913.545	3321
913.659	3401
913.772	3298
913.886	3218
914	3188
914.113	3351
914.226	3435
914.34	3367
914.453	3226
914.566	3435
914.68	3279
914.793	3321
914.906	3161
915.019	3066
915.132	3028
915.245	3192
915.358	3188
915.47	3218
915.583	3275
915.696	3283
915.809	3416
915.921	3435
916.034	3264
916.146	3241
916.259	3241
916.371	3382
916.483	3340
916.595	3237
916.708	3332
916.82	3317
916.932	3332
917.044	3313
917.156	3370
917.268	3272
917.38	3287
917.491	3283
917.603	3336
917.715	3454
917.826	3439
917.938	3401
918.049	3275
918.161	3389
918.272	3542
918.384	3557
918.495	3515
918.606	3340
918.717	3306
918.828	3363
918.939	3420
919.05	3298
919.161	3367
919.272	3233
919.383	3272
919.494	3526
919.604	3675
919.715	3488
919.826	3386
919.936	3401
920.047	3591
920.157	3523
920.267	3755
920.378	3610
920.488	3542
920.598	3778
920.708	3930
920.818	3861
920.928	3800
921.038	4013
921.148	3960
921.258	3713
921.368	3625
921.477	3595
921.587	3534
921.697	3450
921.806	3648
921.916	3545
922.025	3313
922.134	3313
922.244	3298
922.353	3454
922.462	3275
922.571	3237
922.68	3089
922.789	3089
922.898	3127
923.007	3036
923.116	3184
923.224	3173
923.333	3195
923.442	3089
923.55	3085
923.659	3116
923.767	3176
923.876	3066
923.984	3230
924.092	3142
924.201	3169
924.309	3203
924.417	3249
924.525	3192
924.633	3233
924.741	4196
924.849	2998
924.956	3275
925.064	3093
925.172	3020
925.279	3077
925.387	3176
925.494	3214
925.602	3317
925.709	3321
925.816	3207
925.924	3283
926.031	3382
926.138	3306
926.245	3313
926.352	3241
926.459	3435
926.566	3416
926.673	3306
926.779	3249
926.886	3222
926.993	3138
927.099	3119
927.206	3154
927.312	3108
927.419	3188
927.525	3173
927.631	3256
927.737	3150
927.843	3089
927.95	3009
928.056	3100
928.162	3142
928.267	3230
928.373	3876
928.479	3317
928.585	3055
928.69	3169
928.796	3260
928.901	3127
929.007	3058
929.112	3192
929.218	3123
929.323	3138
929.428	3142
929.533	3279
929.638	3070
929.743	3135
929.848	3230
929.953	3180
930.058	3142
930.163	3009
930.267	3020
930.372	3180
930.477	3013
930.581	3313
930.685	3165
930.79	3009
930.894	3085
930.998	3070
931.103	3283
931.207	3001
931.311	2944
931.415	2887
931.519	2800
931.623	2834
