Data from test_V78500241_1728.txt Node
Date: Fri Mar 25 16:27:10 CST 2022
User: usil
Spectrometer: V785-0024
Trigger mode: 0
Integration Time (sec): 4.000000E-1
Scans to average: 1
Nonlinearity correction enabled: false
Boxcar width: 0
Storing dark spectrum: false
XAxis mode: Wavelengths
Number of Pixels in Spectrum: 1024
>>>>>Begin Spectral Data<<<<<
801.071	2914
801.214	2933
801.356	2883
801.499	2891
801.641	2872
801.783	2887
801.926	3017
802.068	2963
802.211	2998
802.353	3017
802.496	2929
802.638	3024
802.78	2986
802.923	3112
803.065	3017
803.208	2880
803.35	2937
803.492	2899
803.635	2891
803.777	2750
803.919	2842
804.061	3157
804.204	2929
804.346	2895
804.488	2819
804.63	2986
804.773	2883
804.915	2910
805.057	3077
805.199	2963
805.341	2982
805.483	3039
805.626	2998
805.768	2982
805.91	3100
806.052	3150
806.194	3047
806.336	3230
806.478	3039
806.62	2944
806.762	2998
806.904	3074
807.046	3184
807.188	3009
807.33	2937
807.472	2998
807.614	2887
807.756	3039
807.898	2979
808.04	2922
808.182	2971
808.324	2990
808.465	2906
808.607	2910
808.749	2800
808.891	2880
809.033	3001
809.174	2990
809.316	2933
809.458	2922
809.6	2796
809.741	2785
809.883	2781
810.025	2842
810.166	2876
810.308	2895
810.45	2891
810.591	2788
810.733	2785
810.875	2872
811.016	2800
811.158	2815
811.299	2857
811.441	2998
811.582	2937
811.724	2857
811.865	2902
812.007	2944
812.148	2899
812.29	2906
812.431	2922
812.573	2971
812.714	2998
812.855	3138
812.997	3062
813.138	3123
813.279	3039
813.421	3043
813.562	2986
813.703	2933
813.845	2910
813.986	2792
814.127	2754
814.268	2823
814.41	2876
814.551	2819
814.692	2868
814.833	2880
814.974	2960
815.115	2967
815.256	2872
815.397	2815
815.539	2922
815.68	2815
815.821	2819
815.962	2937
816.103	2979
816.244	2941
816.385	2929
816.526	3005
816.666	2937
816.807	2743
816.948	2925
817.089	2967
817.23	2899
817.371	2758
817.512	2815
817.653	2876
817.793	2864
817.934	2944
818.075	2960
818.216	3020
818.356	3051
818.497	2941
818.638	2819
818.778	2876
818.919	2838
819.06	2785
819.2	2891
819.341	2842
819.481	2849
819.622	2963
819.762	3131
819.903	3036
820.043	2948
820.184	2956
820.324	2960
820.465	3020
820.605	3043
820.746	3051
820.886	2952
821.026	3135
821.167	3199
821.307	3260
821.447	3363
821.588	3275
821.728	3264
821.868	3211
822.008	3085
822.149	3180
822.289	3283
822.429	3108
822.569	3116
822.709	3237
822.849	3055
822.99	3077
823.13	3211
823.27	3211
823.41	3116
823.55	3180
823.69	3218
823.83	3188
823.97	3097
824.11	3028
824.25	3043
824.389	3112
824.529	3142
824.669	3138
824.809	3253
824.949	3283
825.089	3256
825.228	3214
825.368	3070
825.508	2982
825.648	2998
825.787	3047
825.927	3039
826.067	3009
826.206	2948
826.346	3070
826.485	3127
826.625	3157
826.765	3310
826.904	3256
827.044	3017
827.183	2960
827.323	2895
827.462	3005
827.601	2922
827.741	2952
827.88	2960
828.02	2910
828.159	3005
828.298	3028
828.437	3142
828.577	3062
828.716	3287
828.855	3123
828.994	2906
829.134	2914
829.273	2952
829.412	2868
829.551	2906
829.69	2895
829.829	2982
829.968	3192
830.107	3066
830.246	3077
830.385	2933
830.524	2899
830.663	2864
830.802	2743
830.941	2636
831.08	2682
831.219	2777
831.357	2762
831.496	2960
831.635	2754
831.774	2678
831.913	2678
832.051	2579
832.19	2583
832.329	2701
832.467	2571
832.606	2518
832.744	2617
832.883	2598
833.022	2625
833.16	2678
833.299	2697
833.437	2712
833.576	2705
833.714	2773
833.852	2735
833.991	2746
834.129	2857
834.267	2853
834.406	2834
834.544	2883
834.682	2868
834.821	2849
834.959	3104
835.097	2906
835.235	3116
835.373	2998
835.511	3013
835.65	2986
835.788	2941
835.926	2880
836.064	2815
836.202	2857
836.34	3112
836.478	3157
836.615	3077
836.753	3192
836.891	3222
837.029	3233
837.167	3135
837.305	3108
837.443	3081
837.58	2979
837.718	3176
837.856	3097
837.993	3112
838.131	3135
838.269	3146
838.406	3116
838.544	3104
838.681	2956
838.819	2971
838.956	2842
839.094	2826
839.231	2971
839.369	3074
839.506	3370
839.643	3207
839.781	3043
839.918	2956
840.055	3093
840.193	3055
840.33	3051
840.467	3108
840.604	3188
840.742	3420
840.879	3066
841.016	3062
841.153	3157
841.29	3329
841.427	3294
841.564	3268
841.701	3329
841.838	3237
841.975	3199
842.112	3222
842.249	3108
842.385	3020
842.522	3275
842.659	3135
842.796	3104
842.933	3093
843.069	3047
843.206	3028
843.343	3184
843.479	3142
843.616	3142
843.752	2922
843.889	2864
844.025	3089
844.162	2899
844.298	3070
844.435	2979
844.571	2906
844.708	3097
844.844	3195
844.98	3237
845.117	3218
845.253	3036
845.389	3009
845.525	3077
845.661	3116
845.798	3055
845.934	3161
846.07	3070
846.206	3230
846.342	3321
846.478	3256
846.614	3135
846.75	3070
846.886	3024
847.022	3279
847.158	3131
847.294	3211
847.429	3249
847.565	3203
847.701	3488
847.837	3058
847.972	3024
848.108	3157
848.244	3180
848.379	2990
848.515	2941
848.65	2952
848.786	2982
848.921	3070
849.057	3138
849.192	3150
849.328	3093
849.463	3119
849.598	3100
849.734	3066
849.869	2998
850.004	2944
850.14	3001
850.275	2910
850.41	2883
850.545	2944
850.68	2963
850.815	2933
850.95	2967
851.085	3199
851.22	3112
851.355	3055
851.49	2948
851.625	3017
851.76	3047
851.895	2952
852.03	2887
852.165	3009
852.299	3146
852.434	3203
852.569	3146
852.703	3214
852.838	3268
852.973	3386
853.107	3348
853.242	3195
853.376	3131
853.511	2986
853.645	3055
853.78	3249
853.914	3146
854.048	3150
854.183	3104
854.317	3131
854.451	3344
854.585	3169
854.72	3116
854.854	3211
854.988	3074
855.122	3146
855.256	2975
855.39	3123
855.524	3260
855.658	3192
855.792	3135
855.926	3173
856.06	3203
856.194	3275
856.327	3157
856.461	3112
856.595	3112
856.729	3112
856.862	3233
856.996	3184
857.13	3192
857.263	3260
857.397	3313
857.53	3169
857.664	3214
857.797	3253
857.931	3279
858.064	3157
858.197	3173
858.331	3157
858.464	3108
858.597	3055
858.731	3154
858.864	3157
858.997	3066
859.13	3169
859.263	3169
859.396	3199
859.529	3097
859.662	3119
859.795	3051
859.928	3142
860.061	3302
860.194	3268
860.327	3138
860.46	3116
860.592	3218
860.725	3245
860.858	3233
860.99	3116
861.123	3070
861.256	3093
861.388	3176
861.521	3975
861.653	3036
861.786	3013
861.918	3032
862.05	3081
862.183	3131
862.315	3127
862.447	3195
862.58	3119
862.712	2979
862.844	2910
862.976	3043
863.108	3001
863.24	3336
863.372	2914
863.504	2990
863.636	2979
863.768	3024
863.9	2963
864.032	2914
864.164	3005
864.296	3009
864.428	3074
864.559	3085
864.691	3077
864.823	3085
864.954	3036
865.086	3058
865.217	3043
865.349	2956
865.48	2990
865.612	3028
865.743	3138
865.875	2982
866.006	2937
866.137	3001
866.269	2963
866.4	2937
866.531	2941
866.662	2910
866.793	2914
866.924	2872
867.055	2952
867.186	2937
867.317	2887
867.448	2830
867.579	2887
867.71	2868
867.841	2853
867.972	2918
868.103	2902
868.233	2906
868.364	2872
868.495	2918
868.625	3081
868.756	3184
868.886	2990
869.017	3039
869.147	3180
869.278	3214
869.408	3047
869.539	2990
869.669	3070
869.799	3058
869.929	3119
870.06	3093
870.19	3351
870.32	3317
870.45	3355
870.58	3344
870.71	3412
870.84	3473
870.97	3302
871.1	3256
871.23	3545
871.36	3450
871.489	3363
871.619	3435
871.749	3428
871.879	3435
872.008	3507
872.138	3363
872.267	3260
872.397	3173
872.526	3081
872.656	2990
872.785	3142
872.915	3237
873.044	3336
873.173	3222
873.303	3233
873.432	3249
873.561	3264
873.69	3173
873.819	3135
873.948	3233
874.077	3123
874.206	3020
874.335	3081
874.464	3218
874.593	3363
874.722	3260
874.851	3412
874.979	3348
875.108	3302
875.237	3218
875.365	3176
875.494	3131
875.623	3253
875.751	3039
875.88	3123
876.008	3203
876.136	3245
876.265	3397
876.393	3500
876.521	3412
876.65	3393
876.778	3321
876.906	3203
877.034	3241
877.162	3253
877.29	3195
877.418	3260
877.546	3256
877.674	3237
877.802	3237
877.93	3241
878.058	3150
878.185	3070
878.313	3203
878.441	3184
878.568	3036
878.696	3146
878.824	3226
878.951	3310
879.079	3412
879.206	3625
879.333	3443
879.461	3317
879.588	3367
879.715	3466
879.842	3603
879.97	3355
880.097	3154
880.224	3116
880.351	3199
880.478	3222
880.605	3237
880.732	3192
880.859	3511
880.986	3310
881.112	3302
881.239	3199
881.366	3097
881.493	3032
881.619	3039
881.746	3104
881.872	3085
881.999	3116
882.125	3188
882.252	3237
882.378	3302
882.505	3393
882.631	3279
882.757	3142
882.883	3218
883.01	3176
883.136	3165
883.262	3127
883.388	3100
883.514	3340
883.64	3386
883.766	3321
883.892	3195
884.018	3230
884.143	3382
884.269	3564
884.395	3222
884.52	3165
884.646	3188
884.772	3123
884.897	3127
885.023	3188
885.148	3329
885.274	3412
885.399	3370
885.524	3260
885.65	3294
885.775	3344
885.9	3294
886.025	3416
886.15	3401
886.275	3275
886.4	3264
886.525	3332
886.65	3291
886.775	3260
886.9	3462
887.025	3614
887.149	3450
887.274	3249
887.399	3184
887.523	3173
887.648	3173
887.773	3180
887.897	3359
888.021	3389
888.146	3279
888.27	3420
888.395	3515
888.519	3439
888.643	3401
888.767	3481
888.891	3313
889.015	3245
889.139	3310
889.263	3253
889.387	3454
889.511	3500
889.635	3458
889.759	3272
889.883	3310
890.006	3389
890.13	3435
890.254	3287
890.377	3332
890.501	3218
890.624	3127
890.748	3291
890.871	3138
890.995	3100
891.118	3058
891.241	3199
891.364	3226
891.488	3329
891.611	3203
891.734	3207
891.857	3287
891.98	3264
892.103	3317
892.226	3249
892.349	3233
892.471	3097
892.594	3226
892.717	3332
892.839	3310
892.962	3275
893.085	3344
893.207	3310
893.33	3173
893.452	3218
893.575	3351
893.697	3245
893.819	3428
893.941	3485
894.064	3416
894.186	3256
894.308	3237
894.43	3454
894.552	3542
894.674	3485
894.796	3336
894.918	3283
895.04	3272
895.161	3428
895.283	3386
895.405	3279
895.526	3405
895.648	3420
895.769	3401
895.891	3431
896.012	3431
896.134	3458
896.255	3389
896.376	3393
896.498	3351
896.619	3412
896.74	3409
896.861	3389
896.982	3728
897.103	3827
897.224	3580
897.345	3504
897.466	3393
897.587	3466
897.708	3595
897.828	3587
897.949	3428
898.07	3298
898.19	3412
898.311	3595
898.431	3439
898.552	3481
898.672	3614
898.792	3553
898.913	3519
899.033	3428
899.153	3264
899.273	3230
899.393	3302
899.513	3279
899.633	3363
899.753	3302
899.873	3313
899.993	3329
900.113	3329
900.232	3378
900.352	3351
900.472	3317
900.591	3184
900.711	3287
900.83	3287
900.95	3386
901.069	3523
901.189	3317
901.308	3154
901.427	3138
901.546	3176
901.665	3302
901.784	3294
901.904	3203
902.023	3135
902.141	3013
902.26	3009
902.379	3165
902.498	3058
902.617	3047
902.735	3214
902.854	3199
902.973	3161
903.091	3036
903.21	3043
903.328	3104
903.446	3112
903.565	3108
903.683	3184
903.801	3142
903.919	3241
904.038	3256
904.156	3165
904.274	3260
904.392	3222
904.51	3310
904.627	3313
904.745	3424
904.863	3523
904.981	3230
905.098	3195
905.216	3241
905.334	3310
905.451	3279
905.569	3313
905.686	3428
905.803	3428
905.921	3291
906.038	3424
906.155	3386
906.272	3249
906.389	3329
906.506	3245
906.623	3264
906.74	3302
906.857	3195
906.974	3237
907.091	3431
907.208	3576
907.324	3405
907.441	3359
907.557	3226
907.674	3241
907.79	3199
907.907	3230
908.023	3416
908.139	3389
908.256	3313
908.372	3405
908.488	3329
908.604	3253
908.72	3226
908.836	3283
908.952	3306
909.068	3329
909.184	3477
909.3	3348
909.415	3481
909.531	3492
909.647	3245
909.762	3264
909.878	3283
909.993	3348
910.108	3332
910.224	3348
910.339	3393
910.454	3351
910.57	3306
910.685	3279
910.8	3587
910.915	3526
911.03	3473
911.145	3233
911.259	3249
911.374	3310
911.489	3226
911.604	3253
911.718	3135
911.833	3157
911.947	3043
912.062	2971
912.176	3116
912.291	3199
912.405	3173
912.519	3424
912.633	3450
912.748	3313
912.862	3298
912.976	3157
913.09	3058
913.204	3131
913.318	3207
913.431	3291
913.545	3317
913.659	3367
913.772	3332
913.886	3195
914	3184
914.113	3397
914.226	3420
914.34	3363
914.453	3211
914.566	3424
914.68	3298
914.793	3332
914.906	3146
915.019	3112
915.132	3062
915.245	3199
915.358	3222
915.47	3188
915.583	3226
915.696	3302
915.809	3382
915.921	3386
916.034	3256
916.146	3237
916.259	3241
916.371	3363
916.483	3397
916.595	3256
916.708	3306
916.82	3367
916.932	3344
917.044	3317
917.156	3348
917.268	3264
917.38	3302
917.491	3294
917.603	3363
917.715	3447
917.826	3469
917.938	3370
918.049	3291
918.161	3386
918.272	3572
918.384	3526
918.495	3481
918.606	3351
918.717	3253
918.828	3378
918.939	3393
919.05	3291
919.161	3386
919.272	3184
919.383	3260
919.494	3473
919.604	3648
919.715	3454
919.826	3382
919.936	3443
920.047	3545
920.157	3523
920.267	3774
920.378	3644
920.488	3534
920.598	3766
920.708	3941
920.818	3865
920.928	3873
921.038	4040
921.148	4013
921.258	3694
921.368	3663
921.477	3614
921.587	3538
921.697	3450
921.806	3603
921.916	3549
922.025	3332
922.134	3389
922.244	3325
922.353	3412
922.462	3321
922.571	3222
922.68	3131
922.789	3104
922.898	3123
923.007	3135
923.116	3203
923.224	3146
923.333	3180
923.442	3116
923.55	3119
923.659	3135
923.767	3203
923.876	3089
923.984	3237
924.092	3157
924.201	3203
924.309	3195
924.417	3283
924.525	3188
924.633	3245
924.741	4071
924.849	3070
924.956	3237
925.064	3093
925.172	3009
925.279	3085
925.387	3188
925.494	3195
925.602	3378
925.709	3351
925.816	3154
925.924	3298
926.031	3382
926.138	3332
926.245	3378
926.352	3218
926.459	3386
926.566	3454
926.673	3291
926.779	3218
926.886	3260
926.993	3135
927.099	3131
927.206	3100
927.312	3127
927.419	3245
927.525	3195
927.631	3260
927.737	3173
927.843	3108
927.95	3001
928.056	3097
928.162	3142
928.267	3249
928.373	3876
928.479	3294
928.585	3077
928.69	3195
928.796	3260
928.901	3188
929.007	3070
929.112	3230
929.218	3142
929.323	3146
929.428	3180
929.533	3294
929.638	3104
929.743	3199
929.848	3218
929.953	3188
930.058	3142
930.163	2975
930.267	3013
930.372	3218
930.477	3051
930.581	3310
930.685	3188
930.79	3036
930.894	3135
930.998	3097
931.103	3287
931.207	2948
931.311	2941
931.415	2925
931.519	2785
931.623	2792
