Data from test_V78500241_1697.txt Node
Date: Fri Mar 25 16:26:57 CST 2022
User: usil
Spectrometer: V785-0024
Trigger mode: 0
Integration Time (sec): 4.000000E-1
Scans to average: 1
Nonlinearity correction enabled: false
Boxcar width: 0
Storing dark spectrum: false
XAxis mode: Wavelengths
Number of Pixels in Spectrum: 1024
>>>>>Begin Spectral Data<<<<<
801.071	2883
801.214	2944
801.356	2895
801.499	2906
801.641	2864
801.783	2944
801.926	3009
802.068	2986
802.211	3001
802.353	3051
802.496	2998
802.638	3009
802.78	3036
802.923	3032
803.065	2982
803.208	2842
803.35	2918
803.492	2914
803.635	2929
803.777	2766
803.919	2868
804.061	3203
804.204	2906
804.346	2937
804.488	2815
804.63	3032
804.773	2861
804.915	2925
805.057	3085
805.199	2956
805.341	2986
805.483	3024
805.626	2982
805.768	2967
805.91	3062
806.052	3119
806.194	3028
806.336	3230
806.478	3028
806.62	2929
806.762	2979
806.904	3055
807.046	3142
807.188	2952
807.33	2925
807.472	2963
807.614	2906
807.756	3024
807.898	2910
808.04	2922
808.182	2963
808.324	2944
808.465	2876
808.607	2887
808.749	2849
808.891	2804
809.033	3009
809.174	2998
809.316	2899
809.458	2880
809.6	2807
809.741	2773
809.883	2758
810.025	2826
810.166	2823
810.308	2781
810.45	2864
810.591	2788
810.733	2762
810.875	2838
811.016	2766
811.158	2746
811.299	2804
811.441	2948
811.582	2899
811.724	2845
811.865	2857
812.007	2914
812.148	2902
812.29	2807
812.431	2891
812.573	2986
812.714	2967
812.855	3047
812.997	3036
813.138	3116
813.279	2990
813.421	2979
813.562	2933
813.703	2883
813.845	2922
813.986	2781
814.127	2724
814.268	2823
814.41	2834
814.551	2826
814.692	2849
814.833	2807
814.974	2906
815.115	2944
815.256	2830
815.397	2815
815.539	2861
815.68	2762
815.821	2800
815.962	2918
816.103	2902
816.244	2887
816.385	2864
816.526	2956
816.666	2918
816.807	2762
816.948	2899
817.089	2937
817.23	2845
817.371	2777
817.512	2773
817.653	2834
817.793	2845
817.934	2914
818.075	2948
818.216	2990
818.356	3001
818.497	2861
818.638	2788
818.778	2807
818.919	2796
819.06	2766
819.2	2872
819.341	2785
819.481	2792
819.622	2906
819.762	3070
819.903	3047
820.043	2910
820.184	2902
820.324	2868
820.465	2986
820.605	3017
820.746	3020
820.886	2922
821.026	3112
821.167	3127
821.307	3241
821.447	3233
821.588	3218
821.728	3226
821.868	3176
822.008	3070
822.149	3203
822.289	3211
822.429	3066
822.569	3047
822.709	3199
822.849	3024
822.99	3077
823.13	3119
823.27	3169
823.41	3135
823.55	3142
823.69	3169
823.83	3192
823.97	3104
824.11	3032
824.25	3020
824.389	3093
824.529	3116
824.669	3081
824.809	3188
824.949	3253
825.089	3237
825.228	3119
825.368	3017
825.508	2933
825.648	2982
825.787	2990
825.927	3028
826.067	2975
826.206	2925
826.346	3013
826.485	3119
826.625	3104
826.765	3241
826.904	3207
827.044	2971
827.183	2956
827.323	2857
827.462	2975
827.601	2910
827.741	2933
827.88	2960
828.02	2834
828.159	2960
828.298	3070
828.437	3123
828.577	3032
828.716	3222
828.855	3036
828.994	2880
829.134	2902
829.273	2910
829.412	2883
829.551	2857
829.69	2872
829.829	2986
829.968	3127
830.107	3001
830.246	3013
830.385	2891
830.524	2857
830.663	2823
830.802	2697
830.941	2648
831.08	2670
831.219	2758
831.357	2766
831.496	2933
831.635	2724
831.774	2651
831.913	2648
832.051	2549
832.19	2579
832.329	2674
832.467	2564
832.606	2473
832.744	2571
832.883	2587
833.022	2594
833.16	2648
833.299	2712
833.437	2701
833.576	2735
833.714	2762
833.852	2731
833.991	2750
834.129	2811
834.267	2819
834.406	2758
834.544	2868
834.682	2872
834.821	2861
834.959	3039
835.097	2853
835.235	3043
835.373	2952
835.511	3024
835.65	2963
835.788	2944
835.926	2849
836.064	2826
836.202	2842
836.34	3066
836.478	3154
836.615	3039
836.753	3112
836.891	3173
837.029	3154
837.167	3104
837.305	3047
837.443	3051
837.58	2963
837.718	3112
837.856	3020
837.993	3024
838.131	3085
838.269	3077
838.406	3100
838.544	3036
838.681	2937
838.819	2918
838.956	2823
839.094	2834
839.231	2941
839.369	2994
839.506	3363
839.643	3207
839.781	2986
839.918	2990
840.055	3024
840.193	3024
840.33	3051
840.467	3066
840.604	3154
840.742	3409
840.879	3036
841.016	3077
841.153	3104
841.29	3355
841.427	3249
841.564	3230
841.701	3313
841.838	3218
841.975	3176
842.112	3211
842.249	3055
842.385	2994
842.522	3275
842.659	3081
842.796	3013
842.933	3097
843.069	3055
843.206	3009
843.343	3135
843.479	3104
843.616	3116
843.752	2864
843.889	2861
844.025	3062
844.162	2895
844.298	3119
844.435	2925
844.571	2891
844.708	3081
844.844	3146
844.98	3237
845.117	3173
845.253	3066
845.389	3005
845.525	3100
845.661	3070
845.798	3013
845.934	3100
846.07	3066
846.206	3184
846.342	3291
846.478	3211
846.614	3077
846.75	3047
846.886	3005
847.022	3169
847.158	3097
847.294	3176
847.429	3226
847.565	3165
847.701	3492
847.837	3009
847.972	3024
848.108	3161
848.244	3108
848.379	2990
848.515	2952
848.65	2899
848.786	2956
848.921	2979
849.057	3127
849.192	3157
849.328	3070
849.463	3097
849.598	3081
849.734	3001
849.869	3001
850.004	2883
850.14	2994
850.275	2883
850.41	2823
850.545	2880
850.68	2914
850.815	2975
850.95	2963
851.085	3203
851.22	3081
851.355	3005
851.49	3001
851.625	2994
851.76	3020
851.895	2937
852.03	2891
852.165	3013
852.299	3112
852.434	3157
852.569	3100
852.703	3157
852.838	3249
852.973	3317
853.107	3317
853.242	3154
853.376	3051
853.511	2967
853.645	3028
853.78	3214
853.914	3146
854.048	3138
854.183	3085
854.317	3116
854.451	3294
854.585	3142
854.72	3100
854.854	3184
854.988	3039
855.122	3131
855.256	2963
855.39	3100
855.524	3203
855.658	3195
855.792	3123
855.926	3226
856.06	3184
856.194	3253
856.327	3157
856.461	3055
856.595	3058
856.729	3104
856.862	3245
856.996	3112
857.13	3161
857.263	3233
857.397	3218
857.53	3135
857.664	3192
857.797	3211
857.931	3218
858.064	3146
858.197	3230
858.331	3131
858.464	3093
858.597	3024
858.731	3135
858.864	3127
858.997	3089
859.13	3131
859.263	3165
859.396	3199
859.529	3028
859.662	3077
859.795	3047
859.928	3119
860.061	3302
860.194	3272
860.327	3131
860.46	3127
860.592	3245
860.725	3222
860.858	3237
860.99	3116
861.123	3032
861.256	3043
861.388	3131
861.521	3823
861.653	3032
861.786	2990
861.918	2982
862.05	3058
862.183	3089
862.315	3161
862.447	3222
862.58	3108
862.712	2933
862.844	2883
862.976	2990
863.108	2998
863.24	3435
863.372	2864
863.504	2986
863.636	2963
863.768	3020
863.9	2937
864.032	2895
864.164	2941
864.296	3020
864.428	3062
864.559	3089
864.691	3077
864.823	3020
864.954	2986
865.086	3051
865.217	2971
865.349	2975
865.48	2967
865.612	2986
865.743	3135
865.875	2990
866.006	2910
866.137	2960
866.269	2925
866.4	2948
866.531	2918
866.662	2899
866.793	2880
866.924	2887
867.055	2944
867.186	2906
867.317	2883
867.448	2807
867.579	2842
867.71	2853
867.841	2815
867.972	2937
868.103	2883
868.233	2899
868.364	2861
868.495	2876
868.625	3104
868.756	3188
868.886	2990
869.017	3032
869.147	3123
869.278	3161
869.408	3020
869.539	3013
869.669	3085
869.799	3028
869.929	3138
870.06	3112
870.19	3329
870.32	3283
870.45	3275
870.58	3340
870.71	3431
870.84	3447
870.97	3321
871.1	3241
871.23	3466
871.36	3439
871.489	3348
871.619	3401
871.749	3370
871.879	3447
872.008	3462
872.138	3332
872.267	3264
872.397	3123
872.526	3108
872.656	3024
872.785	3070
872.915	3294
873.044	3313
873.173	3226
873.303	3245
873.432	3233
873.561	3226
873.69	3165
873.819	3173
873.948	3207
874.077	3100
874.206	3017
874.335	3093
874.464	3180
874.593	3329
874.722	3222
874.851	3389
874.979	3340
875.108	3329
875.237	3226
875.365	3154
875.494	3169
875.623	3222
875.751	3017
875.88	3085
876.008	3188
876.136	3230
876.265	3321
876.393	3504
876.521	3378
876.65	3420
876.778	3310
876.906	3237
877.034	3237
877.162	3222
877.29	3180
877.418	3222
877.546	3275
877.674	3233
877.802	3218
877.93	3199
878.058	3150
878.185	3062
878.313	3169
878.441	3222
878.568	3070
878.696	3142
878.824	3230
878.951	3275
879.079	3389
879.206	3633
879.333	3428
879.461	3359
879.588	3378
879.715	3481
879.842	3580
879.97	3378
880.097	3211
880.224	3127
880.351	3203
880.478	3233
880.605	3222
880.732	3192
880.859	3515
880.986	3313
881.112	3355
881.239	3184
881.366	3104
881.493	3017
881.619	3009
881.746	3070
881.872	3039
881.999	3085
882.125	3093
882.252	3211
882.378	3294
882.505	3431
882.631	3275
882.757	3116
882.883	3256
883.01	3245
883.136	3119
883.262	3112
883.388	3097
883.514	3279
883.64	3340
883.766	3291
883.892	3211
884.018	3214
884.143	3424
884.269	3526
884.395	3207
884.52	3135
884.646	3176
884.772	3135
884.897	3123
885.023	3203
885.148	3302
885.274	3374
885.399	3332
885.524	3302
885.65	3272
885.775	3275
885.9	3256
886.025	3428
886.15	3363
886.275	3268
886.4	3233
886.525	3275
886.65	3268
886.775	3287
886.9	3504
887.025	3584
887.149	3363
887.274	3279
887.399	3173
887.523	3180
887.648	3207
887.773	3161
887.897	3397
888.021	3370
888.146	3272
888.27	3416
888.395	3519
888.519	3431
888.643	3435
888.767	3462
888.891	3302
889.015	3218
889.139	3275
889.263	3245
889.387	3416
889.511	3557
889.635	3416
889.759	3306
889.883	3275
890.006	3367
890.13	3496
890.254	3268
890.377	3340
890.501	3173
890.624	3176
890.748	3275
890.871	3169
890.995	3150
891.118	3051
891.241	3226
891.364	3218
891.488	3317
891.611	3154
891.734	3241
891.857	3279
891.98	3211
892.103	3336
892.226	3287
892.349	3199
892.471	3135
892.594	3218
892.717	3230
892.839	3245
892.962	3279
893.085	3329
893.207	3264
893.33	3146
893.452	3233
893.575	3378
893.697	3203
893.819	3462
893.941	3515
894.064	3447
894.186	3306
894.308	3298
894.43	3409
894.552	3530
894.674	3450
894.796	3306
894.918	3306
895.04	3302
895.161	3450
895.283	3378
895.405	3336
895.526	3355
895.648	3397
895.769	3389
895.891	3454
896.012	3469
896.134	3473
896.255	3401
896.376	3348
896.498	3317
896.619	3420
896.74	3374
896.861	3386
896.982	3682
897.103	3857
897.224	3618
897.345	3511
897.466	3458
897.587	3458
897.708	3603
897.828	3500
897.949	3439
898.07	3313
898.19	3401
898.311	3614
898.431	3447
898.552	3526
898.672	3622
898.792	3576
898.913	3488
899.033	3439
899.153	3325
899.273	3222
899.393	3249
899.513	3332
899.633	3325
899.753	3344
899.873	3310
899.993	3382
900.113	3332
900.232	3374
900.352	3317
900.472	3298
900.591	3203
900.711	3332
900.83	3237
900.95	3389
901.069	3481
901.189	3359
901.308	3176
901.427	3146
901.546	3192
901.665	3275
901.784	3348
901.904	3230
902.023	3161
902.141	3013
902.26	2982
902.379	3142
902.498	3066
902.617	3009
902.735	3203
902.854	3249
902.973	3211
903.091	3055
903.21	3032
903.328	3161
903.446	3116
903.565	3093
903.683	3199
903.801	3157
903.919	3230
904.038	3283
904.156	3135
904.274	3279
904.392	3226
904.51	3287
904.627	3332
904.745	3435
904.863	3530
904.981	3233
905.098	3165
905.216	3268
905.334	3275
905.451	3310
905.569	3336
905.686	3405
905.803	3462
905.921	3291
906.038	3409
906.155	3359
906.272	3291
906.389	3321
906.506	3241
906.623	3275
906.74	3275
906.857	3218
906.974	3233
907.091	3447
907.208	3534
907.324	3515
907.441	3374
907.557	3230
907.674	3245
907.79	3226
907.907	3241
908.023	3355
908.139	3367
908.256	3321
908.372	3336
908.488	3336
908.604	3226
908.72	3245
908.836	3264
908.952	3275
909.068	3287
909.184	3477
909.3	3367
909.415	3488
909.531	3469
909.647	3241
909.762	3222
909.878	3272
909.993	3355
910.108	3344
910.224	3340
910.339	3435
910.454	3340
910.57	3298
910.685	3207
910.8	3580
910.915	3534
911.03	3424
911.145	3245
911.259	3279
911.374	3294
911.489	3214
911.604	3207
911.718	3123
911.833	3138
911.947	3036
912.062	2975
912.176	3154
912.291	3226
912.405	3222
912.519	3443
912.633	3412
912.748	3348
912.862	3253
912.976	3161
913.09	3074
913.204	3123
913.318	3222
913.431	3340
913.545	3336
913.659	3420
913.772	3332
913.886	3218
914	3226
914.113	3351
914.226	3409
914.34	3405
914.453	3214
914.566	3428
914.68	3302
914.793	3332
914.906	3157
915.019	3119
915.132	3081
915.245	3176
915.358	3203
915.47	3180
915.583	3264
915.696	3310
915.809	3443
915.921	3382
916.034	3272
916.146	3237
916.259	3218
916.371	3397
916.483	3397
916.595	3249
916.708	3298
916.82	3348
916.932	3302
917.044	3329
917.156	3351
917.268	3253
917.38	3291
917.491	3321
917.603	3355
917.715	3435
917.826	3450
917.938	3435
918.049	3241
918.161	3439
918.272	3584
918.384	3576
918.495	3473
918.606	3332
918.717	3291
918.828	3374
918.939	3386
919.05	3253
919.161	3363
919.272	3161
919.383	3268
919.494	3507
919.604	3644
919.715	3466
919.826	3409
919.936	3443
920.047	3599
920.157	3519
920.267	3808
920.378	3564
920.488	3576
920.598	3724
920.708	3983
920.818	3808
920.928	3846
921.038	4051
921.148	3987
921.258	3709
921.368	3644
921.477	3633
921.587	3507
921.697	3488
921.806	3637
921.916	3515
922.025	3344
922.134	3374
922.244	3310
922.353	3409
922.462	3245
922.571	3226
922.68	3146
922.789	3051
922.898	3116
923.007	3051
923.116	3184
923.224	3150
923.333	3173
923.442	3112
923.55	3077
923.659	3119
923.767	3218
923.876	3104
923.984	3241
924.092	3119
924.201	3173
924.309	3214
924.417	3233
924.525	3192
924.633	3249
924.741	4036
924.849	3039
924.956	3260
925.064	3062
925.172	3047
925.279	3081
925.387	3199
925.494	3180
925.602	3363
925.709	3351
925.816	3199
925.924	3283
926.031	3389
926.138	3329
926.245	3332
926.352	3226
926.459	3416
926.566	3488
926.673	3321
926.779	3245
926.886	3233
926.993	3146
927.099	3112
927.206	3108
927.312	3085
927.419	3195
927.525	3199
927.631	3253
927.737	3173
927.843	3108
927.95	3024
928.056	3112
928.162	3173
928.267	3222
928.373	3907
928.479	3351
928.585	3028
928.69	3188
928.796	3287
928.901	3135
929.007	3032
929.112	3256
929.218	3176
929.323	3097
929.428	3165
929.533	3321
929.638	3093
929.743	3188
929.848	3268
929.953	3195
930.058	3176
930.163	3032
930.267	3043
930.372	3211
930.477	3032
930.581	3317
930.685	3165
930.79	3047
930.894	3123
930.998	3074
931.103	3233
931.207	2952
931.311	2933
931.415	2906
931.519	2746
931.623	2807
