Data from test_V78500241_339.txt Node
Date: Fri Mar 25 16:17:33 CST 2022
User: usil
Spectrometer: V785-0024
Trigger mode: 0
Integration Time (sec): 4.000000E-1
Scans to average: 1
Nonlinearity correction enabled: false
Boxcar width: 0
Storing dark spectrum: false
XAxis mode: Wavelengths
Number of Pixels in Spectrum: 1024
>>>>>Begin Spectral Data<<<<<
801.071	2906
801.214	2979
801.356	2853
801.499	2925
801.641	2864
801.783	2944
801.926	3047
802.068	2960
802.211	2986
802.353	3013
802.496	2982
802.638	2982
802.78	3043
802.923	3055
803.065	3039
803.208	2910
803.35	2895
803.492	2941
803.635	2914
803.777	2807
803.919	2861
804.061	3188
804.204	2937
804.346	2925
804.488	2861
804.63	2994
804.773	2861
804.915	2910
805.057	3058
805.199	2922
805.341	2956
805.483	3036
805.626	3001
805.768	2948
805.91	3055
806.052	3138
806.194	3043
806.336	3203
806.478	3017
806.62	2929
806.762	2990
806.904	3043
807.046	3169
807.188	2963
807.33	2918
807.472	2975
807.614	2895
807.756	2956
807.898	2918
808.04	2899
808.182	2960
808.324	2967
808.465	2891
808.607	2883
808.749	2766
808.891	2868
809.033	2971
809.174	2979
809.316	2876
809.458	2887
809.6	2773
809.741	2743
809.883	2777
810.025	2842
810.166	2857
810.308	2823
810.45	2853
810.591	2743
810.733	2739
810.875	2823
811.016	2788
811.158	2769
811.299	2796
811.441	2944
811.582	2887
811.724	2807
811.865	2788
812.007	2918
812.148	2891
812.29	2842
812.431	2887
812.573	2929
812.714	2967
812.855	3055
812.997	3013
813.138	3104
813.279	3043
813.421	2960
813.562	2937
813.703	2872
813.845	2899
813.986	2743
814.127	2739
814.268	2834
814.41	2823
814.551	2807
814.692	2868
814.833	2838
814.974	2918
815.115	2971
815.256	2883
815.397	2823
815.539	2872
815.68	2800
815.821	2769
815.962	2982
816.103	2891
816.244	2857
816.385	2899
816.526	2967
816.666	2906
816.807	2781
816.948	2872
817.089	2914
817.23	2864
817.371	2762
817.512	2796
817.653	2880
817.793	2853
817.934	2899
818.075	2967
818.216	2971
818.356	2967
818.497	2899
818.638	2796
818.778	2792
818.919	2781
819.06	2754
819.2	2853
819.341	2823
819.481	2796
819.622	2929
819.762	3093
819.903	3017
820.043	2929
820.184	2906
820.324	2910
820.465	3013
820.605	3013
820.746	3013
820.886	2944
821.026	3116
821.167	3176
821.307	3214
821.447	3226
821.588	3207
821.728	3192
821.868	3188
822.008	3066
822.149	3192
822.289	3245
822.429	3135
822.569	3108
822.709	3188
822.849	3017
822.99	3074
823.13	3138
823.27	3214
823.41	3150
823.55	3161
823.69	3150
823.83	3161
823.97	3097
824.11	2979
824.25	2986
824.389	3089
824.529	3089
824.669	3028
824.809	3176
824.949	3249
825.089	3241
825.228	3188
825.368	3009
825.508	2967
825.648	2960
825.787	2998
825.927	3020
826.067	2990
826.206	2948
826.346	3036
826.485	3047
826.625	3085
826.765	3268
826.904	3237
827.044	2967
827.183	2925
827.323	2857
827.462	3017
827.601	2914
827.741	2922
827.88	2925
828.02	2826
828.159	2998
828.298	3066
828.437	3093
828.577	3017
828.716	3211
828.855	3066
828.994	2929
829.134	2868
829.273	2887
829.412	2861
829.551	2845
829.69	2880
829.829	2982
829.968	3108
830.107	3036
830.246	3024
830.385	2887
830.524	2861
830.663	2815
830.802	2720
830.941	2667
831.08	2617
831.219	2743
831.357	2743
831.496	2956
831.635	2712
831.774	2659
831.913	2651
832.051	2499
832.19	2541
832.329	2697
832.467	2530
832.606	2465
832.744	2579
832.883	2537
833.022	2571
833.16	2648
833.299	2701
833.437	2708
833.576	2705
833.714	2697
833.852	2708
833.991	2766
834.129	2804
834.267	2857
834.406	2735
834.544	2883
834.682	2849
834.821	2823
834.959	3070
835.097	2910
835.235	3089
835.373	2982
835.511	2998
835.65	2960
835.788	2967
835.926	2876
836.064	2826
836.202	2830
836.34	3100
836.478	3154
836.615	3070
836.753	3146
836.891	3211
837.029	3161
837.167	3123
837.305	3047
837.443	3032
837.58	2956
837.718	3131
837.856	3074
837.993	3028
838.131	3135
838.269	3077
838.406	3058
838.544	3131
838.681	2929
838.819	2929
838.956	2842
839.094	2864
839.231	2925
839.369	2994
839.506	3389
839.643	3253
839.781	3024
839.918	2941
840.055	3036
840.193	3062
840.33	3077
840.467	3070
840.604	3127
840.742	3393
840.879	3028
841.016	3055
841.153	3097
841.29	3332
841.427	3310
841.564	3283
841.701	3306
841.838	3180
841.975	3180
842.112	3222
842.249	3131
842.385	2982
842.522	3245
842.659	3093
842.796	3066
842.933	3077
843.069	3036
843.206	3032
843.343	3161
843.479	3123
843.616	3138
843.752	2910
843.889	2872
844.025	3089
844.162	2902
844.298	3085
844.435	2960
844.571	2899
844.708	3097
844.844	3184
844.98	3233
845.117	3203
845.253	3077
845.389	3013
845.525	3131
845.661	3123
845.798	2994
845.934	3089
846.07	3043
846.206	3192
846.342	3313
846.478	3253
846.614	3100
846.75	3055
846.886	2986
847.022	3226
847.158	3150
847.294	3192
847.429	3218
847.565	3222
847.701	3469
847.837	3024
847.972	2982
848.108	3142
848.244	3119
848.379	2975
848.515	2944
848.65	2910
848.786	2925
848.921	2990
849.057	3138
849.192	3123
849.328	3062
849.463	3119
849.598	3039
849.734	3001
849.869	2922
850.004	2914
850.14	2922
850.275	2918
850.41	2830
850.545	2857
850.68	2925
850.815	2944
850.95	2990
851.085	3211
851.22	3104
851.355	3043
851.49	2994
851.625	2998
851.76	3020
851.895	2956
852.03	2887
852.165	3032
852.299	3074
852.434	3157
852.569	3173
852.703	3176
852.838	3253
852.973	3329
853.107	3336
853.242	3176
853.376	3066
853.511	2994
853.645	3036
853.78	3195
853.914	3150
854.048	3097
854.183	3104
854.317	3146
854.451	3298
854.585	3123
854.72	3028
854.854	3249
854.988	3028
855.122	3116
855.256	2998
855.39	3108
855.524	3249
855.658	3180
855.792	3119
855.926	3188
856.06	3237
856.194	3256
856.327	3150
856.461	3066
856.595	3093
856.729	3077
856.862	3192
856.996	3161
857.13	3184
857.263	3203
857.397	3226
857.53	3142
857.664	3188
857.797	3222
857.931	3245
858.064	3150
858.197	3203
858.331	3123
858.464	3108
858.597	3036
858.731	3062
858.864	3161
858.997	3047
859.13	3127
859.263	3150
859.396	3180
859.529	3077
859.662	3116
859.795	3066
859.928	3146
860.061	3287
860.194	3264
860.327	3135
860.46	3116
860.592	3237
860.725	3249
860.858	3241
860.99	3043
861.123	3062
861.256	3066
861.388	3150
861.521	3747
861.653	3013
861.786	2990
861.918	2960
862.05	3039
862.183	3055
862.315	3112
862.447	3199
862.58	3085
862.712	2937
862.844	2891
862.976	3024
863.108	2963
863.24	3325
863.372	2830
863.504	2952
863.636	2902
863.768	3009
863.9	2982
864.032	2883
864.164	2941
864.296	2990
864.428	3043
864.559	3108
864.691	3055
864.823	3081
864.954	3043
865.086	3055
865.217	2982
865.349	2937
865.48	2994
865.612	3005
865.743	3142
865.875	2998
866.006	2925
866.137	2967
866.269	2979
866.4	2933
866.531	2902
866.662	2868
866.793	2853
866.924	2895
867.055	2944
867.186	2906
867.317	2864
867.448	2830
867.579	2830
867.71	2811
867.841	2845
867.972	2857
868.103	2895
868.233	2918
868.364	2861
868.495	2902
868.625	3077
868.756	3176
868.886	2979
869.017	3024
869.147	3165
869.278	3184
869.408	3055
869.539	3009
869.669	3131
869.799	3013
869.929	3108
870.06	3085
870.19	3313
870.32	3306
870.45	3291
870.58	3397
870.71	3454
870.84	3481
870.97	3313
871.1	3264
871.23	3443
871.36	3450
871.489	3351
871.619	3378
871.749	3401
871.879	3416
872.008	3473
872.138	3344
872.267	3283
872.397	3146
872.526	3108
872.656	2982
872.785	3066
872.915	3233
873.044	3321
873.173	3199
873.303	3218
873.432	3214
873.561	3176
873.69	3157
873.819	3142
873.948	3192
874.077	3116
874.206	3020
874.335	3074
874.464	3173
874.593	3317
874.722	3253
874.851	3389
874.979	3363
875.108	3336
875.237	3195
875.365	3180
875.494	3116
875.623	3249
875.751	3074
875.88	3104
876.008	3180
876.136	3195
876.265	3378
876.393	3500
876.521	3428
876.65	3409
876.778	3313
876.906	3264
877.034	3135
877.162	3233
877.29	3154
877.418	3298
877.546	3253
877.674	3241
877.802	3226
877.93	3184
878.058	3138
878.185	3097
878.313	3180
878.441	3192
878.568	3062
878.696	3135
878.824	3253
878.951	3264
879.079	3469
879.206	3629
879.333	3397
879.461	3355
879.588	3359
879.715	3538
879.842	3610
879.97	3348
880.097	3169
880.224	3142
880.351	3184
880.478	3184
880.605	3207
880.732	3184
880.859	3534
880.986	3298
881.112	3298
881.239	3195
881.366	3055
881.493	3058
881.619	3005
881.746	3093
881.872	3085
881.999	3089
882.125	3112
882.252	3230
882.378	3348
882.505	3420
882.631	3256
882.757	3192
882.883	3188
883.01	3230
883.136	3157
883.262	3032
883.388	3085
883.514	3291
883.64	3378
883.766	3260
883.892	3123
884.018	3245
884.143	3420
884.269	3542
884.395	3119
884.52	3157
884.646	3150
884.772	3146
884.897	3112
885.023	3157
885.148	3325
885.274	3389
885.399	3336
885.524	3260
885.65	3260
885.775	3302
885.9	3253
886.025	3420
886.15	3313
886.275	3283
886.4	3199
886.525	3291
886.65	3272
886.775	3272
886.9	3473
887.025	3599
887.149	3386
887.274	3230
887.399	3146
887.523	3195
887.648	3184
887.773	3180
887.897	3363
888.021	3363
888.146	3279
888.27	3428
888.395	3511
888.519	3378
888.643	3439
888.767	3443
888.891	3321
889.015	3253
889.139	3245
889.263	3214
889.387	3447
889.511	3530
889.635	3424
889.759	3237
889.883	3272
890.006	3397
890.13	3515
890.254	3306
890.377	3363
890.501	3237
890.624	3199
890.748	3344
890.871	3184
890.995	3146
891.118	3081
891.241	3203
891.364	3272
891.488	3313
891.611	3207
891.734	3211
891.857	3310
891.98	3253
892.103	3370
892.226	3272
892.349	3230
892.471	3165
892.594	3260
892.717	3310
892.839	3291
892.962	3351
893.085	3401
893.207	3332
893.33	3214
893.452	3256
893.575	3344
893.697	3264
893.819	3492
893.941	3534
894.064	3481
894.186	3298
894.308	3313
894.43	3511
894.552	3542
894.674	3511
894.796	3294
894.918	3336
895.04	3359
895.161	3515
895.283	3462
895.405	3355
895.526	3469
895.648	3458
895.769	3466
895.891	3507
896.012	3511
896.134	3523
896.255	3458
896.376	3424
896.498	3409
896.619	3439
896.74	3435
896.861	3450
896.982	3720
897.103	3880
897.224	3698
897.345	3542
897.466	3500
897.587	3534
897.708	3679
897.828	3576
897.949	3469
898.07	3393
898.19	3458
898.311	3667
898.431	3428
898.552	3595
898.672	3652
898.792	3629
898.913	3576
899.033	3466
899.153	3302
899.273	3214
899.393	3340
899.513	3348
899.633	3344
899.753	3386
899.873	3317
899.993	3393
900.113	3355
900.232	3431
900.352	3363
900.472	3329
900.591	3275
900.711	3336
900.83	3279
900.95	3412
901.069	3553
901.189	3370
901.308	3226
901.427	3192
901.546	3237
901.665	3340
901.784	3332
901.904	3253
902.023	3195
902.141	3066
902.26	3058
902.379	3138
902.498	3047
902.617	3093
902.735	3222
902.854	3245
902.973	3249
903.091	3074
903.21	3135
903.328	3150
903.446	3157
903.565	3116
903.683	3253
903.801	3146
903.919	3291
904.038	3340
904.156	3199
904.274	3317
904.392	3272
904.51	3344
904.627	3332
904.745	3473
904.863	3507
904.981	3256
905.098	3211
905.216	3268
905.334	3298
905.451	3336
905.569	3325
905.686	3420
905.803	3477
905.921	3310
906.038	3481
906.155	3378
906.272	3298
906.389	3367
906.506	3260
906.623	3302
906.74	3336
906.857	3245
906.974	3249
907.091	3458
907.208	3599
907.324	3538
907.441	3431
907.557	3260
907.674	3283
907.79	3226
907.907	3325
908.023	3435
908.139	3409
908.256	3405
908.372	3431
908.488	3401
908.604	3287
908.72	3268
908.836	3283
908.952	3359
909.068	3405
909.184	3500
909.3	3397
909.415	3534
909.531	3530
909.647	3272
909.762	3329
909.878	3279
909.993	3412
910.108	3325
910.224	3389
910.339	3485
910.454	3348
910.57	3321
910.685	3313
910.8	3641
910.915	3576
911.03	3424
911.145	3298
911.259	3317
911.374	3382
911.489	3287
911.604	3272
911.718	3169
911.833	3226
911.947	3047
912.062	3043
912.176	3188
912.291	3237
912.405	3222
912.519	3454
912.633	3481
912.748	3355
912.862	3317
912.976	3218
913.09	3043
913.204	3214
913.318	3226
913.431	3370
913.545	3370
913.659	3416
913.772	3348
913.886	3275
914	3218
914.113	3363
914.226	3492
914.34	3405
914.453	3241
914.566	3443
914.68	3325
914.793	3340
914.906	3188
915.019	3138
915.132	3081
915.245	3192
915.358	3230
915.47	3279
915.583	3313
915.696	3302
915.809	3477
915.921	3462
916.034	3294
916.146	3321
916.259	3268
916.371	3374
916.483	3389
916.595	3298
916.708	3355
916.82	3363
916.932	3340
917.044	3389
917.156	3409
917.268	3298
917.38	3355
917.491	3344
917.603	3412
917.715	3488
917.826	3507
917.938	3389
918.049	3291
918.161	3477
918.272	3610
918.384	3622
918.495	3526
918.606	3370
918.717	3313
918.828	3424
918.939	3447
919.05	3367
919.161	3405
919.272	3180
919.383	3298
919.494	3549
919.604	3713
919.715	3481
919.826	3424
919.936	3507
920.047	3595
920.157	3564
920.267	3797
920.378	3648
920.488	3675
920.598	3823
920.708	3991
920.818	3819
920.928	3884
921.038	4029
921.148	4044
921.258	3724
921.368	3648
921.477	3595
921.587	3606
921.697	3488
921.806	3682
921.916	3587
922.025	3420
922.134	3397
922.244	3344
922.353	3454
922.462	3306
922.571	3256
922.68	3119
922.789	3116
922.898	3157
923.007	3127
923.116	3214
923.224	3207
923.333	3188
923.442	3146
923.55	3135
923.659	3180
923.767	3241
923.876	3135
923.984	3264
924.092	3142
924.201	3199
924.309	3241
924.417	3272
924.525	3192
924.633	3249
924.741	4223
924.849	3066
924.956	3283
925.064	3123
925.172	3062
925.279	3127
925.387	3233
925.494	3233
925.602	3370
925.709	3367
925.816	3230
925.924	3306
926.031	3401
926.138	3348
926.245	3370
926.352	3253
926.459	3424
926.566	3492
926.673	3363
926.779	3294
926.886	3272
926.993	3176
927.099	3161
927.206	3142
927.312	3146
927.419	3253
927.525	3180
927.631	3317
927.737	3180
927.843	3146
927.95	3047
928.056	3184
928.162	3161
928.267	3302
928.373	3907
928.479	3336
928.585	3093
928.69	3264
928.796	3294
928.901	3165
929.007	3089
929.112	3226
929.218	3188
929.323	3169
929.428	3192
929.533	3351
929.638	3173
929.743	3195
929.848	3275
929.953	3260
930.058	3173
930.163	3020
930.267	3089
930.372	3241
930.477	3039
930.581	3382
930.685	3184
930.79	3043
930.894	3180
930.998	3123
931.103	3325
931.207	2967
931.311	2979
931.415	2922
931.519	2792
931.623	2842
