Data from test_V78500241_854.txt Node
Date: Fri Mar 25 16:21:07 CST 2022
User: usil
Spectrometer: V785-0024
Trigger mode: 0
Integration Time (sec): 4.000000E-1
Scans to average: 1
Nonlinearity correction enabled: false
Boxcar width: 0
Storing dark spectrum: false
XAxis mode: Wavelengths
Number of Pixels in Spectrum: 1024
>>>>>Begin Spectral Data<<<<<
801.071	2891
801.214	2937
801.356	2845
801.499	2902
801.641	2834
801.783	2891
801.926	3051
802.068	2963
802.211	2975
802.353	3036
802.496	2944
802.638	3036
802.78	3051
802.923	3066
803.065	2975
803.208	2906
803.35	2887
803.492	2906
803.635	2944
803.777	2750
803.919	2834
804.061	3222
804.204	2937
804.346	2864
804.488	2819
804.63	3009
804.773	2849
804.915	2925
805.057	3070
805.199	2906
805.341	2967
805.483	3028
805.626	2994
805.768	2933
805.91	3070
806.052	3104
806.194	2990
806.336	3184
806.478	3058
806.62	2960
806.762	2963
806.904	3047
807.046	3161
807.188	2979
807.33	2891
807.472	2971
807.614	2910
807.756	2971
807.898	2914
808.04	2887
808.182	2956
808.324	2899
808.465	2845
808.607	2849
808.749	2754
808.891	2842
809.033	2967
809.174	2967
809.316	2868
809.458	2868
809.6	2746
809.741	2773
809.883	2762
810.025	2857
810.166	2853
810.308	2868
810.45	2853
810.591	2739
810.733	2773
810.875	2842
811.016	2758
811.158	2746
811.299	2785
811.441	2925
811.582	2876
811.724	2826
811.865	2823
812.007	2891
812.148	2880
812.29	2880
812.431	2864
812.573	2933
812.714	2944
812.855	3020
812.997	3043
813.138	3081
813.279	2998
813.421	2967
813.562	2925
813.703	2895
813.845	2910
813.986	2773
814.127	2735
814.268	2849
814.41	2842
814.551	2838
814.692	2864
814.833	2815
814.974	2887
815.115	2979
815.256	2857
815.397	2781
815.539	2823
815.68	2746
815.821	2773
815.962	2918
816.103	2922
816.244	2861
816.385	2842
816.526	2960
816.666	2937
816.807	2727
816.948	2883
817.089	2914
817.23	2845
817.371	2758
817.512	2800
817.653	2872
817.793	2819
817.934	2925
818.075	2956
818.216	2986
818.356	3009
818.497	2883
818.638	2811
818.778	2796
818.919	2769
819.06	2766
819.2	2868
819.341	2792
819.481	2796
819.622	2914
819.762	3089
819.903	3017
820.043	2937
820.184	2895
820.324	2857
820.465	3020
820.605	2990
820.746	3009
820.886	2933
821.026	3055
821.167	3138
821.307	3253
821.447	3245
821.588	3233
821.728	3188
821.868	3165
822.008	3077
822.149	3154
822.289	3230
822.429	3039
822.569	3127
822.709	3157
822.849	3036
822.99	3039
823.13	3135
823.27	3188
823.41	3097
823.55	3097
823.69	3142
823.83	3161
823.97	3100
824.11	2975
824.25	2982
824.389	3066
824.529	3131
824.669	3017
824.809	3176
824.949	3230
825.089	3245
825.228	3150
825.368	3028
825.508	2944
825.648	2914
825.787	3001
825.927	2971
826.067	2960
826.206	2922
826.346	3017
826.485	3070
826.625	3097
826.765	3275
826.904	3199
827.044	2960
827.183	2902
827.323	2895
827.462	2952
827.601	2914
827.741	2944
827.88	2937
828.02	2842
828.159	3001
828.298	3062
828.437	3135
828.577	3043
828.716	3256
828.855	3104
828.994	2902
829.134	2899
829.273	2918
829.412	2876
829.551	2891
829.69	2906
829.829	2994
829.968	3097
830.107	3009
830.246	3058
830.385	2952
830.524	2906
830.663	2804
830.802	2754
830.941	2670
831.08	2667
831.219	2781
831.357	2777
831.496	2990
831.635	2727
831.774	2670
831.913	2693
832.051	2590
832.19	2617
832.329	2705
832.467	2564
832.606	2530
832.744	2632
832.883	2648
833.022	2640
833.16	2670
833.299	2724
833.437	2746
833.576	2705
833.714	2762
833.852	2777
833.991	2788
834.129	2899
834.267	2876
834.406	2842
834.544	2914
834.682	2906
834.821	2922
834.959	3104
835.097	2925
835.235	3081
835.373	3017
835.511	3066
835.65	2975
835.788	2963
835.926	2876
836.064	2834
836.202	2902
836.34	3135
836.478	3173
836.615	3070
836.753	3169
836.891	3256
837.029	3176
837.167	3169
837.305	3085
837.443	3081
837.58	3032
837.718	3150
837.856	3097
837.993	3039
838.131	3112
838.269	3154
838.406	3131
838.544	3157
838.681	3005
838.819	2967
838.956	2864
839.094	2880
839.231	2933
839.369	3089
839.506	3443
839.643	3287
839.781	3058
839.918	2994
840.055	3097
840.193	3100
840.33	3104
840.467	3135
840.604	3138
840.742	3439
840.879	3051
841.016	3085
841.153	3104
841.29	3378
841.427	3348
841.564	3298
841.701	3367
841.838	3260
841.975	3218
842.112	3264
842.249	3104
842.385	3062
842.522	3272
842.659	3131
842.796	3093
842.933	3119
843.069	3051
843.206	3093
843.343	3226
843.479	3161
843.616	3161
843.752	2929
843.889	2868
844.025	3077
844.162	2902
844.298	3135
844.435	2975
844.571	2952
844.708	3074
844.844	3245
844.98	3268
845.117	3226
845.253	3074
845.389	3032
845.525	3116
845.661	3131
845.798	3036
845.934	3176
846.07	3123
846.206	3233
846.342	3348
846.478	3264
846.614	3100
846.75	3077
846.886	3051
847.022	3253
847.158	3157
847.294	3233
847.429	3279
847.565	3264
847.701	3549
847.837	3058
847.972	2990
848.108	3245
848.244	3169
848.379	3009
848.515	2979
848.65	2967
848.786	3009
848.921	3017
849.057	3127
849.192	3154
849.328	3108
849.463	3093
849.598	3112
849.734	3081
849.869	3001
850.004	2944
850.14	3020
850.275	2929
850.41	2842
850.545	2941
850.68	2960
850.815	2998
850.95	2994
851.085	3237
851.22	3161
851.355	3085
851.49	3032
851.625	3024
851.76	3081
851.895	2979
852.03	2952
852.165	3039
852.299	3161
852.434	3207
852.569	3157
852.703	3214
852.838	3272
852.973	3359
853.107	3340
853.242	3184
853.376	3116
853.511	3028
853.645	3089
853.78	3237
853.914	3150
854.048	3119
854.183	3123
854.317	3157
854.451	3332
854.585	3188
854.72	3100
854.854	3237
854.988	3104
855.122	3123
855.256	2975
855.39	3165
855.524	3283
855.658	3199
855.792	3211
855.926	3222
856.06	3249
856.194	3272
856.327	3192
856.461	3085
856.595	3112
856.729	3135
856.862	3245
856.996	3169
857.13	3214
857.263	3279
857.397	3291
857.53	3146
857.664	3214
857.797	3260
857.931	3298
858.064	3173
858.197	3237
858.331	3176
858.464	3138
858.597	3032
858.731	3135
858.864	3180
858.997	3089
859.13	3184
859.263	3214
859.396	3241
859.529	3131
859.662	3089
859.795	3077
859.928	3176
860.061	3317
860.194	3298
860.327	3157
860.46	3131
860.592	3260
860.725	3287
860.858	3264
860.99	3112
861.123	3085
861.256	3074
861.388	3214
861.521	3899
861.653	3043
861.786	3024
861.918	3043
862.05	3097
862.183	3135
862.315	3138
862.447	3264
862.58	3165
862.712	3017
862.844	2861
862.976	3051
863.108	3039
863.24	3363
863.372	2906
863.504	2998
863.636	2971
863.768	3047
863.9	2975
864.032	2952
864.164	2994
864.296	3036
864.428	3104
864.559	3127
864.691	3119
864.823	3074
864.954	3055
865.086	3043
865.217	3055
865.349	2929
865.48	3013
865.612	3005
865.743	3138
865.875	3017
866.006	2960
866.137	3005
866.269	2979
866.4	2952
866.531	2933
866.662	2922
866.793	2929
866.924	2929
867.055	3020
867.186	2967
867.317	2910
867.448	2876
867.579	2880
867.71	2891
867.841	2819
867.972	2918
868.103	2910
868.233	2914
868.364	2910
868.495	2914
868.625	3104
868.756	3199
868.886	3005
869.017	3009
869.147	3195
869.278	3176
869.408	3051
869.539	3039
869.669	3093
869.799	3089
869.929	3173
870.06	3127
870.19	3336
870.32	3363
870.45	3306
870.58	3416
870.71	3458
870.84	3431
870.97	3287
871.1	3272
871.23	3507
871.36	3485
871.489	3420
871.619	3435
871.749	3492
871.879	3473
872.008	3523
872.138	3389
872.267	3253
872.397	3157
872.526	3154
872.656	3051
872.785	3119
872.915	3226
873.044	3310
873.173	3233
873.303	3230
873.432	3272
873.561	3253
873.69	3184
873.819	3188
873.948	3272
874.077	3135
874.206	3066
874.335	3074
874.464	3237
874.593	3336
874.722	3279
874.851	3389
874.979	3367
875.108	3291
875.237	3188
875.365	3161
875.494	3203
875.623	3279
875.751	3074
875.88	3127
876.008	3218
876.136	3245
876.265	3340
876.393	3526
876.521	3447
876.65	3443
876.778	3386
876.906	3287
877.034	3256
877.162	3230
877.29	3188
877.418	3268
877.546	3233
877.674	3279
877.802	3272
877.93	3241
878.058	3161
878.185	3100
878.313	3218
878.441	3203
878.568	3077
878.696	3192
878.824	3237
878.951	3359
879.079	3469
879.206	3660
879.333	3443
879.461	3340
879.588	3389
879.715	3496
879.842	3633
879.97	3420
880.097	3169
880.224	3195
880.351	3230
880.478	3218
880.605	3214
880.732	3207
880.859	3473
880.986	3279
881.112	3355
881.239	3184
881.366	3138
881.493	3058
881.619	3024
881.746	3093
881.872	3074
881.999	3127
882.125	3173
882.252	3237
882.378	3313
882.505	3454
882.631	3306
882.757	3199
882.883	3230
883.01	3253
883.136	3157
883.262	3146
883.388	3180
883.514	3310
883.64	3443
883.766	3363
883.892	3222
884.018	3287
884.143	3416
884.269	3530
884.395	3211
884.52	3154
884.646	3207
884.772	3173
884.897	3119
885.023	3249
885.148	3351
885.274	3435
885.399	3424
885.524	3306
885.65	3241
885.775	3321
885.9	3306
886.025	3386
886.15	3363
886.275	3306
886.4	3222
886.525	3329
886.65	3272
886.775	3291
886.9	3534
887.025	3648
887.149	3439
887.274	3260
887.399	3211
887.523	3218
887.648	3199
887.773	3241
887.897	3409
888.021	3431
888.146	3306
888.27	3443
888.395	3526
888.519	3447
888.643	3469
888.767	3500
888.891	3367
889.015	3245
889.139	3294
889.263	3302
889.387	3386
889.511	3515
889.635	3428
889.759	3279
889.883	3275
890.006	3397
890.13	3477
890.254	3287
890.377	3359
890.501	3203
890.624	3169
890.748	3291
890.871	3169
890.995	3085
891.118	3062
891.241	3180
891.364	3222
891.488	3298
891.611	3184
891.734	3207
891.857	3336
891.98	3230
892.103	3359
892.226	3294
892.349	3214
892.471	3108
892.594	3268
892.717	3329
892.839	3260
892.962	3287
893.085	3370
893.207	3325
893.33	3176
893.452	3195
893.575	3363
893.697	3279
893.819	3443
893.941	3466
894.064	3450
894.186	3325
894.308	3279
894.43	3416
894.552	3507
894.674	3473
894.796	3264
894.918	3336
895.04	3340
895.161	3405
895.283	3439
895.405	3306
895.526	3382
895.648	3450
895.769	3420
895.891	3454
896.012	3511
896.134	3466
896.255	3420
896.376	3367
896.498	3378
896.619	3416
896.74	3382
896.861	3397
896.982	3679
897.103	3865
897.224	3622
897.345	3485
897.466	3420
897.587	3507
897.708	3625
897.828	3603
897.949	3435
898.07	3359
898.19	3409
898.311	3618
898.431	3450
898.552	3496
898.672	3561
898.792	3568
898.913	3515
899.033	3443
899.153	3310
899.273	3226
899.393	3287
899.513	3313
899.633	3291
899.753	3317
899.873	3310
899.993	3363
900.113	3310
900.232	3374
900.352	3317
900.472	3275
900.591	3192
900.711	3310
900.83	3287
900.95	3447
901.069	3492
901.189	3359
901.308	3173
901.427	3157
901.546	3203
901.665	3275
901.784	3332
901.904	3241
902.023	3154
902.141	2986
902.26	3024
902.379	3116
902.498	3093
902.617	3081
902.735	3188
902.854	3249
902.973	3203
903.091	3070
903.21	3039
903.328	3203
903.446	3150
903.565	3077
903.683	3222
903.801	3085
903.919	3253
904.038	3275
904.156	3203
904.274	3329
904.392	3264
904.51	3306
904.627	3359
904.745	3450
904.863	3504
904.981	3249
905.098	3180
905.216	3249
905.334	3317
905.451	3348
905.569	3329
905.686	3458
905.803	3435
905.921	3313
906.038	3435
906.155	3367
906.272	3306
906.389	3374
906.506	3260
906.623	3275
906.74	3355
906.857	3241
906.974	3313
907.091	3462
907.208	3580
907.324	3507
907.441	3477
907.557	3294
907.674	3306
907.79	3211
907.907	3332
908.023	3401
908.139	3416
908.256	3367
908.372	3386
908.488	3378
908.604	3275
908.72	3249
908.836	3287
908.952	3332
909.068	3431
909.184	3557
909.3	3469
909.415	3553
909.531	3507
909.647	3279
909.762	3329
909.878	3275
909.993	3355
910.108	3363
910.224	3378
910.339	3439
910.454	3355
910.57	3359
910.685	3294
910.8	3629
910.915	3538
911.03	3488
911.145	3310
911.259	3313
911.374	3382
911.489	3260
911.604	3253
911.718	3188
911.833	3161
911.947	3070
912.062	3032
912.176	3222
912.291	3241
912.405	3279
912.519	3443
912.633	3507
912.748	3363
912.862	3344
912.976	3237
913.09	3100
913.204	3184
913.318	3260
913.431	3386
913.545	3378
913.659	3450
913.772	3321
913.886	3283
914	3260
914.113	3389
914.226	3481
914.34	3363
914.453	3283
914.566	3450
914.68	3370
914.793	3336
914.906	3192
915.019	3169
915.132	3131
915.245	3211
915.358	3253
915.47	3302
915.583	3279
915.696	3351
915.809	3454
915.921	3458
916.034	3302
916.146	3310
916.259	3245
916.371	3401
916.483	3431
916.595	3272
916.708	3370
916.82	3378
916.932	3382
917.044	3378
917.156	3370
917.268	3348
917.38	3336
917.491	3325
917.603	3389
917.715	3450
917.826	3519
917.938	3439
918.049	3325
918.161	3473
918.272	3587
918.384	3606
918.495	3545
918.606	3416
918.717	3340
918.828	3431
918.939	3473
919.05	3302
919.161	3382
919.272	3207
919.383	3313
919.494	3542
919.604	3720
919.715	3519
919.826	3469
919.936	3481
920.047	3599
920.157	3561
920.267	3762
920.378	3675
920.488	3610
920.598	3793
920.708	3987
920.818	3869
920.928	3911
921.038	4040
921.148	4025
921.258	3713
921.368	3663
921.477	3587
921.587	3572
921.697	3526
921.806	3656
921.916	3557
922.025	3409
922.134	3393
922.244	3332
922.353	3477
922.462	3298
922.571	3256
922.68	3150
922.789	3116
922.898	3180
923.007	3112
923.116	3211
923.224	3245
923.333	3180
923.442	3119
923.55	3123
923.659	3135
923.767	3245
923.876	3138
923.984	3237
924.092	3135
924.201	3256
924.309	3249
924.417	3287
924.525	3233
924.633	3275
924.741	4059
924.849	3100
924.956	3340
925.064	3127
925.172	3043
925.279	3150
925.387	3253
925.494	3253
925.602	3397
925.709	3340
925.816	3199
925.924	3317
926.031	3443
926.138	3378
926.245	3386
926.352	3291
926.459	3473
926.566	3530
926.673	3340
926.779	3283
926.886	3256
926.993	3218
927.099	3184
927.206	3135
927.312	3150
927.419	3302
927.525	3245
927.631	3279
927.737	3157
927.843	3173
927.95	3043
928.056	3135
928.162	3226
928.267	3283
928.373	3819
928.479	3351
928.585	3097
928.69	3233
928.796	3317
928.901	3214
929.007	3070
929.112	3222
929.218	3245
929.323	3211
929.428	3165
929.533	3359
929.638	3104
929.743	3214
929.848	3298
929.953	3241
930.058	3199
930.163	3032
930.267	3093
930.372	3222
930.477	3058
930.581	3321
930.685	3188
930.79	3093
930.894	3184
930.998	3119
931.103	3329
931.207	2971
931.311	2952
931.415	2941
931.519	2807
931.623	2849
