Data from test_V78500241_1236.txt Node
Date: Fri Mar 25 16:23:45 CST 2022
User: usil
Spectrometer: V785-0024
Trigger mode: 0
Integration Time (sec): 4.000000E-1
Scans to average: 1
Nonlinearity correction enabled: false
Boxcar width: 0
Storing dark spectrum: false
XAxis mode: Wavelengths
Number of Pixels in Spectrum: 1024
>>>>>Begin Spectral Data<<<<<
801.071	2910
801.214	2944
801.356	2849
801.499	2918
801.641	2880
801.783	2899
801.926	2986
802.068	2956
802.211	2975
802.353	3013
802.496	2941
802.638	2982
802.78	3039
802.923	3062
803.065	2971
803.208	2899
803.35	2902
803.492	2925
803.635	2929
803.777	2754
803.919	2876
804.061	3142
804.204	2963
804.346	2872
804.488	2838
804.63	2967
804.773	2857
804.915	2902
805.057	3066
805.199	2914
805.341	2967
805.483	3039
805.626	2975
805.768	2960
805.91	3062
806.052	3100
806.194	3024
806.336	3256
806.478	3032
806.62	2956
806.762	2979
806.904	3017
807.046	3131
807.188	2963
807.33	2914
807.472	3001
807.614	2925
807.756	2956
807.898	2933
808.04	2906
808.182	2963
808.324	2937
808.465	2880
808.607	2891
808.749	2796
808.891	2826
809.033	2982
809.174	2967
809.316	2880
809.458	2891
809.6	2769
809.741	2781
809.883	2785
810.025	2838
810.166	2853
810.308	2834
810.45	2861
810.591	2792
810.733	2781
810.875	2819
811.016	2804
811.158	2731
811.299	2792
811.441	2922
811.582	2918
811.724	2853
811.865	2845
812.007	2895
812.148	2902
812.29	2838
812.431	2872
812.573	2933
812.714	2929
812.855	3020
812.997	3020
813.138	3077
813.279	2994
813.421	2963
813.562	2971
813.703	2872
813.845	2868
813.986	2781
814.127	2762
814.268	2800
814.41	2845
814.551	2804
814.692	2891
814.833	2861
814.974	2910
815.115	2967
815.256	2811
815.397	2842
815.539	2842
815.68	2754
815.821	2785
815.962	2941
816.103	2937
816.244	2830
816.385	2891
816.526	3009
816.666	2895
816.807	2743
816.948	2895
817.089	2899
817.23	2849
817.371	2773
817.512	2746
817.653	2842
817.793	2830
817.934	2922
818.075	2960
818.216	2948
818.356	3047
818.497	2868
818.638	2773
818.778	2785
818.919	2800
819.06	2788
819.2	2861
819.341	2769
819.481	2804
819.622	2952
819.762	3104
819.903	3047
820.043	2929
820.184	2864
820.324	2902
820.465	2986
820.605	3017
820.746	2982
820.886	2899
821.026	3081
821.167	3127
821.307	3222
821.447	3279
821.588	3233
821.728	3176
821.868	3169
822.008	3093
822.149	3169
822.289	3192
822.429	3093
822.569	3070
822.709	3165
822.849	3013
822.99	3081
823.13	3150
823.27	3211
823.41	3097
823.55	3135
823.69	3131
823.83	3165
823.97	3100
824.11	3032
824.25	2963
824.389	3051
824.529	3039
824.669	3093
824.809	3203
824.949	3249
825.089	3245
825.228	3157
825.368	3001
825.508	2944
825.648	2982
825.787	3013
825.927	3013
826.067	2944
826.206	2948
826.346	3070
826.485	3039
826.625	3070
826.765	3249
826.904	3203
827.044	2975
827.183	2933
827.323	2887
827.462	2986
827.601	2887
827.741	2906
827.88	2975
828.02	2819
828.159	2963
828.298	3062
828.437	3085
828.577	3017
828.716	3241
828.855	3039
828.994	2872
829.134	2880
829.273	2910
829.412	2861
829.551	2857
829.69	2891
829.829	2979
829.968	3146
830.107	2998
830.246	3028
830.385	2902
830.524	2914
830.663	2800
830.802	2724
830.941	2651
831.08	2613
831.219	2735
831.357	2762
831.496	2975
831.635	2739
831.774	2674
831.913	2636
832.051	2564
832.19	2606
832.329	2682
832.467	2530
832.606	2511
832.744	2571
832.883	2583
833.022	2564
833.16	2655
833.299	2670
833.437	2682
833.576	2708
833.714	2701
833.852	2705
833.991	2762
834.129	2796
834.267	2796
834.406	2746
834.544	2868
834.682	2876
834.821	2830
834.959	3043
835.097	2895
835.235	3051
835.373	2986
835.511	2975
835.65	2937
835.788	2914
835.926	2826
836.064	2807
836.202	2811
836.34	3085
836.478	3150
836.615	3039
836.753	3142
836.891	3211
837.029	3131
837.167	3093
837.305	3009
837.443	3051
837.58	2937
837.718	3154
837.856	3017
837.993	3005
838.131	3108
838.269	3116
838.406	3123
838.544	3070
838.681	2899
838.819	2918
838.956	2792
839.094	2842
839.231	2914
839.369	3013
839.506	3340
839.643	3211
839.781	3013
839.918	2948
840.055	3062
840.193	3062
840.33	3028
840.467	3100
840.604	3150
840.742	3405
840.879	3051
841.016	3051
841.153	3081
841.29	3348
841.427	3298
841.564	3264
841.701	3291
841.838	3241
841.975	3138
842.112	3176
842.249	3081
842.385	3070
842.522	3211
842.659	3074
842.796	3024
842.933	3070
843.069	3036
843.206	3043
843.343	3180
843.479	3123
843.616	3119
843.752	2876
843.889	2880
844.025	3089
844.162	2887
844.298	3039
844.435	2948
844.571	2925
844.708	3055
844.844	3173
844.98	3233
845.117	3226
845.253	3028
845.389	2986
845.525	3093
845.661	3104
845.798	3001
845.934	3112
846.07	3051
846.206	3233
846.342	3310
846.478	3233
846.614	3112
846.75	3043
846.886	3020
847.022	3241
847.158	3116
847.294	3180
847.429	3260
847.565	3207
847.701	3485
847.837	3017
847.972	2975
848.108	3150
848.244	3142
848.379	2971
848.515	2925
848.65	2918
848.786	2960
848.921	2960
849.057	3119
849.192	3165
849.328	3058
849.463	3070
849.598	3066
849.734	3017
849.869	2967
850.004	2929
850.14	2948
850.275	2922
850.41	2853
850.545	2887
850.68	2887
850.815	2899
850.95	2929
851.085	3154
851.22	3116
851.355	3013
851.49	2971
851.625	3013
851.76	2998
851.895	2941
852.03	2929
852.165	3005
852.299	3116
852.434	3184
852.569	3119
852.703	3150
852.838	3253
852.973	3325
853.107	3325
853.242	3146
853.376	3100
853.511	2963
853.645	3051
853.78	3214
853.914	3119
854.048	3070
854.183	3093
854.317	3108
854.451	3313
854.585	3085
854.72	3039
854.854	3207
854.988	3066
855.122	3047
855.256	2967
855.39	3108
855.524	3249
855.658	3199
855.792	3169
855.926	3146
856.06	3222
856.194	3245
856.327	3161
856.461	3039
856.595	3062
856.729	3062
856.862	3214
856.996	3161
857.13	3192
857.263	3176
857.397	3272
857.53	3085
857.664	3176
857.797	3245
857.931	3256
858.064	3180
858.197	3184
858.331	3138
858.464	3104
858.597	3009
858.731	3100
858.864	3169
858.997	3089
859.13	3165
859.263	3165
859.396	3203
859.529	3058
859.662	3089
859.795	3024
859.928	3104
860.061	3260
860.194	3287
860.327	3104
860.46	3074
860.592	3218
860.725	3207
860.858	3268
860.99	3097
861.123	3043
861.256	3077
861.388	3085
861.521	3679
861.653	3055
861.786	2982
861.918	2986
862.05	3077
862.183	3100
862.315	3135
862.447	3173
862.58	3104
862.712	2937
862.844	2868
862.976	3028
863.108	2990
863.24	3329
863.372	2872
863.504	2952
863.636	2952
863.768	3001
863.9	2982
864.032	2937
864.164	2925
864.296	2998
864.428	3070
864.559	3127
864.691	3097
864.823	3104
864.954	3039
865.086	2990
865.217	3001
865.349	2918
865.48	2937
865.612	3032
865.743	3142
865.875	2967
866.006	2948
866.137	2937
866.269	2971
866.4	2933
866.531	2887
866.662	2849
866.793	2906
866.924	2876
867.055	2925
867.186	2941
867.317	2887
867.448	2834
867.579	2830
867.71	2872
867.841	2811
867.972	2876
868.103	2895
868.233	2845
868.364	2853
868.495	2902
868.625	3085
868.756	3173
868.886	2975
869.017	3005
869.147	3180
869.278	3161
869.408	3020
869.539	3024
869.669	3108
869.799	3020
869.929	3135
870.06	3104
870.19	3298
870.32	3268
870.45	3245
870.58	3336
870.71	3450
870.84	3435
870.97	3287
871.1	3230
871.23	3473
871.36	3420
871.489	3321
871.619	3386
871.749	3447
871.879	3420
872.008	3458
872.138	3336
872.267	3253
872.397	3123
872.526	3100
872.656	2998
872.785	3066
872.915	3237
873.044	3298
873.173	3176
873.303	3253
873.432	3230
873.561	3233
873.69	3123
873.819	3138
873.948	3150
874.077	3055
874.206	3020
874.335	3036
874.464	3226
874.593	3367
874.722	3283
874.851	3412
874.979	3348
875.108	3287
875.237	3176
875.365	3199
875.494	3135
875.623	3233
875.751	3055
875.88	3161
876.008	3203
876.136	3222
876.265	3355
876.393	3511
876.521	3389
876.65	3351
876.778	3321
876.906	3253
877.034	3184
877.162	3214
877.29	3188
877.418	3260
877.546	3222
877.674	3218
877.802	3222
877.93	3207
878.058	3161
878.185	3100
878.313	3195
878.441	3199
878.568	3062
878.696	3157
878.824	3241
878.951	3287
879.079	3454
879.206	3622
879.333	3431
879.461	3321
879.588	3306
879.715	3485
879.842	3618
879.97	3340
880.097	3150
880.224	3108
880.351	3203
880.478	3161
880.605	3199
880.732	3195
880.859	3500
880.986	3321
881.112	3317
881.239	3214
881.366	3055
881.493	3013
881.619	3043
881.746	3055
881.872	3058
881.999	3058
882.125	3123
882.252	3237
882.378	3310
882.505	3412
882.631	3256
882.757	3093
882.883	3199
883.01	3192
883.136	3176
883.262	3077
883.388	3138
883.514	3336
883.64	3374
883.766	3294
883.892	3165
884.018	3222
884.143	3412
884.269	3519
884.395	3199
884.52	3173
884.646	3161
884.772	3135
884.897	3116
885.023	3195
885.148	3329
885.274	3405
885.399	3363
885.524	3268
885.65	3272
885.775	3310
885.9	3298
886.025	3382
886.15	3363
886.275	3294
886.4	3214
886.525	3245
886.65	3291
886.775	3264
886.9	3488
887.025	3614
887.149	3363
887.274	3253
887.399	3176
887.523	3188
887.648	3176
887.773	3176
887.897	3370
888.021	3401
888.146	3310
888.27	3401
888.395	3564
888.519	3466
888.643	3481
888.767	3469
888.891	3325
889.015	3230
889.139	3283
889.263	3241
889.387	3355
889.511	3538
889.635	3447
889.759	3260
889.883	3298
890.006	3389
890.13	3450
890.254	3268
890.377	3325
890.501	3203
890.624	3176
890.748	3298
890.871	3161
890.995	3081
891.118	3051
891.241	3211
891.364	3199
891.488	3302
891.611	3165
891.734	3245
891.857	3310
891.98	3233
892.103	3332
892.226	3287
892.349	3207
892.471	3100
892.594	3268
892.717	3264
892.839	3279
892.962	3272
893.085	3359
893.207	3283
893.33	3119
893.452	3207
893.575	3332
893.697	3218
893.819	3469
893.941	3473
894.064	3462
894.186	3249
894.308	3291
894.43	3469
894.552	3519
894.674	3424
894.796	3253
894.918	3275
895.04	3237
895.161	3428
895.283	3393
895.405	3272
895.526	3374
895.648	3405
895.769	3424
895.891	3477
896.012	3454
896.134	3481
896.255	3382
896.376	3397
896.498	3348
896.619	3416
896.74	3386
896.861	3405
896.982	3641
897.103	3880
897.224	3568
897.345	3473
897.466	3420
897.587	3477
897.708	3580
897.828	3515
897.949	3469
898.07	3348
898.19	3378
898.311	3633
898.431	3420
898.552	3496
898.672	3572
898.792	3576
898.913	3526
899.033	3435
899.153	3279
899.273	3233
899.393	3283
899.513	3302
899.633	3306
899.753	3363
899.873	3302
899.993	3367
900.113	3340
900.232	3351
900.352	3348
900.472	3287
900.591	3207
900.711	3253
900.83	3226
900.95	3416
901.069	3500
901.189	3332
901.308	3176
901.427	3116
901.546	3165
901.665	3260
901.784	3325
901.904	3146
902.023	3157
902.141	2986
902.26	2986
902.379	3116
902.498	3093
902.617	3062
902.735	3214
902.854	3203
902.973	3188
903.091	3028
903.21	3036
903.328	3127
903.446	3074
903.565	3116
903.683	3161
903.801	3112
903.919	3218
904.038	3279
904.156	3169
904.274	3249
904.392	3253
904.51	3306
904.627	3340
904.745	3466
904.863	3473
904.981	3256
905.098	3146
905.216	3226
905.334	3275
905.451	3291
905.569	3287
905.686	3409
905.803	3439
905.921	3256
906.038	3416
906.155	3374
906.272	3283
906.389	3291
906.506	3233
906.623	3222
906.74	3272
906.857	3199
906.974	3268
907.091	3424
907.208	3584
907.324	3481
907.441	3382
907.557	3218
907.674	3233
907.79	3203
907.907	3272
908.023	3374
908.139	3359
908.256	3317
908.372	3401
908.488	3344
908.604	3268
908.72	3195
908.836	3279
908.952	3298
909.068	3313
909.184	3420
909.3	3386
909.415	3496
909.531	3443
909.647	3294
909.762	3268
909.878	3264
909.993	3329
910.108	3355
910.224	3370
910.339	3367
910.454	3329
910.57	3321
910.685	3226
910.8	3580
910.915	3530
911.03	3412
911.145	3260
911.259	3275
911.374	3294
911.489	3237
911.604	3214
911.718	3135
911.833	3123
911.947	3013
912.062	3005
912.176	3100
912.291	3211
912.405	3165
912.519	3389
912.633	3469
912.748	3332
912.862	3230
912.976	3135
913.09	3070
913.204	3127
913.318	3207
913.431	3340
913.545	3317
913.659	3412
913.772	3321
913.886	3195
914	3146
914.113	3367
914.226	3386
914.34	3370
914.453	3218
914.566	3386
914.68	3279
914.793	3298
914.906	3154
915.019	3123
915.132	3055
915.245	3161
915.358	3173
915.47	3214
915.583	3253
915.696	3294
915.809	3389
915.921	3367
916.034	3249
916.146	3233
916.259	3188
916.371	3370
916.483	3340
916.595	3233
916.708	3336
916.82	3298
916.932	3310
917.044	3374
917.156	3325
917.268	3241
917.38	3291
917.491	3279
917.603	3310
917.715	3496
917.826	3435
917.938	3340
918.049	3329
918.161	3416
918.272	3526
918.384	3614
918.495	3458
918.606	3310
918.717	3264
918.828	3367
918.939	3420
919.05	3283
919.161	3340
919.272	3173
919.383	3253
919.494	3458
919.604	3686
919.715	3485
919.826	3370
919.936	3458
920.047	3564
920.157	3557
920.267	3755
920.378	3614
920.488	3568
920.598	3778
920.708	3945
920.818	3793
920.928	3804
921.038	4006
921.148	3972
921.258	3698
921.368	3614
921.477	3568
921.587	3542
921.697	3477
921.806	3637
921.916	3523
922.025	3355
922.134	3355
922.244	3313
922.353	3378
922.462	3264
922.571	3233
922.68	3112
922.789	3055
922.898	3165
923.007	3062
923.116	3199
923.224	3180
923.333	3199
923.442	3119
923.55	3085
923.659	3138
923.767	3218
923.876	3138
923.984	3241
924.092	3097
924.201	3176
924.309	3222
924.417	3268
924.525	3165
924.633	3233
924.741	4021
924.849	3032
924.956	3241
925.064	3108
925.172	3024
925.279	3108
925.387	3169
925.494	3207
925.602	3367
925.709	3302
925.816	3169
925.924	3287
926.031	3405
926.138	3306
926.245	3344
926.352	3222
926.459	3435
926.566	3458
926.673	3291
926.779	3275
926.886	3230
926.993	3108
927.099	3100
927.206	3097
927.312	3112
927.419	3230
927.525	3195
927.631	3279
927.737	3127
927.843	3104
927.95	3039
928.056	3146
928.162	3146
928.267	3245
928.373	3857
928.479	3272
928.585	3081
928.69	3188
928.796	3279
928.901	3146
929.007	3039
929.112	3207
929.218	3184
929.323	3157
929.428	3089
929.533	3283
929.638	3104
929.743	3173
929.848	3249
929.953	3214
930.058	3116
930.163	2971
930.267	3024
930.372	3173
930.477	3036
930.581	3275
930.685	3161
930.79	3020
930.894	3108
930.998	3058
931.103	3298
931.207	2937
931.311	2925
931.415	2948
931.519	2758
931.623	2807
