Data from test_V78500241_139.txt Node
Date: Fri Mar 25 16:16:10 CST 2022
User: usil
Spectrometer: V785-0024
Trigger mode: 0
Integration Time (sec): 4.000000E-1
Scans to average: 1
Nonlinearity correction enabled: false
Boxcar width: 0
Storing dark spectrum: false
XAxis mode: Wavelengths
Number of Pixels in Spectrum: 1024
>>>>>Begin Spectral Data<<<<<
801.071	2960
801.214	2963
801.356	2971
801.499	2948
801.641	2944
801.783	2979
801.926	3093
802.068	2975
802.211	3036
802.353	3062
802.496	2956
802.638	3058
802.78	3093
802.923	3097
803.065	3043
803.208	2918
803.35	2967
803.492	2994
803.635	2971
803.777	2785
803.919	2895
804.061	3241
804.204	2982
804.346	2914
804.488	2861
804.63	3032
804.773	2941
804.915	2937
805.057	3074
805.199	2937
805.341	3028
805.483	3077
805.626	3024
805.768	3020
805.91	3123
806.052	3184
806.194	3097
806.336	3237
806.478	3062
806.62	3009
806.762	3013
806.904	3146
807.046	3157
807.188	2971
807.33	2948
807.472	3043
807.614	2948
807.756	2998
807.898	2956
808.04	2925
808.182	2994
808.324	2967
808.465	2918
808.607	2895
808.749	2830
808.891	2826
809.033	3005
809.174	2990
809.316	2914
809.458	2891
809.6	2781
809.741	2800
809.883	2811
810.025	2880
810.166	2933
810.308	2845
810.45	2872
810.591	2830
810.733	2792
810.875	2876
811.016	2807
811.158	2781
811.299	2826
811.441	2918
811.582	2929
811.724	2872
811.865	2849
812.007	2960
812.148	2937
812.29	2883
812.431	2910
812.573	2975
812.714	3001
812.855	3066
812.997	3070
813.138	3173
813.279	2994
813.421	2994
813.562	3005
813.703	2876
813.845	2941
813.986	2788
814.127	2739
814.268	2819
814.41	2857
814.551	2819
814.692	2864
814.833	2826
814.974	2914
815.115	2982
815.256	2857
815.397	2842
815.539	2849
815.68	2788
815.821	2811
815.962	2952
816.103	2952
816.244	2937
816.385	2880
816.526	3001
816.666	2933
816.807	2773
816.948	2895
817.089	2922
817.23	2876
817.371	2811
817.512	2785
817.653	2830
817.793	2864
817.934	2906
818.075	2960
818.216	3028
818.356	3081
818.497	2853
818.638	2849
818.778	2796
818.919	2819
819.06	2796
819.2	2922
819.341	2872
819.481	2807
819.622	2971
819.762	3127
819.903	3039
820.043	2929
820.184	2925
820.324	2899
820.465	3024
820.605	3062
820.746	3017
820.886	2963
821.026	3169
821.167	3176
821.307	3332
821.447	3310
821.588	3283
821.728	3264
821.868	3230
822.008	3112
822.149	3203
822.289	3256
822.429	3123
822.569	3142
822.709	3211
822.849	3108
822.99	3081
823.13	3184
823.27	3218
823.41	3169
823.55	3214
823.69	3222
823.83	3249
823.97	3203
824.11	3062
824.25	3066
824.389	3123
824.529	3138
824.669	3093
824.809	3241
824.949	3332
825.089	3317
825.228	3260
825.368	3077
825.508	3058
825.648	2998
825.787	3100
825.927	3028
826.067	3020
826.206	3009
826.346	3127
826.485	3138
826.625	3173
826.765	3313
826.904	3306
827.044	3058
827.183	2971
827.323	2937
827.462	3066
827.601	2971
827.741	3017
827.88	2998
828.02	2956
828.159	3051
828.298	3104
828.437	3146
828.577	3100
828.716	3302
828.855	3161
828.994	2963
829.134	2941
829.273	2975
829.412	2937
829.551	2918
829.69	2963
829.829	3051
829.968	3218
830.107	3089
830.246	3100
830.385	2979
830.524	2960
830.663	2899
830.802	2792
830.941	2689
831.08	2712
831.219	2849
831.357	2792
831.496	3047
831.635	2769
831.774	2697
831.913	2716
832.051	2602
832.19	2629
832.329	2773
832.467	2617
832.606	2537
832.744	2629
832.883	2651
833.022	2629
833.16	2720
833.299	2754
833.437	2750
833.576	2743
833.714	2804
833.852	2788
833.991	2807
834.129	2883
834.267	2868
834.406	2819
834.544	2948
834.682	2887
834.821	2922
834.959	3100
835.097	2922
835.235	3131
835.373	3028
835.511	3055
835.65	3028
835.788	3017
835.926	2883
836.064	2883
836.202	2861
836.34	3142
836.478	3180
836.615	3104
836.753	3173
836.891	3287
837.029	3192
837.167	3150
837.305	3089
837.443	3123
837.58	3001
837.718	3207
837.856	3112
837.993	3097
838.131	3154
838.269	3154
838.406	3146
838.544	3085
838.681	3020
838.819	2933
838.956	2842
839.094	2861
839.231	3001
839.369	3070
839.506	3481
839.643	3294
839.781	3066
839.918	3005
840.055	3127
840.193	3100
840.33	3097
840.467	3154
840.604	3176
840.742	3458
840.879	3081
841.016	3123
841.153	3161
841.29	3397
841.427	3359
841.564	3317
841.701	3351
841.838	3298
841.975	3226
842.112	3199
842.249	3123
842.385	3077
842.522	3310
842.659	3142
842.796	3123
842.933	3146
843.069	3062
843.206	3093
843.343	3218
843.479	3119
843.616	3184
843.752	2929
843.889	2922
844.025	3089
844.162	2933
844.298	3127
844.435	2990
844.571	2925
844.708	3161
844.844	3226
844.98	3279
845.117	3260
845.253	3089
845.389	3066
845.525	3165
845.661	3184
845.798	3081
845.934	3226
846.07	3131
846.206	3237
846.342	3367
846.478	3268
846.614	3123
846.75	3112
846.886	3047
847.022	3298
847.158	3214
847.294	3233
847.429	3363
847.565	3245
847.701	3519
847.837	3062
847.972	2998
848.108	3226
848.244	3188
848.379	3028
848.515	2967
848.65	2979
848.786	3013
848.921	3066
849.057	3150
849.192	3180
849.328	3123
849.463	3154
849.598	3100
849.734	3070
849.869	3047
850.004	2975
850.14	3047
850.275	2990
850.41	2876
850.545	2918
850.68	3013
850.815	2994
850.95	3020
851.085	3256
851.22	3176
851.355	3070
851.49	3028
851.625	3039
851.76	3032
851.895	2979
852.03	2952
852.165	3085
852.299	3169
852.434	3249
852.569	3233
852.703	3203
852.838	3275
852.973	3382
853.107	3420
853.242	3195
853.376	3108
853.511	3024
853.645	3097
853.78	3237
853.914	3192
854.048	3195
854.183	3142
854.317	3222
854.451	3355
854.585	3192
854.72	3119
854.854	3279
854.988	3123
855.122	3135
855.256	3036
855.39	3161
855.524	3298
855.658	3256
855.792	3203
855.926	3241
856.06	3264
856.194	3306
856.327	3199
856.461	3123
856.595	3142
856.729	3154
856.862	3272
856.996	3218
857.13	3245
857.263	3272
857.397	3348
857.53	3173
857.664	3233
857.797	3256
857.931	3279
858.064	3192
858.197	3249
858.331	3161
858.464	3138
858.597	3055
858.731	3146
858.864	3192
858.997	3123
859.13	3218
859.263	3211
859.396	3249
859.529	3138
859.662	3089
859.795	3097
859.928	3192
860.061	3302
860.194	3336
860.327	3154
860.46	3146
860.592	3256
860.725	3241
860.858	3306
860.99	3138
861.123	3081
861.256	3070
861.388	3211
861.521	3770
861.653	3058
861.786	3036
861.918	3039
862.05	3108
862.183	3157
862.315	3207
862.447	3249
862.58	3142
862.712	3009
862.844	2933
862.976	3062
863.108	3051
863.24	3458
863.372	2918
863.504	3032
863.636	3013
863.768	3100
863.9	2986
864.032	2963
864.164	3005
864.296	3062
864.428	3142
864.559	3169
864.691	3066
864.823	3135
864.954	3085
865.086	3100
865.217	3070
865.349	2986
865.48	3047
865.612	3081
865.743	3176
865.875	3024
866.006	2990
866.137	3013
866.269	2979
866.4	2998
866.531	2971
866.662	2960
866.793	2952
866.924	2933
867.055	3039
867.186	2941
867.317	2910
867.448	2902
867.579	2899
867.71	2861
867.841	2842
867.972	2944
868.103	2960
868.233	2929
868.364	2918
868.495	2933
868.625	3108
868.756	3222
868.886	3036
869.017	3017
869.147	3230
869.278	3233
869.408	3097
869.539	3077
869.669	3131
869.799	3093
869.929	3169
870.06	3150
870.19	3332
870.32	3386
870.45	3310
870.58	3458
870.71	3496
870.84	3469
870.97	3348
871.1	3279
871.23	3511
871.36	3523
871.489	3424
871.619	3428
871.749	3428
871.879	3458
872.008	3526
872.138	3382
872.267	3306
872.397	3165
872.526	3150
872.656	3066
872.785	3108
872.915	3302
873.044	3355
873.173	3264
873.303	3260
873.432	3306
873.561	3237
873.69	3192
873.819	3157
873.948	3256
874.077	3165
874.206	3066
874.335	3157
874.464	3253
874.593	3351
874.722	3317
874.851	3431
874.979	3439
875.108	3313
875.237	3226
875.365	3222
875.494	3188
875.623	3302
875.751	3112
875.88	3150
876.008	3272
876.136	3272
876.265	3389
876.393	3538
876.521	3500
876.65	3389
876.778	3370
876.906	3317
877.034	3233
877.162	3279
877.29	3211
877.418	3298
877.546	3302
877.674	3275
877.802	3245
877.93	3298
878.058	3195
878.185	3154
878.313	3218
878.441	3253
878.568	3119
878.696	3169
878.824	3287
878.951	3378
879.079	3496
879.206	3675
879.333	3488
879.461	3313
879.588	3386
879.715	3492
879.842	3648
879.97	3420
880.097	3211
880.224	3154
880.351	3241
880.478	3211
880.605	3253
880.732	3211
880.859	3530
880.986	3325
881.112	3370
881.239	3233
881.366	3135
881.493	3051
881.619	3017
881.746	3127
881.872	3154
881.999	3138
882.125	3176
882.252	3336
882.378	3340
882.505	3450
882.631	3332
882.757	3199
882.883	3256
883.01	3233
883.136	3192
883.262	3154
883.388	3161
883.514	3329
883.64	3374
883.766	3313
883.892	3241
884.018	3241
884.143	3447
884.269	3557
884.395	3272
884.52	3226
884.646	3218
884.772	3165
884.897	3146
885.023	3268
885.148	3412
885.274	3412
885.399	3450
885.524	3283
885.65	3268
885.775	3351
885.9	3359
886.025	3435
886.15	3420
886.275	3378
886.4	3264
886.525	3348
886.65	3329
886.775	3279
886.9	3591
887.025	3679
887.149	3450
887.274	3287
887.399	3207
887.523	3245
887.648	3226
887.773	3245
887.897	3382
888.021	3428
888.146	3325
888.27	3447
888.395	3591
888.519	3450
888.643	3469
888.767	3496
888.891	3313
889.015	3260
889.139	3351
889.263	3317
889.387	3431
889.511	3557
889.635	3504
889.759	3302
889.883	3298
890.006	3435
890.13	3538
890.254	3302
890.377	3382
890.501	3256
890.624	3245
890.748	3325
890.871	3222
890.995	3176
891.118	3108
891.241	3218
891.364	3249
891.488	3359
891.611	3218
891.734	3260
891.857	3348
891.98	3253
892.103	3374
892.226	3317
892.349	3256
892.471	3157
892.594	3264
892.717	3336
892.839	3283
892.962	3332
893.085	3393
893.207	3321
893.33	3203
893.452	3237
893.575	3374
893.697	3310
893.819	3519
893.941	3542
894.064	3504
894.186	3264
894.308	3283
894.43	3492
894.552	3610
894.674	3496
894.796	3294
894.918	3344
895.04	3336
895.161	3435
895.283	3443
895.405	3344
895.526	3420
895.648	3424
895.769	3466
895.891	3469
896.012	3515
896.134	3523
896.255	3466
896.376	3443
896.498	3393
896.619	3488
896.74	3405
896.861	3450
896.982	3698
897.103	3854
897.224	3610
897.345	3576
897.466	3485
897.587	3530
897.708	3652
897.828	3637
897.949	3496
898.07	3325
898.19	3397
898.311	3637
898.431	3477
898.552	3568
898.672	3629
898.792	3587
898.913	3530
899.033	3477
899.153	3310
899.273	3222
899.393	3332
899.513	3363
899.633	3329
899.753	3382
899.873	3378
899.993	3389
900.113	3336
900.232	3439
900.352	3401
900.472	3317
900.591	3237
900.711	3287
900.83	3294
900.95	3454
901.069	3526
901.189	3374
901.308	3233
901.427	3165
901.546	3249
901.665	3325
901.784	3382
901.904	3211
902.023	3173
902.141	3066
902.26	3051
902.379	3199
902.498	3108
902.617	3070
902.735	3241
902.854	3256
902.973	3214
903.091	3097
903.21	3131
903.328	3119
903.446	3123
903.565	3146
903.683	3279
903.801	3188
903.919	3249
904.038	3294
904.156	3192
904.274	3348
904.392	3310
904.51	3348
904.627	3329
904.745	3454
904.863	3572
904.981	3332
905.098	3203
905.216	3283
905.334	3355
905.451	3340
905.569	3317
905.686	3450
905.803	3435
905.921	3313
906.038	3466
906.155	3397
906.272	3268
906.389	3351
906.506	3268
906.623	3291
906.74	3283
906.857	3233
906.974	3279
907.091	3488
907.208	3591
907.324	3496
907.441	3393
907.557	3233
907.674	3294
907.79	3275
907.907	3283
908.023	3386
908.139	3386
908.256	3359
908.372	3386
908.488	3412
908.604	3268
908.72	3268
908.836	3268
908.952	3306
909.068	3367
909.184	3519
909.3	3424
909.415	3511
909.531	3496
909.647	3294
909.762	3298
909.878	3287
909.993	3431
910.108	3321
910.224	3370
910.339	3481
910.454	3389
910.57	3298
910.685	3291
910.8	3618
910.915	3542
911.03	3450
911.145	3340
911.259	3306
911.374	3382
911.489	3245
911.604	3256
911.718	3150
911.833	3180
911.947	3093
912.062	3032
912.176	3211
912.291	3199
912.405	3214
912.519	3462
912.633	3534
912.748	3382
912.862	3310
912.976	3192
913.09	3104
913.204	3184
913.318	3260
913.431	3393
913.545	3348
913.659	3469
913.772	3351
913.886	3253
914	3237
914.113	3397
914.226	3443
914.34	3393
914.453	3249
914.566	3447
914.68	3340
914.793	3340
914.906	3135
915.019	3138
915.132	3093
915.245	3222
915.358	3214
915.47	3260
915.583	3260
915.696	3336
915.809	3458
915.921	3458
916.034	3275
916.146	3306
916.259	3222
916.371	3439
916.483	3370
916.595	3291
916.708	3367
916.82	3340
916.932	3378
917.044	3389
917.156	3355
917.268	3325
917.38	3351
917.491	3329
917.603	3401
917.715	3507
917.826	3496
917.938	3393
918.049	3306
918.161	3454
918.272	3591
918.384	3618
918.495	3515
918.606	3348
918.717	3294
918.828	3428
918.939	3443
919.05	3336
919.161	3367
919.272	3237
919.383	3302
919.494	3519
919.604	3724
919.715	3504
919.826	3405
919.936	3469
920.047	3591
920.157	3580
920.267	3789
920.378	3629
920.488	3637
920.598	3850
920.708	3987
920.818	3846
920.928	3850
921.038	4051
921.148	4051
921.258	3747
921.368	3671
921.477	3629
921.587	3545
921.697	3507
921.806	3663
921.916	3530
922.025	3412
922.134	3409
922.244	3310
922.353	3496
922.462	3279
922.571	3268
922.68	3146
922.789	3077
922.898	3195
923.007	3104
923.116	3237
923.224	3184
923.333	3207
923.442	3089
923.55	3138
923.659	3176
923.767	3218
923.876	3116
923.984	3302
924.092	3161
924.201	3218
924.309	3203
924.417	3279
924.525	3199
924.633	3253
924.741	4261
924.849	3032
924.956	3367
925.064	3135
925.172	3062
925.279	3104
925.387	3199
925.494	3218
925.602	3412
925.709	3374
925.816	3195
925.924	3321
926.031	3428
926.138	3340
926.245	3382
926.352	3287
926.459	3435
926.566	3481
926.673	3340
926.779	3283
926.886	3325
926.993	3199
927.099	3119
927.206	3150
927.312	3150
927.419	3275
927.525	3253
927.631	3272
927.737	3176
927.843	3142
927.95	3028
928.056	3188
928.162	3173
928.267	3275
928.373	3831
928.479	3340
928.585	3081
928.69	3241
928.796	3291
928.901	3176
929.007	3077
929.112	3207
929.218	3203
929.323	3211
929.428	3188
929.533	3386
929.638	3169
929.743	3173
929.848	3283
929.953	3222
930.058	3150
930.163	3043
930.267	3058
930.372	3230
930.477	3058
930.581	3332
930.685	3180
930.79	3085
930.894	3146
930.998	3123
931.103	3287
931.207	2982
931.311	2929
931.415	2956
931.519	2785
931.623	2853
