Data from test_V78500241_1828.txt Node
Date: Fri Mar 25 16:27:52 CST 2022
User: usil
Spectrometer: V785-0024
Trigger mode: 0
Integration Time (sec): 4.000000E-1
Scans to average: 1
Nonlinearity correction enabled: false
Boxcar width: 0
Storing dark spectrum: false
XAxis mode: Wavelengths
Number of Pixels in Spectrum: 1024
>>>>>Begin Spectral Data<<<<<
801.071	2929
801.214	2963
801.356	2864
801.499	2883
801.641	2887
801.783	2925
801.926	3043
802.068	2933
802.211	3005
802.353	3028
802.496	2933
802.638	2994
802.78	3009
802.923	3089
803.065	3001
803.208	2883
803.35	2948
803.492	2895
803.635	2956
803.777	2746
803.919	2853
804.061	3184
804.204	2899
804.346	2902
804.488	2834
804.63	2971
804.773	2891
804.915	2910
805.057	3104
805.199	2910
805.341	2941
805.483	3028
805.626	2982
805.768	2979
805.91	3093
806.052	3112
806.194	3032
806.336	3249
806.478	3024
806.62	2941
806.762	2944
806.904	3074
807.046	3150
807.188	2986
807.33	2883
807.472	3001
807.614	2910
807.756	2971
807.898	2910
808.04	2891
808.182	2956
808.324	2952
808.465	2895
808.607	2861
808.749	2777
808.891	2864
809.033	2948
809.174	2994
809.316	2883
809.458	2872
809.6	2739
809.741	2777
809.883	2781
810.025	2834
810.166	2849
810.308	2857
810.45	2857
810.591	2804
810.733	2769
810.875	2815
811.016	2796
811.158	2781
811.299	2819
811.441	2933
811.582	2906
811.724	2807
811.865	2861
812.007	2887
812.148	2891
812.29	2811
812.431	2864
812.573	2925
812.714	2975
812.855	3001
812.997	3020
813.138	3119
813.279	3032
813.421	2952
813.562	2982
813.703	2895
813.845	2918
813.986	2754
814.127	2754
814.268	2819
814.41	2864
814.551	2826
814.692	2910
814.833	2792
814.974	2883
815.115	2956
815.256	2883
815.397	2796
815.539	2861
815.68	2800
815.821	2826
815.962	2941
816.103	2883
816.244	2887
816.385	2861
816.526	2986
816.666	2918
816.807	2735
816.948	2864
817.089	2906
817.23	2853
817.371	2777
817.512	2781
817.653	2864
817.793	2834
817.934	2857
818.075	2960
818.216	2963
818.356	2994
818.497	2880
818.638	2777
818.778	2796
818.919	2807
819.06	2746
819.2	2857
819.341	2777
819.481	2758
819.622	2929
819.762	3085
819.903	3051
820.043	2906
820.184	2906
820.324	2880
820.465	2998
820.605	2998
820.746	3036
820.886	2933
821.026	3119
821.167	3169
821.307	3268
821.447	3272
821.588	3188
821.728	3211
821.868	3180
822.008	3070
822.149	3173
822.289	3218
822.429	3085
822.569	3081
822.709	3184
822.849	3036
822.99	3055
823.13	3157
823.27	3192
823.41	3093
823.55	3154
823.69	3157
823.83	3222
823.97	3116
824.11	2986
824.25	2998
824.389	3055
824.529	3070
824.669	3055
824.809	3203
824.949	3222
825.089	3214
825.228	3157
825.368	2979
825.508	2929
825.648	2929
825.787	3009
825.927	3005
826.067	2971
826.206	2975
826.346	3032
826.485	3100
826.625	3127
826.765	3294
826.904	3192
827.044	2998
827.183	2963
827.323	2857
827.462	2990
827.601	2918
827.741	2941
827.88	2963
828.02	2872
828.159	2998
828.298	3017
828.437	3108
828.577	3062
828.716	3222
828.855	3055
828.994	2883
829.134	2887
829.273	2891
829.412	2872
829.551	2823
829.69	2887
829.829	2975
829.968	3123
830.107	3032
830.246	3009
830.385	2902
830.524	2880
830.663	2792
830.802	2682
830.941	2598
831.08	2648
831.219	2758
831.357	2762
831.496	2941
831.635	2720
831.774	2590
831.913	2648
832.051	2537
832.19	2556
832.329	2659
832.467	2526
832.606	2461
832.744	2579
832.883	2556
833.022	2575
833.16	2640
833.299	2705
833.437	2708
833.576	2663
833.714	2705
833.852	2735
833.991	2746
834.129	2826
834.267	2838
834.406	2811
834.544	2883
834.682	2826
834.821	2845
834.959	3062
835.097	2910
835.235	3074
835.373	2979
835.511	3039
835.65	2944
835.788	2925
835.926	2830
836.064	2815
836.202	2853
836.34	3047
836.478	3146
836.615	3066
836.753	3142
836.891	3211
837.029	3150
837.167	3116
837.305	3036
837.443	3055
837.58	2941
837.718	3157
837.856	3097
837.993	3039
838.131	3077
838.269	3104
838.406	3085
838.544	3123
838.681	2963
838.819	2929
838.956	2830
839.094	2830
839.231	2895
839.369	2994
839.506	3409
839.643	3214
839.781	3024
839.918	2952
840.055	3039
840.193	3070
840.33	3036
840.467	3119
840.604	3161
840.742	3401
840.879	3047
841.016	3062
841.153	3112
841.29	3302
841.427	3256
841.564	3264
841.701	3329
841.838	3195
841.975	3169
842.112	3211
842.249	3039
842.385	3017
842.522	3233
842.659	3104
842.796	3043
842.933	3112
843.069	3017
843.206	3058
843.343	3192
843.479	3116
843.616	3169
843.752	2891
843.889	2864
844.025	3108
844.162	2864
844.298	3097
844.435	2937
844.571	2929
844.708	3074
844.844	3199
844.98	3241
845.117	3184
845.253	3062
845.389	3013
845.525	3112
845.661	3085
845.798	3032
845.934	3108
846.07	3051
846.206	3237
846.342	3291
846.478	3165
846.614	3108
846.75	3032
846.886	3020
847.022	3203
847.158	3131
847.294	3184
847.429	3260
847.565	3226
847.701	3462
847.837	3039
847.972	2990
848.108	3135
848.244	3123
848.379	2979
848.515	2937
848.65	2922
848.786	2963
848.921	2990
849.057	3051
849.192	3154
849.328	3051
849.463	3142
849.598	3047
849.734	3043
849.869	2986
850.004	2952
850.14	2944
850.275	2925
850.41	2826
850.545	2876
850.68	2933
850.815	2941
850.95	2944
851.085	3165
851.22	3066
851.355	3058
851.49	2967
851.625	2986
851.76	2998
851.895	2937
852.03	2880
852.165	3032
852.299	3112
852.434	3211
852.569	3127
852.703	3154
852.838	3245
852.973	3313
853.107	3283
853.242	3135
853.376	3112
853.511	2967
853.645	3032
853.78	3195
853.914	3135
854.048	3104
854.183	3077
854.317	3154
854.451	3302
854.585	3131
854.72	3055
854.854	3192
854.988	3017
855.122	3097
855.256	2990
855.39	3085
855.524	3184
855.658	3154
855.792	3154
855.926	3230
856.06	3195
856.194	3199
856.327	3138
856.461	3058
856.595	3036
856.729	3097
856.862	3222
856.996	3188
857.13	3199
857.263	3218
857.397	3264
857.53	3127
857.664	3169
857.797	3207
857.931	3226
858.064	3123
858.197	3233
858.331	3150
858.464	3104
858.597	3020
858.731	3108
858.864	3131
858.997	3085
859.13	3150
859.263	3138
859.396	3218
859.529	3066
859.662	3051
859.795	3058
859.928	3127
860.061	3287
860.194	3253
860.327	3150
860.46	3104
860.592	3211
860.725	3256
860.858	3218
860.99	3077
861.123	3077
861.256	3039
861.388	3165
861.521	3819
861.653	3051
861.786	2986
861.918	2998
862.05	3081
862.183	3066
862.315	3165
862.447	3195
862.58	3070
862.712	2979
862.844	2861
862.976	2998
863.108	2982
863.24	3420
863.372	2872
863.504	2960
863.636	2967
863.768	3028
863.9	3001
864.032	2868
864.164	2918
864.296	2967
864.428	3085
864.559	3100
864.691	3036
864.823	3074
864.954	3024
865.086	3036
865.217	2975
865.349	2971
865.48	2956
865.612	3028
865.743	3123
865.875	2979
866.006	2910
866.137	2929
866.269	2956
866.4	2925
866.531	2914
866.662	2872
866.793	2899
866.924	2910
867.055	2925
867.186	2891
867.317	2902
867.448	2826
867.579	2834
867.71	2819
867.841	2823
867.972	2864
868.103	2872
868.233	2883
868.364	2872
868.495	2883
868.625	3097
868.756	3176
868.886	2963
869.017	3051
869.147	3146
869.278	3154
869.408	3036
869.539	2967
869.669	3074
869.799	3009
869.929	3112
870.06	3104
870.19	3310
870.32	3298
870.45	3298
870.58	3393
870.71	3454
870.84	3428
870.97	3279
871.1	3233
871.23	3488
871.36	3454
871.489	3382
871.619	3416
871.749	3382
871.879	3443
872.008	3462
872.138	3348
872.267	3287
872.397	3157
872.526	3085
872.656	3020
872.785	3062
872.915	3253
873.044	3310
873.173	3222
873.303	3253
873.432	3253
873.561	3226
873.69	3169
873.819	3100
873.948	3184
874.077	3089
874.206	3028
874.335	3066
874.464	3233
874.593	3344
874.722	3298
874.851	3359
874.979	3351
875.108	3310
875.237	3176
875.365	3161
875.494	3165
875.623	3268
875.751	3055
875.88	3108
876.008	3173
876.136	3237
876.265	3340
876.393	3485
876.521	3401
876.65	3389
876.778	3294
876.906	3249
877.034	3211
877.162	3233
877.29	3233
877.418	3253
877.546	3226
877.674	3230
877.802	3245
877.93	3245
878.058	3169
878.185	3104
878.313	3184
878.441	3195
878.568	3066
878.696	3116
878.824	3230
878.951	3321
879.079	3447
879.206	3629
879.333	3424
879.461	3340
879.588	3359
879.715	3469
879.842	3603
879.97	3382
880.097	3154
880.224	3157
880.351	3176
880.478	3195
880.605	3165
880.732	3203
880.859	3466
880.986	3313
881.112	3336
881.239	3233
881.366	3150
881.493	3020
881.619	3032
881.746	3074
881.872	3100
881.999	3062
882.125	3150
882.252	3233
882.378	3294
882.505	3412
882.631	3310
882.757	3112
882.883	3230
883.01	3218
883.136	3176
883.262	3116
883.388	3138
883.514	3260
883.64	3370
883.766	3306
883.892	3169
884.018	3245
884.143	3443
884.269	3523
884.395	3199
884.52	3157
884.646	3211
884.772	3142
884.897	3119
885.023	3176
885.148	3325
885.274	3389
885.399	3367
885.524	3298
885.65	3268
885.775	3344
885.9	3268
886.025	3386
886.15	3359
886.275	3302
886.4	3222
886.525	3310
886.65	3253
886.775	3268
886.9	3447
887.025	3652
887.149	3389
887.274	3233
887.399	3173
887.523	3222
887.648	3169
887.773	3150
887.897	3393
888.021	3370
888.146	3294
888.27	3393
888.395	3534
888.519	3393
888.643	3431
888.767	3496
888.891	3332
889.015	3180
889.139	3298
889.263	3272
889.387	3405
889.511	3519
889.635	3378
889.759	3253
889.883	3298
890.006	3382
890.13	3500
890.254	3268
890.377	3336
890.501	3188
890.624	3203
890.748	3325
890.871	3173
890.995	3074
891.118	3066
891.241	3169
891.364	3222
891.488	3340
891.611	3180
891.734	3253
891.857	3249
891.98	3264
892.103	3359
892.226	3306
892.349	3180
892.471	3112
892.594	3230
892.717	3298
892.839	3253
892.962	3325
893.085	3405
893.207	3317
893.33	3108
893.452	3214
893.575	3344
893.697	3218
893.819	3428
893.941	3526
894.064	3458
894.186	3298
894.308	3256
894.43	3435
894.552	3523
894.674	3473
894.796	3287
894.918	3287
895.04	3310
895.161	3409
895.283	3397
895.405	3306
895.526	3325
895.648	3431
895.769	3420
895.891	3469
896.012	3519
896.134	3450
896.255	3431
896.376	3363
896.498	3310
896.619	3412
896.74	3348
896.861	3382
896.982	3690
897.103	3876
897.224	3564
897.345	3519
897.466	3409
897.587	3473
897.708	3644
897.828	3545
897.949	3439
898.07	3313
898.19	3420
898.311	3549
898.431	3439
898.552	3477
898.672	3606
898.792	3603
898.913	3526
899.033	3382
899.153	3275
899.273	3211
899.393	3256
899.513	3306
899.633	3294
899.753	3355
899.873	3313
899.993	3405
900.113	3340
900.232	3389
900.352	3310
900.472	3275
900.591	3203
900.711	3287
900.83	3264
900.95	3416
901.069	3469
901.189	3344
901.308	3192
901.427	3135
901.546	3161
901.665	3313
901.784	3332
901.904	3226
902.023	3108
902.141	3020
902.26	2971
902.379	3131
902.498	3077
902.617	3028
902.735	3199
902.854	3260
902.973	3188
903.091	3074
903.21	3116
903.328	3157
903.446	3074
903.565	3043
903.683	3199
903.801	3131
903.919	3249
904.038	3264
904.156	3169
904.274	3268
904.392	3253
904.51	3283
904.627	3329
904.745	3401
904.863	3492
904.981	3241
905.098	3146
905.216	3222
905.334	3306
905.451	3275
905.569	3302
905.686	3386
905.803	3409
905.921	3291
906.038	3420
906.155	3332
906.272	3241
906.389	3313
906.506	3195
906.623	3272
906.74	3272
906.857	3169
906.974	3218
907.091	3443
907.208	3595
907.324	3462
907.441	3367
907.557	3218
907.674	3241
907.79	3199
907.907	3313
908.023	3363
908.139	3370
908.256	3283
908.372	3344
908.488	3374
908.604	3275
908.72	3268
908.836	3268
908.952	3287
909.068	3359
909.184	3481
909.3	3370
909.415	3515
909.531	3447
909.647	3313
909.762	3287
909.878	3249
909.993	3332
910.108	3321
910.224	3310
910.339	3416
910.454	3317
910.57	3283
910.685	3245
910.8	3572
910.915	3504
911.03	3405
911.145	3260
911.259	3256
911.374	3294
911.489	3218
911.604	3222
911.718	3097
911.833	3154
911.947	3017
912.062	2998
912.176	3165
912.291	3165
912.405	3195
912.519	3405
912.633	3431
912.748	3332
912.862	3272
912.976	3157
913.09	3051
913.204	3116
913.318	3184
913.431	3321
913.545	3340
913.659	3409
913.772	3351
913.886	3218
914	3214
914.113	3344
914.226	3393
914.34	3344
914.453	3249
914.566	3412
914.68	3302
914.793	3272
914.906	3112
915.019	3085
915.132	3051
915.245	3165
915.358	3199
915.47	3275
915.583	3260
915.696	3268
915.809	3393
915.921	3416
916.034	3275
916.146	3245
916.259	3199
916.371	3389
916.483	3374
916.595	3245
916.708	3329
916.82	3325
916.932	3264
917.044	3359
917.156	3332
917.268	3245
917.38	3340
917.491	3291
917.603	3386
917.715	3428
917.826	3473
917.938	3363
918.049	3249
918.161	3431
918.272	3587
918.384	3523
918.495	3477
918.606	3332
918.717	3287
918.828	3363
918.939	3393
919.05	3291
919.161	3378
919.272	3218
919.383	3294
919.494	3485
919.604	3698
919.715	3492
919.826	3401
919.936	3469
920.047	3553
920.157	3515
920.267	3778
920.378	3606
920.488	3523
920.598	3770
920.708	3899
920.818	3854
920.928	3831
921.038	4051
921.148	3998
921.258	3686
921.368	3564
921.477	3595
921.587	3534
921.697	3431
921.806	3633
921.916	3488
922.025	3359
922.134	3348
922.244	3294
922.353	3450
922.462	3260
922.571	3253
922.68	3127
922.789	3089
922.898	3104
923.007	3093
923.116	3211
923.224	3173
923.333	3169
923.442	3074
923.55	3058
923.659	3127
923.767	3222
923.876	3100
923.984	3207
924.092	3112
924.201	3180
924.309	3222
924.417	3241
924.525	3222
924.633	3233
924.741	4169
924.849	3013
924.956	3268
925.064	3100
925.172	3081
925.279	3131
925.387	3180
925.494	3184
925.602	3363
925.709	3325
925.816	3146
925.924	3275
926.031	3393
926.138	3351
926.245	3348
926.352	3230
926.459	3428
926.566	3443
926.673	3359
926.779	3233
926.886	3218
926.993	3138
927.099	3123
927.206	3127
927.312	3116
927.419	3241
927.525	3211
927.631	3275
927.737	3154
927.843	3108
927.95	3043
928.056	3127
928.162	3180
928.267	3203
928.373	3728
928.479	3291
928.585	3062
928.69	3188
928.796	3249
928.901	3173
929.007	3047
929.112	3214
929.218	3165
929.323	3131
929.428	3142
929.533	3351
929.638	3146
929.743	3195
929.848	3237
929.953	3214
930.058	3146
930.163	2990
930.267	3039
930.372	3161
930.477	3070
930.581	3294
930.685	3161
930.79	3055
930.894	3142
930.998	3108
931.103	3283
931.207	2956
931.311	2971
931.415	2933
931.519	2773
931.623	2815
