Data from test_V78500241_431.txt Node
Date: Fri Mar 25 16:18:11 CST 2022
User: usil
Spectrometer: V785-0024
Trigger mode: 0
Integration Time (sec): 4.000000E-1
Scans to average: 1
Nonlinearity correction enabled: false
Boxcar width: 0
Storing dark spectrum: false
XAxis mode: Wavelengths
Number of Pixels in Spectrum: 1024
>>>>>Begin Spectral Data<<<<<
801.071	2902
801.214	2948
801.356	2887
801.499	2910
801.641	2861
801.783	2922
801.926	3009
802.068	2956
802.211	3001
802.353	3024
802.496	2922
802.638	3005
802.78	3043
802.923	3108
803.065	2979
803.208	2902
803.35	2914
803.492	2925
803.635	2929
803.777	2743
803.919	2864
804.061	3188
804.204	2979
804.346	2925
804.488	2819
804.63	2979
804.773	2849
804.915	2941
805.057	3077
805.199	2918
805.341	2941
805.483	3058
805.626	2998
805.768	2986
805.91	3085
806.052	3135
806.194	3032
806.336	3264
806.478	3024
806.62	2910
806.762	2971
806.904	3051
807.046	3169
807.188	2982
807.33	2899
807.472	2994
807.614	2899
807.756	2948
807.898	2906
808.04	2902
808.182	3005
808.324	2979
808.465	2880
808.607	2849
808.749	2800
808.891	2807
809.033	2982
809.174	2994
809.316	2883
809.458	2864
809.6	2735
809.741	2785
809.883	2777
810.025	2861
810.166	2834
810.308	2845
810.45	2880
810.591	2773
810.733	2758
810.875	2800
811.016	2727
811.158	2769
811.299	2834
811.441	2914
811.582	2929
811.724	2834
811.865	2804
812.007	2891
812.148	2845
812.29	2830
812.431	2906
812.573	2922
812.714	2937
812.855	3017
812.997	3085
813.138	3074
813.279	3001
813.421	2998
813.562	2944
813.703	2861
813.845	2857
813.986	2766
814.127	2754
814.268	2807
814.41	2849
814.551	2811
814.692	2868
814.833	2792
814.974	2857
815.115	2956
815.256	2800
815.397	2788
815.539	2857
815.68	2792
815.821	2804
815.962	2941
816.103	2922
816.244	2838
816.385	2880
816.526	2960
816.666	2910
816.807	2769
816.948	2910
817.089	2872
817.23	2868
817.371	2766
817.512	2796
817.653	2815
817.793	2792
817.934	2864
818.075	2998
818.216	2982
818.356	3028
818.497	2842
818.638	2819
818.778	2842
818.919	2800
819.06	2766
819.2	2864
819.341	2792
819.481	2769
819.622	2941
819.762	3081
819.903	3028
820.043	2937
820.184	2876
820.324	2910
820.465	2994
820.605	2998
820.746	3017
820.886	2956
821.026	3108
821.167	3169
821.307	3283
821.447	3291
821.588	3237
821.728	3214
821.868	3188
822.008	3043
822.149	3157
822.289	3199
822.429	3074
822.569	3077
822.709	3135
822.849	3013
822.99	3055
823.13	3138
823.27	3161
823.41	3058
823.55	3112
823.69	3138
823.83	3207
823.97	3093
824.11	2986
824.25	2979
824.389	3077
824.529	3131
824.669	3051
824.809	3222
824.949	3214
825.089	3245
825.228	3203
825.368	3047
825.508	2975
825.648	2975
825.787	3028
825.927	3013
826.067	2982
826.206	2960
826.346	3001
826.485	3093
826.625	3074
826.765	3249
826.904	3207
827.044	2982
827.183	2933
827.323	2895
827.462	2998
827.601	2906
827.741	2933
827.88	2967
828.02	2857
828.159	2960
828.298	3062
828.437	3146
828.577	3047
828.716	3226
828.855	3089
828.994	2929
829.134	2842
829.273	2895
829.412	2838
829.551	2842
829.69	2861
829.829	2963
829.968	3089
830.107	3013
830.246	3024
830.385	2910
830.524	2880
830.663	2807
830.802	2724
830.941	2640
831.08	2659
831.219	2743
831.357	2743
831.496	2967
831.635	2689
831.774	2655
831.913	2667
832.051	2514
832.19	2590
832.329	2663
832.467	2537
832.606	2461
832.744	2598
832.883	2568
833.022	2575
833.16	2663
833.299	2678
833.437	2667
833.576	2670
833.714	2720
833.852	2758
833.991	2750
834.129	2857
834.267	2830
834.406	2766
834.544	2845
834.682	2861
834.821	2872
834.959	3093
835.097	2864
835.235	3039
835.373	3020
835.511	2982
835.65	2948
835.788	2922
835.926	2830
836.064	2785
836.202	2830
836.34	3116
836.478	3123
836.615	3020
836.753	3150
836.891	3184
837.029	3138
837.167	3093
837.305	3024
837.443	3028
837.58	2960
837.718	3131
837.856	3039
837.993	3055
838.131	3100
838.269	3104
838.406	3066
838.544	3077
838.681	2902
838.819	2918
838.956	2807
839.094	2849
839.231	2895
839.369	3013
839.506	3363
839.643	3192
839.781	2971
839.918	2948
840.055	3070
840.193	3013
840.33	3055
840.467	3081
840.604	3142
840.742	3382
840.879	3043
841.016	3005
841.153	3112
841.29	3298
841.427	3351
841.564	3226
841.701	3283
841.838	3192
841.975	3176
842.112	3184
842.249	3047
842.385	3032
842.522	3279
842.659	3077
842.796	3074
842.933	3119
843.069	3062
843.206	3032
843.343	3180
843.479	3112
843.616	3131
843.752	2910
843.889	2868
844.025	3074
844.162	2876
844.298	3043
844.435	2952
844.571	2895
844.708	3051
844.844	3173
844.98	3222
845.117	3195
845.253	3051
845.389	3005
845.525	3104
845.661	3062
845.798	3024
845.934	3104
846.07	3081
846.206	3188
846.342	3268
846.478	3241
846.614	3074
846.75	3085
846.886	2986
847.022	3245
847.158	3131
847.294	3195
847.429	3237
847.565	3218
847.701	3481
847.837	3024
847.972	2990
848.108	3142
848.244	3142
848.379	2994
848.515	2933
848.65	2941
848.786	2975
848.921	2982
849.057	3104
849.192	3157
849.328	3036
849.463	3051
849.598	3058
849.734	3036
849.869	2952
850.004	2918
850.14	2971
850.275	2891
850.41	2819
850.545	2880
850.68	2933
850.815	2941
850.95	2952
851.085	3203
851.22	3081
851.355	3017
851.49	2952
851.625	2971
851.76	2960
851.895	2929
852.03	2872
852.165	3062
852.299	3097
852.434	3142
852.569	3161
852.703	3195
852.838	3249
852.973	3355
853.107	3363
853.242	3146
853.376	3108
853.511	2982
853.645	3066
853.78	3192
853.914	3138
854.048	3108
854.183	3047
854.317	3150
854.451	3287
854.585	3123
854.72	3108
854.854	3184
854.988	3055
855.122	3089
855.256	2941
855.39	3081
855.524	3241
855.658	3161
855.792	3150
855.926	3192
856.06	3260
856.194	3233
856.327	3180
856.461	3051
856.595	3081
856.729	3097
856.862	3203
856.996	3154
857.13	3207
857.263	3226
857.397	3264
857.53	3104
857.664	3195
857.797	3249
857.931	3241
858.064	3142
858.197	3214
858.331	3150
858.464	3093
858.597	2971
858.731	3127
858.864	3135
858.997	3104
859.13	3165
859.263	3173
859.396	3176
859.529	3062
859.662	3051
859.795	3020
859.928	3154
860.061	3298
860.194	3268
860.327	3100
860.46	3089
860.592	3226
860.725	3222
860.858	3237
860.99	3097
861.123	3077
861.256	3058
861.388	3116
861.521	3934
861.653	2990
861.786	2963
861.918	2990
862.05	3081
862.183	3116
862.315	3165
862.447	3199
862.58	3093
862.712	2960
862.844	2872
862.976	3020
863.108	3001
863.24	3401
863.372	2868
863.504	2967
863.636	2925
863.768	3017
863.9	2982
864.032	2933
864.164	2948
864.296	3013
864.428	3085
864.559	3097
864.691	3047
864.823	3032
864.954	3028
865.086	3017
865.217	2960
865.349	2956
865.48	2956
865.612	3028
865.743	3150
865.875	2975
866.006	2990
866.137	2963
866.269	2971
866.4	2925
866.531	2918
866.662	2876
866.793	2918
866.924	2887
867.055	2975
867.186	2922
867.317	2857
867.448	2853
867.579	2849
867.71	2842
867.841	2819
867.972	2902
868.103	2941
868.233	2872
868.364	2872
868.495	2914
868.625	3047
868.756	3142
868.886	2963
869.017	3036
869.147	3146
869.278	3188
869.408	3074
869.539	3024
869.669	3077
869.799	3047
869.929	3089
870.06	3093
870.19	3329
870.32	3268
870.45	3279
870.58	3378
870.71	3420
870.84	3428
870.97	3264
871.1	3218
871.23	3447
871.36	3412
871.489	3336
871.619	3409
871.749	3397
871.879	3405
872.008	3496
872.138	3351
872.267	3268
872.397	3131
872.526	3146
872.656	2986
872.785	3097
872.915	3226
873.044	3294
873.173	3195
873.303	3199
873.432	3192
873.561	3253
873.69	3176
873.819	3104
873.948	3184
874.077	3089
874.206	3024
874.335	3127
874.464	3222
874.593	3348
874.722	3199
874.851	3378
874.979	3329
875.108	3310
875.237	3260
875.365	3180
875.494	3165
875.623	3256
875.751	3089
875.88	3104
876.008	3188
876.136	3207
876.265	3359
876.393	3515
876.521	3416
876.65	3363
876.778	3325
876.906	3226
877.034	3176
877.162	3195
877.29	3173
877.418	3256
877.546	3218
877.674	3264
877.802	3256
877.93	3233
878.058	3138
878.185	3119
878.313	3226
878.441	3211
878.568	3070
878.696	3123
878.824	3214
878.951	3291
879.079	3397
879.206	3603
879.333	3424
879.461	3317
879.588	3374
879.715	3447
879.842	3553
879.97	3355
880.097	3131
880.224	3131
880.351	3150
880.478	3222
880.605	3233
880.732	3199
880.859	3488
880.986	3321
881.112	3344
881.239	3241
881.366	3058
881.493	3017
881.619	3047
881.746	3024
881.872	3047
881.999	3081
882.125	3146
882.252	3241
882.378	3302
882.505	3420
882.631	3272
882.757	3123
882.883	3203
883.01	3237
883.136	3180
883.262	3055
883.388	3093
883.514	3329
883.64	3351
883.766	3287
883.892	3180
884.018	3249
884.143	3412
884.269	3504
884.395	3226
884.52	3176
884.646	3184
884.772	3123
884.897	3093
885.023	3192
885.148	3325
885.274	3424
885.399	3355
885.524	3287
885.65	3275
885.775	3321
885.9	3279
886.025	3405
886.15	3367
886.275	3306
886.4	3249
886.525	3291
886.65	3279
886.775	3279
886.9	3462
887.025	3603
887.149	3412
887.274	3253
887.399	3157
887.523	3207
887.648	3195
887.773	3184
887.897	3359
888.021	3428
888.146	3291
888.27	3382
888.395	3523
888.519	3424
888.643	3428
888.767	3428
888.891	3329
889.015	3233
889.139	3287
889.263	3226
889.387	3378
889.511	3500
889.635	3443
889.759	3272
889.883	3310
890.006	3317
890.13	3492
890.254	3321
890.377	3325
890.501	3188
890.624	3192
890.748	3336
890.871	3173
890.995	3070
891.118	3028
891.241	3176
891.364	3222
891.488	3268
891.611	3165
891.734	3199
891.857	3268
891.98	3245
892.103	3351
892.226	3275
892.349	3211
892.471	3108
892.594	3218
892.717	3253
892.839	3245
892.962	3253
893.085	3332
893.207	3321
893.33	3142
893.452	3165
893.575	3351
893.697	3260
893.819	3485
893.941	3492
894.064	3428
894.186	3245
894.308	3237
894.43	3435
894.552	3549
894.674	3443
894.796	3298
894.918	3291
895.04	3256
895.161	3409
895.283	3363
895.405	3294
895.526	3340
895.648	3420
895.769	3412
895.891	3469
896.012	3435
896.134	3477
896.255	3428
896.376	3344
896.498	3359
896.619	3424
896.74	3325
896.861	3416
896.982	3679
897.103	3831
897.224	3580
897.345	3485
897.466	3443
897.587	3500
897.708	3603
897.828	3523
897.949	3401
898.07	3317
898.19	3416
898.311	3549
898.431	3397
898.552	3515
898.672	3568
898.792	3553
898.913	3488
899.033	3370
899.153	3279
899.273	3188
899.393	3275
899.513	3294
899.633	3275
899.753	3313
899.873	3310
899.993	3336
900.113	3313
900.232	3374
900.352	3351
900.472	3279
900.591	3203
900.711	3272
900.83	3195
900.95	3405
901.069	3469
901.189	3317
901.308	3176
901.427	3138
901.546	3176
901.665	3268
901.784	3294
901.904	3184
902.023	3131
902.141	3032
902.26	2982
902.379	3093
902.498	3047
902.617	3058
902.735	3214
902.854	3207
902.973	3184
903.091	3062
903.21	3055
903.328	3108
903.446	3093
903.565	3104
903.683	3195
903.801	3154
903.919	3253
904.038	3298
904.156	3169
904.274	3317
904.392	3291
904.51	3336
904.627	3340
904.745	3443
904.863	3485
904.981	3317
905.098	3180
905.216	3268
905.334	3294
905.451	3325
905.569	3355
905.686	3462
905.803	3477
905.921	3306
906.038	3435
906.155	3409
906.272	3317
906.389	3351
906.506	3272
906.623	3291
906.74	3287
906.857	3226
906.974	3298
907.091	3481
907.208	3595
907.324	3507
907.441	3443
907.557	3283
907.674	3298
907.79	3256
907.907	3325
908.023	3386
908.139	3389
908.256	3389
908.372	3428
908.488	3420
908.604	3298
908.72	3264
908.836	3340
908.952	3302
909.068	3359
909.184	3545
909.3	3428
909.415	3553
909.531	3492
909.647	3310
909.762	3287
909.878	3302
909.993	3424
910.108	3397
910.224	3389
910.339	3420
910.454	3382
910.57	3344
910.685	3279
910.8	3629
910.915	3568
911.03	3458
911.145	3283
911.259	3313
911.374	3329
911.489	3302
911.604	3275
911.718	3184
911.833	3180
911.947	3085
912.062	3009
912.176	3203
912.291	3245
912.405	3245
912.519	3496
912.633	3500
912.748	3378
912.862	3348
912.976	3161
913.09	3058
913.204	3180
913.318	3237
913.431	3367
913.545	3359
913.659	3447
913.772	3329
913.886	3253
914	3199
914.113	3409
914.226	3469
914.34	3450
914.453	3268
914.566	3439
914.68	3317
914.793	3313
914.906	3165
915.019	3135
915.132	3085
915.245	3207
915.358	3222
915.47	3279
915.583	3279
915.696	3332
915.809	3450
915.921	3469
916.034	3313
916.146	3344
916.259	3268
916.371	3397
916.483	3359
916.595	3306
916.708	3359
916.82	3382
916.932	3367
917.044	3412
917.156	3370
917.268	3302
917.38	3336
917.491	3367
917.603	3382
917.715	3485
917.826	3488
917.938	3386
918.049	3306
918.161	3458
918.272	3576
918.384	3614
918.495	3485
918.606	3329
918.717	3325
918.828	3401
918.939	3447
919.05	3351
919.161	3386
919.272	3214
919.383	3313
919.494	3519
919.604	3713
919.715	3538
919.826	3424
919.936	3496
920.047	3641
920.157	3595
920.267	3759
920.378	3633
920.488	3576
920.598	3778
920.708	3998
920.818	3797
920.928	3876
921.038	4071
921.148	3991
921.258	3690
921.368	3675
921.477	3622
921.587	3526
921.697	3504
921.806	3679
921.916	3557
922.025	3382
922.134	3420
922.244	3367
922.353	3469
922.462	3329
922.571	3256
922.68	3161
922.789	3119
922.898	3169
923.007	3081
923.116	3253
923.224	3176
923.333	3230
923.442	3104
923.55	3127
923.659	3214
923.767	3256
923.876	3150
923.984	3264
924.092	3123
924.201	3199
924.309	3253
924.417	3283
924.525	3233
924.633	3275
924.741	4215
924.849	3089
924.956	3291
925.064	3123
925.172	3085
925.279	3161
925.387	3279
925.494	3230
925.602	3393
925.709	3355
925.816	3237
925.924	3302
926.031	3386
926.138	3389
926.245	3393
926.352	3268
926.459	3405
926.566	3469
926.673	3359
926.779	3249
926.886	3291
926.993	3161
927.099	3142
927.206	3150
927.312	3165
927.419	3256
927.525	3211
927.631	3332
927.737	3180
927.843	3142
927.95	3047
928.056	3161
928.162	3222
928.267	3302
928.373	3926
928.479	3313
928.585	3119
928.69	3272
928.796	3332
928.901	3195
929.007	3066
929.112	3218
929.218	3222
929.323	3195
929.428	3180
929.533	3382
929.638	3161
929.743	3207
929.848	3275
929.953	3214
930.058	3165
930.163	3001
930.267	3062
930.372	3218
930.477	3055
930.581	3321
930.685	3214
930.79	3043
930.894	3188
930.998	3108
931.103	3287
931.207	2975
931.311	2986
931.415	2971
931.519	2800
931.623	2849
