Data from test_V78500241_55.txt Node
Date: Fri Mar 25 16:15:35 CST 2022
User: usil
Spectrometer: V785-0024
Trigger mode: 0
Integration Time (sec): 4.000000E-1
Scans to average: 1
Nonlinearity correction enabled: false
Boxcar width: 0
Storing dark spectrum: false
XAxis mode: Wavelengths
Number of Pixels in Spectrum: 1024
>>>>>Begin Spectral Data<<<<<
801.071	2960
801.214	3017
801.356	2918
801.499	2948
801.641	2922
801.783	2948
801.926	3077
802.068	3017
802.211	3009
802.353	3032
802.496	2982
802.638	3032
802.78	3066
802.923	3142
803.065	3051
803.208	2941
803.35	2971
803.492	2986
803.635	2975
803.777	2781
803.919	2910
804.061	3222
804.204	2990
804.346	2948
804.488	2861
804.63	3013
804.773	2906
804.915	2925
805.057	3116
805.199	2937
805.341	2971
805.483	3097
805.626	3032
805.768	2990
805.91	3104
806.052	3142
806.194	3081
806.336	3294
806.478	3043
806.62	2971
806.762	2971
806.904	3112
807.046	3230
807.188	2979
807.33	2948
807.472	3024
807.614	2925
807.756	3024
807.898	2994
808.04	2941
808.182	2979
808.324	2990
808.465	2899
808.607	2895
808.749	2823
808.891	2868
809.033	3028
809.174	3017
809.316	2960
809.458	2929
809.6	2807
809.741	2773
809.883	2762
810.025	2883
810.166	2853
810.308	2872
810.45	2887
810.591	2800
810.733	2804
810.875	2872
811.016	2796
811.158	2750
811.299	2853
811.441	2933
811.582	2944
811.724	2838
811.865	2887
812.007	2963
812.148	2914
812.29	2906
812.431	2899
812.573	2982
812.714	3001
812.855	3097
812.997	3112
813.138	3146
813.279	3043
813.421	3020
813.562	2982
813.703	2902
813.845	2941
813.986	2834
814.127	2762
814.268	2838
814.41	2899
814.551	2842
814.692	2899
814.833	2838
814.974	2899
815.115	2979
815.256	2895
815.397	2861
815.539	2899
815.68	2834
815.821	2792
815.962	2937
816.103	2944
816.244	2883
816.385	2891
816.526	2986
816.666	2975
816.807	2750
816.948	2902
817.089	2891
817.23	2887
817.371	2819
817.512	2830
817.653	2872
817.793	2842
817.934	2914
818.075	2982
818.216	3013
818.356	3020
818.497	2918
818.638	2811
818.778	2830
818.919	2842
819.06	2777
819.2	2918
819.341	2815
819.481	2819
819.622	2941
819.762	3104
819.903	3074
820.043	2963
820.184	2902
820.324	2967
820.465	3062
820.605	3062
820.746	3093
820.886	2952
821.026	3112
821.167	3203
821.307	3317
821.447	3332
821.588	3272
821.728	3253
821.868	3203
822.008	3100
822.149	3233
822.289	3268
822.429	3150
822.569	3119
822.709	3226
822.849	3085
822.99	3127
823.13	3195
823.27	3268
823.41	3154
823.55	3184
823.69	3184
823.83	3260
823.97	3127
824.11	3047
824.25	3024
824.389	3112
824.529	3138
824.669	3112
824.809	3211
824.949	3287
825.089	3237
825.228	3211
825.368	3043
825.508	3013
825.648	3001
825.787	3077
825.927	3020
826.067	3024
826.206	3020
826.346	3051
826.485	3085
826.625	3150
826.765	3287
826.904	3230
827.044	3051
827.183	2906
827.323	2933
827.462	3017
827.601	2967
827.741	2944
827.88	2986
828.02	2899
828.159	2990
828.298	3074
828.437	3173
828.577	3081
828.716	3310
828.855	3097
828.994	2952
829.134	2937
829.273	2998
829.412	2914
829.551	2891
829.69	2941
829.829	3036
829.968	3180
830.107	3047
830.246	3039
830.385	2948
830.524	2883
830.663	2849
830.802	2781
830.941	2667
831.08	2682
831.219	2788
831.357	2792
831.496	2948
831.635	2762
831.774	2659
831.913	2693
832.051	2556
832.19	2621
832.329	2735
832.467	2575
832.606	2530
832.744	2587
832.883	2644
833.022	2636
833.16	2674
833.299	2754
833.437	2720
833.576	2712
833.714	2739
833.852	2758
833.991	2769
834.129	2864
834.267	2838
834.406	2842
834.544	2899
834.682	2910
834.821	2891
834.959	3093
835.097	2922
835.235	3085
835.373	3043
835.511	3097
835.65	3001
835.788	2963
835.926	2845
836.064	2853
836.202	2899
836.34	3127
836.478	3207
836.615	3112
836.753	3176
836.891	3214
837.029	3211
837.167	3123
837.305	3119
837.443	3089
837.58	3009
837.718	3119
837.856	3112
837.993	3051
838.131	3146
838.269	3131
838.406	3157
838.544	3081
838.681	2960
838.819	2899
838.956	2849
839.094	2883
839.231	2971
839.369	3062
839.506	3382
839.643	3230
839.781	3043
839.918	3005
840.055	3062
840.193	3085
840.33	3097
840.467	3150
840.604	3157
840.742	3454
840.879	3081
841.016	3123
841.153	3131
841.29	3332
841.427	3332
841.564	3317
841.701	3344
841.838	3233
841.975	3241
842.112	3272
842.249	3100
842.385	3058
842.522	3329
842.659	3135
842.796	3085
842.933	3123
843.069	3066
843.206	3039
843.343	3253
843.479	3116
843.616	3173
843.752	2944
843.889	2880
844.025	3112
844.162	2891
844.298	3100
844.435	2933
844.571	2948
844.708	3100
844.844	3233
844.98	3279
845.117	3253
845.253	3074
845.389	3013
845.525	3138
845.661	3146
845.798	3066
845.934	3157
846.07	3108
846.206	3253
846.342	3336
846.478	3241
846.614	3142
846.75	3077
846.886	3055
847.022	3256
847.158	3192
847.294	3218
847.429	3268
847.565	3222
847.701	3545
847.837	3024
847.972	3047
848.108	3203
848.244	3169
848.379	3013
848.515	2963
848.65	2941
848.786	2979
848.921	2979
849.057	3116
849.192	3157
849.328	3127
849.463	3104
849.598	3097
849.734	3062
849.869	3001
850.004	2944
850.14	2948
850.275	2956
850.41	2876
850.545	2941
850.68	2948
850.815	2979
850.95	3001
851.085	3211
851.22	3150
851.355	3047
851.49	3028
851.625	3009
851.76	3024
851.895	2982
852.03	2952
852.165	3074
852.299	3142
852.434	3226
852.569	3146
852.703	3207
852.838	3279
852.973	3355
853.107	3317
853.242	3195
853.376	3097
853.511	3028
853.645	3066
853.78	3253
853.914	3161
854.048	3142
854.183	3119
854.317	3218
854.451	3325
854.585	3142
854.72	3127
854.854	3272
854.988	3135
855.122	3146
855.256	2990
855.39	3157
855.524	3264
855.658	3233
855.792	3180
855.926	3237
856.06	3233
856.194	3294
856.327	3161
856.461	3085
856.595	3097
856.729	3119
856.862	3249
856.996	3237
857.13	3245
857.263	3283
857.397	3287
857.53	3188
857.664	3245
857.797	3272
857.931	3264
858.064	3188
858.197	3275
858.331	3142
858.464	3131
858.597	3043
858.731	3138
858.864	3135
858.997	3142
859.13	3173
859.263	3214
859.396	3233
859.529	3066
859.662	3104
859.795	3097
859.928	3161
860.061	3313
860.194	3321
860.327	3169
860.46	3119
860.592	3272
860.725	3298
860.858	3283
860.99	3142
861.123	3089
861.256	3104
861.388	3203
861.521	3915
861.653	3047
861.786	3001
861.918	3070
862.05	3055
862.183	3112
862.315	3195
862.447	3218
862.58	3089
862.712	2990
862.844	2918
862.976	3066
863.108	3051
863.24	3348
863.372	2910
863.504	2982
863.636	2967
863.768	3077
863.9	2998
864.032	2941
864.164	3005
864.296	3032
864.428	3104
864.559	3116
864.691	3112
864.823	3135
864.954	3085
865.086	3070
865.217	3051
865.349	2937
865.48	2990
865.612	3097
865.743	3203
865.875	3039
866.006	2998
866.137	3028
866.269	3028
866.4	2982
866.531	2975
866.662	2918
866.793	2944
866.924	2887
867.055	2971
867.186	2963
867.317	2910
867.448	2883
867.579	2857
867.71	2891
867.841	2834
867.972	2941
868.103	2967
868.233	2929
868.364	2914
868.495	2944
868.625	3093
868.756	3165
868.886	2990
869.017	3097
869.147	3207
869.278	3226
869.408	3077
869.539	3055
869.669	3135
869.799	3070
869.929	3184
870.06	3135
870.19	3393
870.32	3279
870.45	3329
870.58	3447
870.71	3511
870.84	3492
870.97	3344
871.1	3268
871.23	3496
871.36	3481
871.489	3412
871.619	3431
871.749	3443
871.879	3473
872.008	3538
872.138	3397
872.267	3336
872.397	3199
872.526	3123
872.656	3028
872.785	3127
872.915	3226
873.044	3359
873.173	3233
873.303	3245
873.432	3253
873.561	3241
873.69	3211
873.819	3176
873.948	3230
874.077	3135
874.206	3085
874.335	3131
874.464	3195
874.593	3370
874.722	3294
874.851	3443
874.979	3370
875.108	3367
875.237	3218
875.365	3218
875.494	3214
875.623	3275
875.751	3123
875.88	3173
876.008	3249
876.136	3253
876.265	3412
876.393	3534
876.521	3450
876.65	3443
876.778	3389
876.906	3272
877.034	3249
877.162	3298
877.29	3195
877.418	3298
877.546	3275
877.674	3321
877.802	3241
877.93	3260
878.058	3188
878.185	3138
878.313	3192
878.441	3264
878.568	3070
878.696	3169
878.824	3253
878.951	3306
879.079	3481
879.206	3663
879.333	3485
879.461	3416
879.588	3405
879.715	3515
879.842	3618
879.97	3428
880.097	3195
880.224	3119
880.351	3249
880.478	3256
880.605	3192
880.732	3241
880.859	3545
880.986	3325
881.112	3359
881.239	3237
881.366	3127
881.493	3093
881.619	3032
881.746	3104
881.872	3116
881.999	3146
882.125	3192
882.252	3287
882.378	3306
882.505	3488
882.631	3287
882.757	3222
882.883	3249
883.01	3222
883.136	3203
883.262	3165
883.388	3135
883.514	3348
883.64	3454
883.766	3363
883.892	3279
884.018	3260
884.143	3428
884.269	3564
884.395	3245
884.52	3195
884.646	3207
884.772	3138
884.897	3138
885.023	3260
885.148	3348
885.274	3454
885.399	3435
885.524	3329
885.65	3268
885.775	3336
885.9	3336
886.025	3485
886.15	3420
886.275	3344
886.4	3279
886.525	3325
886.65	3321
886.775	3329
886.9	3534
887.025	3705
887.149	3397
887.274	3302
887.399	3211
887.523	3241
887.648	3245
887.773	3249
887.897	3424
888.021	3420
888.146	3336
888.27	3450
888.395	3545
888.519	3454
888.643	3504
888.767	3504
888.891	3306
889.015	3279
889.139	3325
889.263	3279
889.387	3439
889.511	3584
889.635	3496
889.759	3355
889.883	3329
890.006	3473
890.13	3530
890.254	3325
890.377	3359
890.501	3249
890.624	3203
890.748	3336
890.871	3203
890.995	3150
891.118	3135
891.241	3226
891.364	3222
891.488	3359
891.611	3218
891.734	3264
891.857	3317
891.98	3321
892.103	3329
892.226	3306
892.349	3241
892.471	3180
892.594	3260
892.717	3348
892.839	3275
892.962	3355
893.085	3435
893.207	3332
893.33	3157
893.452	3222
893.575	3393
893.697	3260
893.819	3530
893.941	3553
894.064	3477
894.186	3272
894.308	3317
894.43	3511
894.552	3545
894.674	3507
894.796	3294
894.918	3370
895.04	3329
895.161	3466
895.283	3416
895.405	3317
895.526	3439
895.648	3454
895.769	3466
895.891	3526
896.012	3526
896.134	3462
896.255	3420
896.376	3424
896.498	3386
896.619	3473
896.74	3431
896.861	3450
896.982	3690
897.103	3865
897.224	3595
897.345	3568
897.466	3454
897.587	3553
897.708	3675
897.828	3614
897.949	3485
898.07	3382
898.19	3428
898.311	3637
898.431	3485
898.552	3526
898.672	3644
898.792	3584
898.913	3511
899.033	3481
899.153	3332
899.273	3260
899.393	3294
899.513	3363
899.633	3340
899.753	3374
899.873	3329
899.993	3439
900.113	3378
900.232	3420
900.352	3348
900.472	3336
900.591	3260
900.711	3310
900.83	3249
900.95	3458
901.069	3534
901.189	3439
901.308	3237
901.427	3138
901.546	3226
901.665	3336
901.784	3389
901.904	3230
902.023	3192
902.141	3032
902.26	3032
902.379	3146
902.498	3150
902.617	3066
902.735	3264
902.854	3283
902.973	3253
903.091	3097
903.21	3066
903.328	3173
903.446	3150
903.565	3138
903.683	3230
903.801	3211
903.919	3291
904.038	3348
904.156	3192
904.274	3294
904.392	3287
904.51	3367
904.627	3386
904.745	3511
904.863	3580
904.981	3283
905.098	3203
905.216	3291
905.334	3386
905.451	3332
905.569	3332
905.686	3481
905.803	3511
905.921	3283
906.038	3450
906.155	3393
906.272	3291
906.389	3363
906.506	3245
906.623	3291
906.74	3317
906.857	3237
906.974	3310
907.091	3481
907.208	3553
907.324	3481
907.441	3424
907.557	3291
907.674	3253
907.79	3260
907.907	3298
908.023	3409
908.139	3420
908.256	3405
908.372	3428
908.488	3428
908.604	3291
908.72	3313
908.836	3310
908.952	3329
909.068	3393
909.184	3523
909.3	3462
909.415	3526
909.531	3553
909.647	3310
909.762	3306
909.878	3325
909.993	3367
910.108	3409
910.224	3370
910.339	3473
910.454	3355
910.57	3363
910.685	3298
910.8	3622
910.915	3564
911.03	3462
911.145	3287
911.259	3298
911.374	3370
911.489	3264
911.604	3279
911.718	3176
911.833	3192
911.947	3051
912.062	3032
912.176	3195
912.291	3233
912.405	3264
912.519	3458
912.633	3492
912.748	3374
912.862	3283
912.976	3218
913.09	3104
913.204	3161
913.318	3287
913.431	3397
913.545	3367
913.659	3450
913.772	3370
913.886	3230
914	3245
914.113	3431
914.226	3485
914.34	3431
914.453	3253
914.566	3469
914.68	3329
914.793	3344
914.906	3203
915.019	3173
915.132	3127
915.245	3195
915.358	3260
915.47	3279
915.583	3294
915.696	3321
915.809	3469
915.921	3439
916.034	3317
916.146	3313
916.259	3279
916.371	3412
916.483	3424
916.595	3298
916.708	3359
916.82	3378
916.932	3370
917.044	3386
917.156	3393
917.268	3279
917.38	3325
917.491	3340
917.603	3443
917.715	3473
917.826	3485
917.938	3439
918.049	3317
918.161	3477
918.272	3633
918.384	3625
918.495	3511
918.606	3370
918.717	3317
918.828	3424
918.939	3443
919.05	3317
919.161	3428
919.272	3226
919.383	3348
919.494	3580
919.604	3713
919.715	3515
919.826	3416
919.936	3515
920.047	3618
920.157	3587
920.267	3835
920.378	3675
920.488	3637
920.598	3800
920.708	4006
920.818	3873
920.928	3838
921.038	4063
921.148	4067
921.258	3755
921.368	3656
921.477	3622
921.587	3599
921.697	3496
921.806	3625
921.916	3564
922.025	3393
922.134	3397
922.244	3351
922.353	3466
922.462	3317
922.571	3264
922.68	3146
922.789	3150
922.898	3154
923.007	3131
923.116	3268
923.224	3176
923.333	3218
923.442	3131
923.55	3104
923.659	3218
923.767	3233
923.876	3173
923.984	3264
924.092	3138
924.201	3230
924.309	3241
924.417	3306
924.525	3237
924.633	3291
924.741	4249
924.849	3058
924.956	3298
925.064	3131
925.172	3055
925.279	3138
925.387	3233
925.494	3214
925.602	3363
925.709	3321
925.816	3230
925.924	3329
926.031	3412
926.138	3367
926.245	3424
926.352	3294
926.459	3435
926.566	3542
926.673	3389
926.779	3294
926.886	3268
926.993	3180
927.099	3176
927.206	3138
927.312	3142
927.419	3233
927.525	3249
927.631	3317
927.737	3173
927.843	3169
927.95	3074
928.056	3169
928.162	3199
928.267	3268
928.373	3819
928.479	3332
928.585	3097
928.69	3253
928.796	3321
928.901	3218
929.007	3070
929.112	3241
929.218	3207
929.323	3142
929.428	3203
929.533	3344
929.638	3199
929.743	3173
929.848	3294
929.953	3268
930.058	3199
930.163	3013
930.267	3062
930.372	3207
930.477	3055
930.581	3313
930.685	3214
930.79	3066
930.894	3138
930.998	3142
931.103	3336
931.207	3005
931.311	2956
931.415	2948
931.519	2819
931.623	2868
