Data from test_V78500241_1895.txt Node
Date: Fri Mar 25 16:28:19 CST 2022
User: usil
Spectrometer: V785-0024
Trigger mode: 0
Integration Time (sec): 4.000000E-1
Scans to average: 1
Nonlinearity correction enabled: false
Boxcar width: 0
Storing dark spectrum: false
XAxis mode: Wavelengths
Number of Pixels in Spectrum: 1024
>>>>>Begin Spectral Data<<<<<
801.071	2887
801.214	2952
801.356	2864
801.499	2857
801.641	2899
801.783	2906
801.926	3005
802.068	2944
802.211	3009
802.353	3032
802.496	2952
802.638	3001
802.78	3039
802.923	3097
803.065	3009
803.208	2895
803.35	2899
803.492	2922
803.635	2895
803.777	2796
803.919	2895
804.061	3173
804.204	2956
804.346	2902
804.488	2838
804.63	2967
804.773	2899
804.915	2925
805.057	3062
805.199	2910
805.341	2982
805.483	3047
805.626	2998
805.768	2971
805.91	3108
806.052	3089
806.194	3009
806.336	3207
806.478	3024
806.62	2952
806.762	2994
806.904	3058
807.046	3146
807.188	2967
807.33	2925
807.472	2952
807.614	2933
807.756	2994
807.898	2929
808.04	2857
808.182	2979
808.324	2971
808.465	2876
808.607	2895
808.749	2807
808.891	2849
809.033	2975
809.174	2975
809.316	2918
809.458	2876
809.6	2735
809.741	2777
809.883	2777
810.025	2834
810.166	2872
810.308	2777
810.45	2883
810.591	2766
810.733	2788
810.875	2819
811.016	2769
811.158	2762
811.299	2792
811.441	2937
811.582	2902
811.724	2796
811.865	2857
812.007	2899
812.148	2872
812.29	2826
812.431	2864
812.573	2941
812.714	2960
812.855	3058
812.997	3058
813.138	3119
813.279	3001
813.421	2982
813.562	3009
813.703	2868
813.845	2887
813.986	2792
814.127	2758
814.268	2834
814.41	2823
814.551	2823
814.692	2861
814.833	2811
814.974	2849
815.115	2956
815.256	2815
815.397	2788
815.539	2868
815.68	2762
815.821	2788
815.962	2925
816.103	2925
816.244	2861
816.385	2845
816.526	2967
816.666	2925
816.807	2766
816.948	2872
817.089	2906
817.23	2823
817.371	2785
817.512	2819
817.653	2830
817.793	2830
817.934	2895
818.075	2925
818.216	2963
818.356	3024
818.497	2895
818.638	2811
818.778	2842
818.919	2796
819.06	2762
819.2	2857
819.341	2796
819.481	2792
819.622	2952
819.762	3123
819.903	3043
820.043	2899
820.184	2880
820.324	2872
820.465	3005
820.605	3001
820.746	3058
820.886	2933
821.026	3100
821.167	3154
821.307	3249
821.447	3275
821.588	3253
821.728	3249
821.868	3165
822.008	3085
822.149	3207
822.289	3207
822.429	3123
822.569	3062
822.709	3184
822.849	3043
822.99	3043
823.13	3157
823.27	3150
823.41	3097
823.55	3127
823.69	3150
823.83	3180
823.97	3108
824.11	3017
824.25	2998
824.389	3058
824.529	3108
824.669	3066
824.809	3161
824.949	3237
825.089	3207
825.228	3146
825.368	2971
825.508	2925
825.648	2982
825.787	2956
825.927	2975
826.067	2979
826.206	2948
826.346	3024
826.485	3036
826.625	3074
826.765	3272
826.904	3176
827.044	2975
827.183	2914
827.323	2861
827.462	2963
827.601	2891
827.741	2906
827.88	2948
828.02	2845
828.159	2975
828.298	3020
828.437	3108
828.577	2994
828.716	3253
828.855	3047
828.994	2906
829.134	2868
829.273	2910
829.412	2880
829.551	2845
829.69	2906
829.829	3005
829.968	3135
830.107	3024
830.246	3028
830.385	2902
830.524	2842
830.663	2788
830.802	2746
830.941	2648
831.08	2632
831.219	2754
831.357	2743
831.496	2925
831.635	2686
831.774	2602
831.913	2590
832.051	2549
832.19	2556
832.329	2689
832.467	2526
832.606	2476
832.744	2564
832.883	2568
833.022	2590
833.16	2655
833.299	2670
833.437	2705
833.576	2701
833.714	2716
833.852	2762
833.991	2792
834.129	2815
834.267	2838
834.406	2807
834.544	2872
834.682	2864
834.821	2853
834.959	3089
835.097	2876
835.235	3020
835.373	3013
835.511	2994
835.65	2925
835.788	2963
835.926	2849
836.064	2834
836.202	2830
836.34	3100
836.478	3116
836.615	3062
836.753	3135
836.891	3207
837.029	3108
837.167	3081
837.305	3077
837.443	3058
837.58	2941
837.718	3123
837.856	3070
837.993	3043
838.131	3085
838.269	3135
838.406	3058
838.544	3089
838.681	2937
838.819	2941
838.956	2796
839.094	2826
839.231	2933
839.369	3028
839.506	3370
839.643	3195
839.781	3043
839.918	2963
840.055	3070
840.193	3036
840.33	3017
840.467	3085
840.604	3150
840.742	3386
840.879	3039
841.016	3062
841.153	3123
841.29	3291
841.427	3306
841.564	3291
841.701	3298
841.838	3222
841.975	3173
842.112	3192
842.249	3036
842.385	3032
842.522	3256
842.659	3062
842.796	3036
842.933	3108
843.069	3062
843.206	3074
843.343	3203
843.479	3074
843.616	3154
843.752	2880
843.889	2876
844.025	3085
844.162	2853
844.298	3089
844.435	2975
844.571	2910
844.708	3058
844.844	3184
844.98	3226
845.117	3195
845.253	3036
845.389	3009
845.525	3123
845.661	3081
845.798	2975
845.934	3112
846.07	3077
846.206	3230
846.342	3306
846.478	3233
846.614	3058
846.75	3036
846.886	3009
847.022	3214
847.158	3112
847.294	3203
847.429	3233
847.565	3214
847.701	3466
847.837	3051
847.972	3013
848.108	3157
848.244	3112
848.379	2967
848.515	2925
848.65	2922
848.786	2971
848.921	2990
849.057	3093
849.192	3142
849.328	3043
849.463	3108
849.598	3047
849.734	3039
849.869	2963
850.004	2933
850.14	2937
850.275	2899
850.41	2807
850.545	2910
850.68	2918
850.815	2956
850.95	2986
851.085	3195
851.22	3055
851.355	3028
851.49	2967
851.625	2967
851.76	2971
851.895	2914
852.03	2937
852.165	2994
852.299	3108
852.434	3146
852.569	3123
852.703	3188
852.838	3268
852.973	3332
853.107	3313
853.242	3100
853.376	3058
853.511	2952
853.645	3066
853.78	3253
853.914	3081
854.048	3108
854.183	3055
854.317	3161
854.451	3272
854.585	3104
854.72	3077
854.854	3203
854.988	3028
855.122	3093
855.256	2944
855.39	3077
855.524	3237
855.658	3195
855.792	3119
855.926	3203
856.06	3222
856.194	3260
856.327	3146
856.461	3047
856.595	3062
856.729	3070
856.862	3192
856.996	3123
857.13	3211
857.263	3233
857.397	3294
857.53	3119
857.664	3199
857.797	3237
857.931	3264
858.064	3176
858.197	3222
858.331	3104
858.464	3100
858.597	3020
858.731	3146
858.864	3138
858.997	3089
859.13	3142
859.263	3165
859.396	3192
859.529	3085
859.662	3074
859.795	3032
859.928	3119
860.061	3253
860.194	3275
860.327	3180
860.46	3066
860.592	3237
860.725	3249
860.858	3230
860.99	3089
861.123	3013
861.256	3066
861.388	3138
861.521	3804
861.653	3017
861.786	2952
861.918	2982
862.05	3074
862.183	3081
862.315	3116
862.447	3211
862.58	3039
862.712	2929
862.844	2857
862.976	3017
863.108	3001
863.24	3306
863.372	2864
863.504	2967
863.636	2960
863.768	3005
863.9	2967
864.032	2883
864.164	2914
864.296	3024
864.428	3108
864.559	3097
864.691	3081
864.823	3051
864.954	3020
865.086	3055
865.217	2990
865.349	2971
865.48	2982
865.612	3024
865.743	3131
865.875	2960
866.006	2948
866.137	2986
866.269	2929
866.4	2933
866.531	2910
866.662	2895
866.793	2918
866.924	2883
867.055	2994
867.186	2929
867.317	2906
867.448	2853
867.579	2823
867.71	2845
867.841	2845
867.972	2906
868.103	2853
868.233	2922
868.364	2899
868.495	2918
868.625	3070
868.756	3169
868.886	2956
869.017	3039
869.147	3165
869.278	3142
869.408	3039
869.539	2986
869.669	3131
869.799	3028
869.929	3157
870.06	3097
870.19	3321
870.32	3325
870.45	3268
870.58	3348
870.71	3447
870.84	3469
870.97	3268
871.1	3203
871.23	3466
871.36	3488
871.489	3340
871.619	3428
871.749	3386
871.879	3420
872.008	3454
872.138	3363
872.267	3245
872.397	3116
872.526	3089
872.656	3039
872.785	3108
872.915	3230
873.044	3294
873.173	3237
873.303	3207
873.432	3169
873.561	3195
873.69	3176
873.819	3119
873.948	3195
874.077	3097
874.206	3032
874.335	3077
874.464	3176
874.593	3298
874.722	3207
874.851	3378
874.979	3348
875.108	3313
875.237	3195
875.365	3131
875.494	3119
875.623	3199
875.751	3108
875.88	3154
876.008	3214
876.136	3230
876.265	3374
876.393	3469
876.521	3454
876.65	3397
876.778	3310
876.906	3233
877.034	3192
877.162	3192
877.29	3161
877.418	3249
877.546	3245
877.674	3230
877.802	3226
877.93	3176
878.058	3135
878.185	3089
878.313	3184
878.441	3199
878.568	3116
878.696	3154
878.824	3214
878.951	3279
879.079	3420
879.206	3625
879.333	3428
879.461	3332
879.588	3370
879.715	3485
879.842	3568
879.97	3351
880.097	3173
880.224	3100
880.351	3176
880.478	3184
880.605	3180
880.732	3188
880.859	3466
880.986	3332
881.112	3336
881.239	3222
881.366	3085
881.493	3017
881.619	3009
881.746	3070
881.872	3093
881.999	3070
882.125	3135
882.252	3283
882.378	3283
882.505	3435
882.631	3291
882.757	3161
882.883	3195
883.01	3222
883.136	3161
883.262	3104
883.388	3066
883.514	3287
883.64	3359
883.766	3329
883.892	3226
884.018	3230
884.143	3409
884.269	3526
884.395	3199
884.52	3188
884.646	3169
884.772	3135
884.897	3112
885.023	3195
885.148	3321
885.274	3409
885.399	3374
885.524	3291
885.65	3226
885.775	3264
885.9	3287
886.025	3416
886.15	3329
886.275	3291
886.4	3272
886.525	3298
886.65	3306
886.775	3260
886.9	3492
887.025	3599
887.149	3412
887.274	3253
887.399	3142
887.523	3203
887.648	3180
887.773	3199
887.897	3378
888.021	3409
888.146	3291
888.27	3443
888.395	3534
888.519	3443
888.643	3435
888.767	3458
888.891	3317
889.015	3279
889.139	3272
889.263	3199
889.387	3397
889.511	3507
889.635	3454
889.759	3268
889.883	3287
890.006	3325
890.13	3473
890.254	3287
890.377	3336
890.501	3188
890.624	3199
890.748	3336
890.871	3161
890.995	3104
891.118	3055
891.241	3176
891.364	3199
891.488	3302
891.611	3192
891.734	3207
891.857	3256
891.98	3230
892.103	3340
892.226	3245
892.349	3214
892.471	3070
892.594	3226
892.717	3268
892.839	3253
892.962	3245
893.085	3370
893.207	3294
893.33	3180
893.452	3131
893.575	3313
893.697	3237
893.819	3462
893.941	3519
894.064	3420
894.186	3287
894.308	3211
894.43	3435
894.552	3473
894.674	3431
894.796	3272
894.918	3287
895.04	3287
895.161	3424
895.283	3389
895.405	3317
895.526	3351
895.648	3458
895.769	3473
895.891	3428
896.012	3431
896.134	3458
896.255	3435
896.376	3382
896.498	3332
896.619	3428
896.74	3325
896.861	3428
896.982	3682
897.103	3854
897.224	3553
897.345	3534
897.466	3454
897.587	3458
897.708	3603
897.828	3564
897.949	3447
898.07	3317
898.19	3428
898.311	3622
898.431	3431
898.552	3542
898.672	3648
898.792	3580
898.913	3530
899.033	3443
899.153	3294
899.273	3233
899.393	3302
899.513	3317
899.633	3332
899.753	3348
899.873	3275
899.993	3348
900.113	3310
900.232	3401
900.352	3306
900.472	3264
900.591	3222
900.711	3313
900.83	3241
900.95	3389
901.069	3492
901.189	3313
901.308	3165
901.427	3100
901.546	3180
901.665	3279
901.784	3321
901.904	3199
902.023	3146
902.141	2994
902.26	2982
902.379	3173
902.498	3058
902.617	3055
902.735	3203
902.854	3207
902.973	3211
903.091	3039
903.21	3077
903.328	3131
903.446	3142
903.565	3077
903.683	3165
903.801	3123
903.919	3199
904.038	3272
904.156	3157
904.274	3291
904.392	3245
904.51	3268
904.627	3313
904.745	3393
904.863	3462
904.981	3241
905.098	3188
905.216	3253
905.334	3283
905.451	3264
905.569	3329
905.686	3405
905.803	3443
905.921	3306
906.038	3466
906.155	3344
906.272	3310
906.389	3363
906.506	3275
906.623	3268
906.74	3310
906.857	3184
906.974	3291
907.091	3450
907.208	3549
907.324	3466
907.441	3359
907.557	3214
907.674	3249
907.79	3199
907.907	3287
908.023	3405
908.139	3351
908.256	3351
908.372	3374
908.488	3329
908.604	3256
908.72	3241
908.836	3302
908.952	3237
909.068	3306
909.184	3507
909.3	3416
909.415	3473
909.531	3469
909.647	3298
909.762	3291
909.878	3275
909.993	3370
910.108	3348
910.224	3355
910.339	3389
910.454	3329
910.57	3325
910.685	3222
910.8	3599
910.915	3545
911.03	3393
911.145	3268
911.259	3283
911.374	3329
911.489	3218
911.604	3256
911.718	3100
911.833	3165
911.947	3001
912.062	3005
912.176	3161
912.291	3211
912.405	3180
912.519	3397
912.633	3481
912.748	3283
912.862	3313
912.976	3188
913.09	3028
913.204	3127
913.318	3241
913.431	3329
913.545	3344
913.659	3401
913.772	3344
913.886	3184
914	3180
914.113	3378
914.226	3420
914.34	3401
914.453	3199
914.566	3435
914.68	3302
914.793	3283
914.906	3146
915.019	3116
915.132	3077
915.245	3199
915.358	3192
915.47	3233
915.583	3253
915.696	3298
915.809	3435
915.921	3401
916.034	3249
916.146	3283
916.259	3169
916.371	3363
916.483	3355
916.595	3268
916.708	3306
916.82	3351
916.932	3386
917.044	3351
917.156	3325
917.268	3237
917.38	3272
917.491	3264
917.603	3348
917.715	3424
917.826	3458
917.938	3389
918.049	3279
918.161	3409
918.272	3572
918.384	3549
918.495	3507
918.606	3294
918.717	3298
918.828	3389
918.939	3409
919.05	3294
919.161	3344
919.272	3173
919.383	3283
919.494	3515
919.604	3644
919.715	3511
919.826	3378
919.936	3450
920.047	3580
920.157	3530
920.267	3766
920.378	3629
920.488	3572
920.598	3778
920.708	3899
920.818	3819
920.928	3808
921.038	4025
921.148	3979
921.258	3751
921.368	3610
921.477	3561
921.587	3534
921.697	3454
921.806	3667
921.916	3481
922.025	3332
922.134	3374
922.244	3329
922.353	3439
922.462	3306
922.571	3203
922.68	3085
922.789	3081
922.898	3142
923.007	3108
923.116	3218
923.224	3169
923.333	3180
923.442	3123
923.55	3070
923.659	3135
923.767	3207
923.876	3116
923.984	3298
924.092	3104
924.201	3226
924.309	3249
924.417	3233
924.525	3169
924.633	3214
924.741	4010
924.849	3047
924.956	3272
925.064	3070
925.172	3055
925.279	3119
925.387	3260
925.494	3226
925.602	3310
925.709	3329
925.816	3161
925.924	3275
926.031	3367
926.138	3310
926.245	3367
926.352	3211
926.459	3416
926.566	3450
926.673	3321
926.779	3245
926.886	3264
926.993	3135
927.099	3146
927.206	3135
927.312	3081
927.419	3226
927.525	3199
927.631	3268
927.737	3131
927.843	3135
927.95	3001
928.056	3150
928.162	3192
928.267	3230
928.373	3857
928.479	3302
928.585	3039
928.69	3207
928.796	3237
928.901	3131
929.007	3020
929.112	3203
929.218	3176
929.323	3165
929.428	3154
929.533	3294
929.638	3119
929.743	3135
929.848	3294
929.953	3180
930.058	3131
930.163	3020
930.267	3051
930.372	3192
930.477	3077
930.581	3325
930.685	3173
930.79	3051
930.894	3119
930.998	3104
931.103	3283
931.207	2925
931.311	2941
931.415	2922
931.519	2766
931.623	2807
