Data from test_V78500241_1478.txt Node
Date: Fri Mar 25 16:25:26 CST 2022
User: usil
Spectrometer: V785-0024
Trigger mode: 0
Integration Time (sec): 4.000000E-1
Scans to average: 1
Nonlinearity correction enabled: false
Boxcar width: 0
Storing dark spectrum: false
XAxis mode: Wavelengths
Number of Pixels in Spectrum: 1024
>>>>>Begin Spectral Data<<<<<
801.071	2895
801.214	2929
801.356	2834
801.499	2895
801.641	2880
801.783	2899
801.926	3039
802.068	2971
802.211	2986
802.353	3062
802.496	2941
802.638	3024
802.78	3001
802.923	3085
803.065	3013
803.208	2922
803.35	2933
803.492	2933
803.635	2929
803.777	2754
803.919	2823
804.061	3146
804.204	2944
804.346	2902
804.488	2849
804.63	2998
804.773	2895
804.915	2933
805.057	3081
805.199	2941
805.341	2979
805.483	3039
805.626	3020
805.768	2967
805.91	3077
806.052	3146
806.194	3074
806.336	3237
806.478	3085
806.62	2952
806.762	2941
806.904	3089
807.046	3195
807.188	2963
807.33	2937
807.472	2998
807.614	2925
807.756	2994
807.898	2895
808.04	2857
808.182	2960
808.324	2956
808.465	2872
808.607	2868
808.749	2838
808.891	2861
809.033	2979
809.174	2967
809.316	2876
809.458	2902
809.6	2788
809.741	2762
809.883	2777
810.025	2807
810.166	2861
810.308	2834
810.45	2861
810.591	2739
810.733	2739
810.875	2872
811.016	2777
811.158	2766
811.299	2830
811.441	2895
811.582	2914
811.724	2811
811.865	2796
812.007	2922
812.148	2918
812.29	2796
812.431	2887
812.573	2956
812.714	2990
812.855	3009
812.997	3009
813.138	3123
813.279	2994
813.421	2979
813.562	2948
813.703	2868
813.845	2902
813.986	2769
814.127	2682
814.268	2861
814.41	2842
814.551	2826
814.692	2887
814.833	2826
814.974	2906
815.115	2948
815.256	2800
815.397	2830
815.539	2872
815.68	2754
815.821	2773
815.962	2948
816.103	2937
816.244	2853
816.385	2857
816.526	2990
816.666	2941
816.807	2727
816.948	2842
817.089	2891
817.23	2830
817.371	2804
817.512	2819
817.653	2838
817.793	2853
817.934	2895
818.075	2952
818.216	2971
818.356	3043
818.497	2864
818.638	2769
818.778	2804
818.919	2785
819.06	2754
819.2	2887
819.341	2754
819.481	2785
819.622	2929
819.762	3074
819.903	3005
820.043	2941
820.184	2910
820.324	2880
820.465	3024
820.605	3009
820.746	3043
820.886	2948
821.026	3097
821.167	3123
821.307	3272
821.447	3298
821.588	3207
821.728	3195
821.868	3214
822.008	3066
822.149	3211
822.289	3226
822.429	3108
822.569	3085
822.709	3184
822.849	2990
822.99	3051
823.13	3157
823.27	3203
823.41	3100
823.55	3131
823.69	3112
823.83	3222
823.97	3116
824.11	2986
824.25	3005
824.389	3047
824.529	3108
824.669	3070
824.809	3203
824.949	3214
825.089	3211
825.228	3157
825.368	3020
825.508	2960
825.648	2952
825.787	2960
825.927	3017
826.067	2952
826.206	2929
826.346	3043
826.485	3066
826.625	3085
826.765	3249
826.904	3207
827.044	3005
827.183	2925
827.323	2868
827.462	3005
827.601	2902
827.741	2956
827.88	2941
828.02	2838
828.159	2986
828.298	3001
828.437	3089
828.577	3028
828.716	3249
828.855	3108
828.994	2891
829.134	2861
829.273	2918
829.412	2861
829.551	2849
829.69	2868
829.829	3001
829.968	3138
830.107	3032
830.246	2998
830.385	2967
830.524	2864
830.663	2842
830.802	2705
830.941	2651
831.08	2648
831.219	2743
831.357	2788
831.496	2929
831.635	2720
831.774	2644
831.913	2636
832.051	2541
832.19	2579
832.329	2667
832.467	2560
832.606	2499
832.744	2590
832.883	2541
833.022	2575
833.16	2644
833.299	2701
833.437	2708
833.576	2678
833.714	2735
833.852	2712
833.991	2750
834.129	2849
834.267	2845
834.406	2746
834.544	2857
834.682	2887
834.821	2868
834.959	3074
835.097	2868
835.235	3043
835.373	2982
835.511	3024
835.65	3009
835.788	2914
835.926	2857
836.064	2819
836.202	2823
836.34	3085
836.478	3150
836.615	3074
836.753	3142
836.891	3207
837.029	3203
837.167	3112
837.305	3066
837.443	3074
837.58	2937
837.718	3154
837.856	3039
837.993	3051
838.131	3097
838.269	3104
838.406	3093
838.544	3062
838.681	2914
838.819	2910
838.956	2807
839.094	2826
839.231	2933
839.369	3005
839.506	3382
839.643	3192
839.781	2979
839.918	2956
840.055	3017
840.193	3055
840.33	3051
840.467	3066
840.604	3169
840.742	3405
840.879	3058
841.016	3066
841.153	3119
841.29	3344
841.427	3310
841.564	3268
841.701	3306
841.838	3218
841.975	3142
842.112	3188
842.249	3066
842.385	3066
842.522	3222
842.659	3100
842.796	3043
842.933	3108
843.069	3009
843.206	3017
843.343	3192
843.479	3093
843.616	3135
843.752	2876
843.889	2868
844.025	3062
844.162	2861
844.298	3112
844.435	2929
844.571	2925
844.708	3055
844.844	3184
844.98	3195
845.117	3146
845.253	3043
845.389	3020
845.525	3074
845.661	3081
845.798	3013
845.934	3074
846.07	3036
846.206	3211
846.342	3329
846.478	3214
846.614	3074
846.75	3047
846.886	3013
847.022	3222
847.158	3188
847.294	3207
847.429	3237
847.565	3192
847.701	3496
847.837	3001
847.972	2952
848.108	3138
848.244	3165
848.379	3013
848.515	2941
848.65	2914
848.786	2952
848.921	2982
849.057	3093
849.192	3142
849.328	3058
849.463	3081
849.598	3028
849.734	3043
849.869	2960
850.004	2891
850.14	2963
850.275	2922
850.41	2830
850.545	2845
850.68	2941
850.815	2956
850.95	2929
851.085	3184
851.22	3104
851.355	3009
851.49	2994
851.625	2982
851.76	2998
851.895	2933
852.03	2910
852.165	3055
852.299	3097
852.434	3157
852.569	3142
852.703	3135
852.838	3268
852.973	3336
853.107	3325
853.242	3138
853.376	3085
853.511	2967
853.645	3058
853.78	3230
853.914	3104
854.048	3131
854.183	3135
854.317	3142
854.451	3298
854.585	3112
854.72	3066
854.854	3211
854.988	3017
855.122	3100
855.256	2967
855.39	3108
855.524	3241
855.658	3157
855.792	3146
855.926	3203
856.06	3188
856.194	3253
856.327	3135
856.461	3085
856.595	3085
856.729	3104
856.862	3192
856.996	3154
857.13	3161
857.263	3230
857.397	3279
857.53	3089
857.664	3203
857.797	3207
857.931	3245
858.064	3142
858.197	3195
858.331	3116
858.464	3089
858.597	2971
858.731	3116
858.864	3119
858.997	3135
859.13	3135
859.263	3165
859.396	3184
859.529	3066
859.662	3093
859.795	3039
859.928	3138
860.061	3279
860.194	3237
860.327	3127
860.46	3108
860.592	3214
860.725	3233
860.858	3264
860.99	3112
861.123	3047
861.256	3039
861.388	3119
861.521	3835
861.653	3028
861.786	2960
861.918	3001
862.05	3081
862.183	3104
862.315	3173
862.447	3188
862.58	3074
862.712	2944
862.844	2872
862.976	2967
863.108	2994
863.24	3283
863.372	2868
863.504	2937
863.636	2929
863.768	2986
863.9	2994
864.032	2868
864.164	2944
864.296	3036
864.428	3047
864.559	3089
864.691	3043
864.823	3051
864.954	2994
865.086	3047
865.217	2960
865.349	2956
865.48	2975
865.612	2994
865.743	3123
865.875	2986
866.006	2918
866.137	2971
866.269	2960
866.4	2910
866.531	2899
866.662	2880
866.793	2872
866.924	2914
867.055	2982
867.186	2880
867.317	2853
867.448	2819
867.579	2842
867.71	2815
867.841	2807
867.972	2872
868.103	2887
868.233	2876
868.364	2887
868.495	2883
868.625	3039
868.756	3180
868.886	2975
869.017	3020
869.147	3173
869.278	3154
869.408	3066
869.539	3020
869.669	3119
869.799	3043
869.929	3097
870.06	3066
870.19	3310
870.32	3268
870.45	3302
870.58	3348
870.71	3443
870.84	3424
870.97	3291
871.1	3214
871.23	3458
871.36	3488
871.489	3321
871.619	3348
871.749	3420
871.879	3462
872.008	3485
872.138	3332
872.267	3249
872.397	3146
872.526	3089
872.656	3020
872.785	3081
872.915	3211
873.044	3313
873.173	3203
873.303	3245
873.432	3230
873.561	3260
873.69	3154
873.819	3146
873.948	3203
874.077	3131
874.206	3013
874.335	3097
874.464	3207
874.593	3340
874.722	3260
874.851	3412
874.979	3351
875.108	3313
875.237	3199
875.365	3157
875.494	3161
875.623	3230
875.751	3039
875.88	3112
876.008	3226
876.136	3211
876.265	3359
876.393	3488
876.521	3428
876.65	3409
876.778	3294
876.906	3241
877.034	3214
877.162	3226
877.29	3188
877.418	3264
877.546	3195
877.674	3237
877.802	3237
877.93	3260
878.058	3135
878.185	3081
878.313	3222
878.441	3195
878.568	3039
878.696	3135
878.824	3230
878.951	3287
879.079	3439
879.206	3618
879.333	3458
879.461	3378
879.588	3370
879.715	3466
879.842	3599
879.97	3340
880.097	3176
880.224	3112
880.351	3207
880.478	3192
880.605	3195
880.732	3199
880.859	3488
880.986	3313
881.112	3332
881.239	3195
881.366	3047
881.493	3039
881.619	2986
881.746	3066
881.872	3116
881.999	3104
882.125	3157
882.252	3226
882.378	3313
882.505	3439
882.631	3253
882.757	3192
882.883	3188
883.01	3218
883.136	3138
883.262	3081
883.388	3116
883.514	3317
883.64	3397
883.766	3329
883.892	3176
884.018	3237
884.143	3416
884.269	3523
884.395	3192
884.52	3123
884.646	3195
884.772	3097
884.897	3066
885.023	3233
885.148	3344
885.274	3443
885.399	3382
885.524	3294
885.65	3241
885.775	3325
885.9	3264
886.025	3443
886.15	3336
886.275	3340
886.4	3222
886.525	3287
886.65	3268
886.775	3283
886.9	3469
887.025	3587
887.149	3370
887.274	3268
887.399	3173
887.523	3199
887.648	3180
887.773	3222
887.897	3336
888.021	3386
888.146	3306
888.27	3435
888.395	3507
888.519	3416
888.643	3416
888.767	3458
888.891	3249
889.015	3241
889.139	3317
889.263	3245
889.387	3382
889.511	3500
889.635	3454
889.759	3272
889.883	3287
890.006	3420
890.13	3485
890.254	3268
890.377	3317
890.501	3188
890.624	3169
890.748	3302
890.871	3131
890.995	3070
891.118	3051
891.241	3165
891.364	3188
891.488	3370
891.611	3188
891.734	3226
891.857	3302
891.98	3237
892.103	3321
892.226	3226
892.349	3199
892.471	3119
892.594	3241
892.717	3275
892.839	3279
892.962	3272
893.085	3348
893.207	3287
893.33	3150
893.452	3180
893.575	3336
893.697	3218
893.819	3485
893.941	3511
894.064	3401
894.186	3279
894.308	3264
894.43	3450
894.552	3534
894.674	3466
894.796	3226
894.918	3310
895.04	3306
895.161	3420
895.283	3378
895.405	3306
895.526	3363
895.648	3409
895.769	3416
895.891	3481
896.012	3488
896.134	3458
896.255	3386
896.376	3367
896.498	3348
896.619	3428
896.74	3332
896.861	3382
896.982	3690
897.103	3838
897.224	3610
897.345	3504
897.466	3424
897.587	3481
897.708	3625
897.828	3542
897.949	3405
898.07	3340
898.19	3397
898.311	3580
898.431	3454
898.552	3496
898.672	3553
898.792	3549
898.913	3526
899.033	3386
899.153	3283
899.273	3230
899.393	3241
899.513	3306
899.633	3291
899.753	3336
899.873	3310
899.993	3348
900.113	3325
900.232	3374
900.352	3363
900.472	3302
900.591	3218
900.711	3298
900.83	3214
900.95	3393
901.069	3523
901.189	3340
901.308	3154
901.427	3116
901.546	3203
901.665	3291
901.784	3348
901.904	3199
902.023	3161
902.141	2998
902.26	2979
902.379	3077
902.498	3093
902.617	3039
902.735	3214
902.854	3218
902.973	3199
903.091	3047
903.21	3051
903.328	3100
903.446	3093
903.565	3085
903.683	3207
903.801	3131
903.919	3226
904.038	3249
904.156	3192
904.274	3275
904.392	3264
904.51	3321
904.627	3340
904.745	3416
904.863	3485
904.981	3226
905.098	3138
905.216	3249
905.334	3283
905.451	3256
905.569	3291
905.686	3420
905.803	3458
905.921	3302
906.038	3424
906.155	3351
906.272	3279
906.389	3344
906.506	3222
906.623	3294
906.74	3253
906.857	3169
906.974	3233
907.091	3431
907.208	3614
907.324	3443
907.441	3374
907.557	3161
907.674	3214
907.79	3241
907.907	3310
908.023	3405
908.139	3405
908.256	3321
908.372	3370
908.488	3332
908.604	3256
908.72	3226
908.836	3298
908.952	3272
909.068	3329
909.184	3473
909.3	3363
909.415	3466
909.531	3469
909.647	3283
909.762	3294
909.878	3230
909.993	3363
910.108	3332
910.224	3310
910.339	3416
910.454	3310
910.57	3302
910.685	3226
910.8	3622
910.915	3504
911.03	3401
911.145	3291
911.259	3310
911.374	3329
911.489	3233
911.604	3230
911.718	3131
911.833	3157
911.947	3055
912.062	2971
912.176	3161
912.291	3237
912.405	3195
912.519	3431
912.633	3507
912.748	3325
912.862	3279
912.976	3203
913.09	3036
913.204	3089
913.318	3214
913.431	3355
913.545	3321
913.659	3454
913.772	3329
913.886	3230
914	3222
914.113	3340
914.226	3424
914.34	3336
914.453	3157
914.566	3393
914.68	3317
914.793	3279
914.906	3123
915.019	3112
915.132	3058
915.245	3146
915.358	3214
915.47	3249
915.583	3272
915.696	3302
915.809	3439
915.921	3389
916.034	3249
916.146	3245
916.259	3256
916.371	3393
916.483	3382
916.595	3279
916.708	3378
916.82	3336
916.932	3344
917.044	3340
917.156	3325
917.268	3233
917.38	3298
917.491	3275
917.603	3355
917.715	3416
917.826	3447
917.938	3386
918.049	3226
918.161	3458
918.272	3549
918.384	3519
918.495	3496
918.606	3348
918.717	3256
918.828	3351
918.939	3386
919.05	3306
919.161	3340
919.272	3195
919.383	3298
919.494	3458
919.604	3682
919.715	3473
919.826	3389
919.936	3443
920.047	3549
920.157	3523
920.267	3720
920.378	3568
920.488	3564
920.598	3743
920.708	3964
920.818	3808
920.928	3846
921.038	3968
921.148	3991
921.258	3762
921.368	3633
921.477	3629
921.587	3488
921.697	3469
921.806	3622
921.916	3519
922.025	3336
922.134	3344
922.244	3317
922.353	3397
922.462	3275
922.571	3226
922.68	3108
922.789	3074
922.898	3150
923.007	3047
923.116	3207
923.224	3184
923.333	3161
923.442	3070
923.55	3070
923.659	3161
923.767	3184
923.876	3119
923.984	3195
924.092	3108
924.201	3161
924.309	3245
924.417	3230
924.525	3203
924.633	3237
924.741	4188
924.849	3043
924.956	3272
925.064	3085
925.172	3085
925.279	3104
925.387	3203
925.494	3184
925.602	3325
925.709	3294
925.816	3195
925.924	3298
926.031	3351
926.138	3294
926.245	3340
926.352	3218
926.459	3412
926.566	3462
926.673	3321
926.779	3256
926.886	3249
926.993	3173
927.099	3081
927.206	3104
927.312	3104
927.419	3211
927.525	3203
927.631	3279
927.737	3154
927.843	3112
927.95	3020
928.056	3138
928.162	3169
928.267	3249
928.373	3743
928.479	3344
928.585	3074
928.69	3218
928.796	3249
928.901	3192
929.007	3032
929.112	3165
929.218	3161
929.323	3150
929.428	3169
929.533	3310
929.638	3112
929.743	3169
929.848	3249
929.953	3241
930.058	3123
930.163	3020
930.267	3024
930.372	3207
930.477	3005
930.581	3336
930.685	3176
930.79	3051
930.894	3100
930.998	3097
931.103	3268
931.207	2967
931.311	2956
931.415	2922
931.519	2746
931.623	2754
