Data from test_V78500241_1179.txt Node
Date: Fri Mar 25 16:23:22 CST 2022
User: usil
Spectrometer: V785-0024
Trigger mode: 0
Integration Time (sec): 4.000000E-1
Scans to average: 1
Nonlinearity correction enabled: false
Boxcar width: 0
Storing dark spectrum: false
XAxis mode: Wavelengths
Number of Pixels in Spectrum: 1024
>>>>>Begin Spectral Data<<<<<
801.071	2922
801.214	2937
801.356	2838
801.499	2929
801.641	2868
801.783	2899
801.926	3017
802.068	2963
802.211	3005
802.353	3036
802.496	2918
802.638	3013
802.78	3051
802.923	3085
803.065	2982
803.208	2906
803.35	2929
803.492	2922
803.635	2922
803.777	2792
803.919	2861
804.061	3195
804.204	2948
804.346	2895
804.488	2853
804.63	2990
804.773	2853
804.915	2899
805.057	3039
805.199	2914
805.341	2971
805.483	3032
805.626	2986
805.768	2990
805.91	3085
806.052	3074
806.194	3024
806.336	3237
806.478	3028
806.62	2941
806.762	2994
806.904	3020
807.046	3154
807.188	2979
807.33	2922
807.472	2998
807.614	2956
807.756	2952
807.898	2929
808.04	2906
808.182	2975
808.324	2944
808.465	2899
808.607	2868
808.749	2777
808.891	2857
809.033	2952
809.174	3009
809.316	2880
809.458	2864
809.6	2785
809.741	2781
809.883	2762
810.025	2842
810.166	2883
810.308	2849
810.45	2868
810.591	2731
810.733	2781
810.875	2845
811.016	2769
811.158	2724
811.299	2811
811.441	2895
811.582	2883
811.724	2834
811.865	2876
812.007	2929
812.148	2864
812.29	2834
812.431	2922
812.573	2887
812.714	2971
812.855	3036
812.997	3058
813.138	3100
813.279	3009
813.421	2960
813.562	2929
813.703	2876
813.845	2887
813.986	2781
814.127	2731
814.268	2857
814.41	2845
814.551	2830
814.692	2868
814.833	2804
814.974	2891
815.115	2960
815.256	2823
815.397	2807
815.539	2853
815.68	2754
815.821	2792
815.962	2948
816.103	2963
816.244	2895
816.385	2872
816.526	2971
816.666	2918
816.807	2773
816.948	2906
817.089	2883
817.23	2887
817.371	2792
817.512	2826
817.653	2845
817.793	2838
817.934	2853
818.075	2937
818.216	3039
818.356	3036
818.497	2891
818.638	2781
818.778	2826
818.919	2815
819.06	2785
819.2	2868
819.341	2804
819.481	2781
819.622	2914
819.762	3100
819.903	3043
820.043	2956
820.184	2887
820.324	2910
820.465	3047
820.605	3047
820.746	3005
820.886	2883
821.026	3097
821.167	3165
821.307	3245
821.447	3264
821.588	3211
821.728	3245
821.868	3192
822.008	3074
822.149	3214
822.289	3230
822.429	3108
822.569	3058
822.709	3169
822.849	3020
822.99	3047
823.13	3173
823.27	3192
823.41	3135
823.55	3123
823.69	3150
823.83	3165
823.97	3104
824.11	2967
824.25	2986
824.389	3051
824.529	3089
824.669	3055
824.809	3173
824.949	3272
825.089	3233
825.228	3157
825.368	3009
825.508	2971
825.648	2990
825.787	2986
825.927	3017
826.067	2998
826.206	2933
826.346	3028
826.485	3036
826.625	3100
826.765	3268
826.904	3233
827.044	2971
827.183	2929
827.323	2861
827.462	3020
827.601	2937
827.741	2937
827.88	2952
828.02	2868
828.159	2994
828.298	3013
828.437	3097
828.577	3055
828.716	3268
828.855	3047
828.994	2895
829.134	2876
829.273	2922
829.412	2845
829.551	2864
829.69	2849
829.829	2994
829.968	3127
830.107	2979
830.246	3009
830.385	2925
830.524	2830
830.663	2815
830.802	2735
830.941	2644
831.08	2655
831.219	2724
831.357	2750
831.496	2956
831.635	2678
831.774	2617
831.913	2629
832.051	2533
832.19	2545
832.329	2674
832.467	2533
832.606	2495
832.744	2590
832.883	2590
833.022	2598
833.16	2670
833.299	2686
833.437	2674
833.576	2701
833.714	2727
833.852	2686
833.991	2788
834.129	2819
834.267	2807
834.406	2754
834.544	2849
834.682	2857
834.821	2849
834.959	3017
835.097	2883
835.235	3058
835.373	2975
835.511	3028
835.65	2971
835.788	2956
835.926	2823
836.064	2800
836.202	2861
836.34	3085
836.478	3154
836.615	3028
836.753	3119
836.891	3192
837.029	3142
837.167	3142
837.305	3058
837.443	3009
837.58	2952
837.718	3119
837.856	3085
837.993	3039
838.131	3093
838.269	3112
838.406	3077
838.544	3097
838.681	2948
838.819	2895
838.956	2804
839.094	2849
839.231	2895
839.369	3028
839.506	3359
839.643	3176
839.781	3032
839.918	2952
840.055	3062
840.193	3028
840.33	3070
840.467	3123
840.604	3146
840.742	3389
840.879	3039
841.016	3055
841.153	3097
841.29	3367
841.427	3279
841.564	3268
841.701	3317
841.838	3222
841.975	3176
842.112	3233
842.249	3055
842.385	3032
842.522	3256
842.659	3074
842.796	3070
842.933	3127
843.069	3058
843.206	3017
843.343	3169
843.479	3077
843.616	3127
843.752	2914
843.889	2876
844.025	3097
844.162	2868
844.298	3097
844.435	2925
844.571	2925
844.708	3085
844.844	3157
844.98	3233
845.117	3173
845.253	3036
845.389	3005
845.525	3077
845.661	3085
845.798	3017
845.934	3100
846.07	3043
846.206	3226
846.342	3332
846.478	3237
846.614	3051
846.75	3051
846.886	2994
847.022	3249
847.158	3123
847.294	3180
847.429	3230
847.565	3176
847.701	3500
847.837	3055
847.972	2994
848.108	3161
848.244	3116
848.379	2986
848.515	2941
848.65	2944
848.786	2982
848.921	2979
849.057	3116
849.192	3154
849.328	3070
849.463	3097
849.598	3055
849.734	3005
849.869	3001
850.004	2868
850.14	2960
850.275	2895
850.41	2826
850.545	2876
850.68	2895
850.815	2971
850.95	2971
851.085	3165
851.22	3100
851.355	3013
851.49	2971
851.625	3024
851.76	3047
851.895	2925
852.03	2948
852.165	2990
852.299	3104
852.434	3169
852.569	3150
852.703	3127
852.838	3249
852.973	3340
853.107	3363
853.242	3119
853.376	3093
853.511	2933
853.645	3039
853.78	3241
853.914	3119
854.048	3077
854.183	3108
854.317	3142
854.451	3264
854.585	3100
854.72	3097
854.854	3188
854.988	3043
855.122	3089
855.256	2948
855.39	3077
855.524	3249
855.658	3176
855.792	3154
855.926	3161
856.06	3169
856.194	3218
856.327	3146
856.461	3055
856.595	3097
856.729	3104
856.862	3230
856.996	3173
857.13	3150
857.263	3230
857.397	3294
857.53	3138
857.664	3169
857.797	3195
857.931	3211
858.064	3176
858.197	3241
858.331	3146
858.464	3135
858.597	2982
858.731	3119
858.864	3150
858.997	3074
859.13	3169
859.263	3203
859.396	3173
859.529	3066
859.662	3074
859.795	3024
859.928	3116
860.061	3253
860.194	3268
860.327	3077
860.46	3089
860.592	3233
860.725	3264
860.858	3199
860.99	3089
861.123	3055
861.256	3058
861.388	3161
861.521	3698
861.653	3009
861.786	2982
861.918	2986
862.05	3070
862.183	3055
862.315	3165
862.447	3195
862.58	3100
862.712	2941
862.844	2887
862.976	3001
863.108	2986
863.24	3336
863.372	2902
863.504	2956
863.636	2960
863.768	3005
863.9	2971
864.032	2902
864.164	2960
864.296	3001
864.428	3104
864.559	3081
864.691	3066
864.823	3070
864.954	3032
865.086	3032
865.217	2960
865.349	2929
865.48	2994
865.612	3043
865.743	3146
865.875	2971
866.006	2895
866.137	2944
866.269	2975
866.4	2895
866.531	2952
866.662	2872
866.793	2910
866.924	2868
867.055	2990
867.186	2880
867.317	2918
867.448	2788
867.579	2845
867.71	2804
867.841	2804
867.972	2880
868.103	2918
868.233	2861
868.364	2861
868.495	2887
868.625	3074
868.756	3135
868.886	2975
869.017	3020
869.147	3161
869.278	3165
869.408	3036
869.539	3013
869.669	3116
869.799	3028
869.929	3150
870.06	3074
870.19	3329
870.32	3302
870.45	3256
870.58	3355
870.71	3416
870.84	3450
870.97	3275
871.1	3237
871.23	3511
871.36	3469
871.489	3332
871.619	3424
871.749	3412
871.879	3416
872.008	3492
872.138	3336
872.267	3294
872.397	3142
872.526	3074
872.656	3001
872.785	3074
872.915	3226
873.044	3336
873.173	3222
873.303	3203
873.432	3241
873.561	3245
873.69	3131
873.819	3131
873.948	3211
874.077	3097
874.206	3036
874.335	3058
874.464	3233
874.593	3340
874.722	3214
874.851	3424
874.979	3332
875.108	3321
875.237	3165
875.365	3154
875.494	3192
875.623	3241
875.751	3058
875.88	3123
876.008	3142
876.136	3226
876.265	3351
876.393	3496
876.521	3405
876.65	3439
876.778	3344
876.906	3226
877.034	3211
877.162	3226
877.29	3161
877.418	3218
877.546	3241
877.674	3195
877.802	3214
877.93	3207
878.058	3165
878.185	3119
878.313	3211
878.441	3207
878.568	3066
878.696	3142
878.824	3226
878.951	3272
879.079	3435
879.206	3618
879.333	3447
879.461	3302
879.588	3355
879.715	3481
879.842	3603
879.97	3325
880.097	3169
880.224	3146
880.351	3180
880.478	3233
880.605	3230
880.732	3169
880.859	3481
880.986	3302
881.112	3336
881.239	3211
881.366	3127
881.493	3043
881.619	3043
881.746	3066
881.872	3108
881.999	3089
882.125	3104
882.252	3226
882.378	3325
882.505	3466
882.631	3275
882.757	3154
882.883	3233
883.01	3180
883.136	3131
883.262	3093
883.388	3116
883.514	3313
883.64	3363
883.766	3302
883.892	3165
884.018	3211
884.143	3401
884.269	3504
884.395	3237
884.52	3161
884.646	3173
884.772	3154
884.897	3077
885.023	3253
885.148	3355
885.274	3469
885.399	3329
885.524	3283
885.65	3268
885.775	3291
885.9	3294
886.025	3420
886.15	3370
886.275	3291
886.4	3222
886.525	3260
886.65	3279
886.775	3260
886.9	3473
887.025	3622
887.149	3382
887.274	3226
887.399	3195
887.523	3184
887.648	3173
887.773	3173
887.897	3332
888.021	3409
888.146	3283
888.27	3443
888.395	3572
888.519	3439
888.643	3428
888.767	3424
888.891	3275
889.015	3253
889.139	3294
889.263	3260
889.387	3409
889.511	3504
889.635	3412
889.759	3253
889.883	3302
890.006	3359
890.13	3485
890.254	3279
890.377	3355
890.501	3199
890.624	3203
890.748	3310
890.871	3188
890.995	3089
891.118	3051
891.241	3188
891.364	3230
891.488	3336
891.611	3176
891.734	3226
891.857	3272
891.98	3222
892.103	3325
892.226	3306
892.349	3192
892.471	3077
892.594	3237
892.717	3275
892.839	3237
892.962	3287
893.085	3321
893.207	3298
893.33	3169
893.452	3226
893.575	3329
893.697	3237
893.819	3473
893.941	3515
894.064	3428
894.186	3245
894.308	3264
894.43	3420
894.552	3526
894.674	3492
894.796	3237
894.918	3317
895.04	3310
895.161	3466
895.283	3431
895.405	3306
895.526	3359
895.648	3447
895.769	3450
895.891	3473
896.012	3412
896.134	3477
896.255	3454
896.376	3351
896.498	3359
896.619	3416
896.74	3393
896.861	3367
896.982	3713
897.103	3873
897.224	3534
897.345	3469
897.466	3374
897.587	3477
897.708	3629
897.828	3526
897.949	3450
898.07	3355
898.19	3401
898.311	3580
898.431	3443
898.552	3496
898.672	3591
898.792	3599
898.913	3526
899.033	3424
899.153	3279
899.273	3199
899.393	3310
899.513	3325
899.633	3344
899.753	3313
899.873	3351
899.993	3389
900.113	3363
900.232	3367
900.352	3355
900.472	3294
900.591	3199
900.711	3313
900.83	3233
900.95	3412
901.069	3488
901.189	3378
901.308	3203
901.427	3184
901.546	3157
901.665	3294
901.784	3351
901.904	3165
902.023	3138
902.141	3017
902.26	3039
902.379	3150
902.498	3081
902.617	3047
902.735	3203
902.854	3199
902.973	3203
903.091	3028
903.21	3074
903.328	3123
903.446	3070
903.565	3112
903.683	3192
903.801	3119
903.919	3245
904.038	3313
904.156	3161
904.274	3268
904.392	3272
904.51	3249
904.627	3298
904.745	3424
904.863	3523
904.981	3218
905.098	3169
905.216	3230
905.334	3268
905.451	3321
905.569	3268
905.686	3405
905.803	3466
905.921	3283
906.038	3405
906.155	3351
906.272	3253
906.389	3351
906.506	3214
906.623	3272
906.74	3256
906.857	3150
906.974	3237
907.091	3450
907.208	3572
907.324	3492
907.441	3401
907.557	3218
907.674	3214
907.79	3180
907.907	3256
908.023	3382
908.139	3370
908.256	3351
908.372	3382
908.488	3317
908.604	3249
908.72	3237
908.836	3214
908.952	3291
909.068	3306
909.184	3462
909.3	3355
909.415	3473
909.531	3469
909.647	3283
909.762	3275
909.878	3256
909.993	3370
910.108	3317
910.224	3317
910.339	3424
910.454	3332
910.57	3275
910.685	3218
910.8	3591
910.915	3515
911.03	3428
911.145	3283
911.259	3287
911.374	3260
911.489	3253
911.604	3214
911.718	3097
911.833	3169
911.947	3024
912.062	2967
912.176	3131
912.291	3195
912.405	3214
912.519	3458
912.633	3473
912.748	3351
912.862	3253
912.976	3161
913.09	3081
913.204	3097
913.318	3207
913.431	3336
913.545	3332
913.659	3416
913.772	3332
913.886	3237
914	3218
914.113	3382
914.226	3409
914.34	3370
914.453	3199
914.566	3348
914.68	3264
914.793	3306
914.906	3138
915.019	3085
915.132	3066
915.245	3161
915.358	3218
915.47	3199
915.583	3279
915.696	3283
915.809	3431
915.921	3378
916.034	3241
916.146	3241
916.259	3165
916.371	3386
916.483	3359
916.595	3260
916.708	3340
916.82	3321
916.932	3329
917.044	3275
917.156	3344
917.268	3237
917.38	3272
917.491	3291
917.603	3374
917.715	3439
917.826	3439
917.938	3359
918.049	3256
918.161	3382
918.272	3595
918.384	3553
918.495	3462
918.606	3321
918.717	3279
918.828	3405
918.939	3420
919.05	3291
919.161	3367
919.272	3131
919.383	3260
919.494	3488
919.604	3713
919.715	3473
919.826	3386
919.936	3450
920.047	3603
920.157	3538
920.267	3766
920.378	3576
920.488	3526
920.598	3747
920.708	3953
920.818	3835
920.928	3816
921.038	4059
921.148	4017
921.258	3701
921.368	3648
921.477	3561
921.587	3557
921.697	3469
921.806	3622
921.916	3500
922.025	3310
922.134	3332
922.244	3287
922.353	3443
922.462	3253
922.571	3237
922.68	3127
922.789	3074
922.898	3112
923.007	3062
923.116	3218
923.224	3169
923.333	3192
923.442	3093
923.55	3089
923.659	3138
923.767	3214
923.876	3119
923.984	3260
924.092	3089
924.201	3211
924.309	3192
924.417	3241
924.525	3176
924.633	3218
924.741	4017
924.849	3051
924.956	3283
925.064	3085
925.172	3036
925.279	3108
925.387	3211
925.494	3207
925.602	3336
925.709	3310
925.816	3199
925.924	3291
926.031	3416
926.138	3287
926.245	3374
926.352	3233
926.459	3382
926.566	3481
926.673	3340
926.779	3249
926.886	3237
926.993	3150
927.099	3112
927.206	3089
927.312	3131
927.419	3253
927.525	3237
927.631	3260
927.737	3123
927.843	3142
927.95	3020
928.056	3123
928.162	3154
928.267	3241
928.373	3865
928.479	3302
928.585	3097
928.69	3233
928.796	3325
928.901	3123
929.007	3051
929.112	3237
929.218	3150
929.323	3135
929.428	3142
929.533	3283
929.638	3131
929.743	3161
929.848	3272
929.953	3237
930.058	3119
930.163	2986
930.267	3066
930.372	3203
930.477	3039
930.581	3275
930.685	3195
930.79	3051
930.894	3119
930.998	3097
931.103	3294
931.207	2906
931.311	2956
931.415	2922
931.519	2773
931.623	2834
