Data from test_V78500241_822.txt Node
Date: Fri Mar 25 16:20:53 CST 2022
User: usil
Spectrometer: V785-0024
Trigger mode: 0
Integration Time (sec): 4.000000E-1
Scans to average: 1
Nonlinearity correction enabled: false
Boxcar width: 0
Storing dark spectrum: false
XAxis mode: Wavelengths
Number of Pixels in Spectrum: 1024
>>>>>Begin Spectral Data<<<<<
801.071	2971
801.214	3009
801.356	2914
801.499	2975
801.641	2933
801.783	2975
801.926	3119
802.068	3043
802.211	2998
802.353	3066
802.496	3024
802.638	3051
802.78	3074
802.923	3089
803.065	3024
803.208	2944
803.35	2963
803.492	2937
803.635	2982
803.777	2804
803.919	2891
804.061	3233
804.204	2998
804.346	2933
804.488	2883
804.63	3020
804.773	2906
804.915	2918
805.057	3150
805.199	2933
805.341	3005
805.483	3104
805.626	3051
805.768	2971
805.91	3112
806.052	3146
806.194	3100
806.336	3294
806.478	3032
806.62	2975
806.762	3005
806.904	3089
807.046	3199
807.188	3039
807.33	2948
807.472	2994
807.614	2960
807.756	3032
807.898	2948
808.04	2922
808.182	2998
808.324	2975
808.465	2906
808.607	2925
808.749	2819
808.891	2857
809.033	3005
809.174	2971
809.316	2880
809.458	2906
809.6	2830
809.741	2819
809.883	2792
810.025	2887
810.166	2880
810.308	2910
810.45	2868
810.591	2807
810.733	2800
810.875	2868
811.016	2826
811.158	2834
811.299	2834
811.441	2971
811.582	2937
811.724	2853
811.865	2849
812.007	2914
812.148	2872
812.29	2857
812.431	2929
812.573	2925
812.714	3036
812.855	3085
812.997	3085
813.138	3119
813.279	3043
813.421	3043
813.562	2975
813.703	2899
813.845	2902
813.986	2788
814.127	2746
814.268	2876
814.41	2857
814.551	2823
814.692	2895
814.833	2868
814.974	2948
815.115	2990
815.256	2861
815.397	2796
815.539	2895
815.68	2815
815.821	2807
815.962	2979
816.103	2979
816.244	2895
816.385	2883
816.526	3013
816.666	2906
816.807	2746
816.948	2902
817.089	2929
817.23	2864
817.371	2800
817.512	2800
817.653	2891
817.793	2834
817.934	2910
818.075	3013
818.216	3001
818.356	3039
818.497	2899
818.638	2830
818.778	2845
818.919	2796
819.06	2792
819.2	2941
819.341	2849
819.481	2823
819.622	2933
819.762	3100
819.903	3066
820.043	2967
820.184	2944
820.324	2883
820.465	3028
820.605	3066
820.746	3066
820.886	2979
821.026	3093
821.167	3161
821.307	3298
821.447	3298
821.588	3272
821.728	3207
821.868	3195
822.008	3131
822.149	3184
822.289	3260
822.429	3104
822.569	3081
822.709	3188
822.849	3005
822.99	3093
823.13	3192
823.27	3218
823.41	3127
823.55	3142
823.69	3214
823.83	3222
823.97	3138
824.11	3020
824.25	3017
824.389	3043
824.529	3157
824.669	3100
824.809	3199
824.949	3294
825.089	3237
825.228	3222
825.368	3028
825.508	3001
825.648	2971
825.787	3036
825.927	3055
826.067	3047
826.206	2963
826.346	3077
826.485	3043
826.625	3119
826.765	3230
826.904	3199
827.044	3005
827.183	2933
827.323	2887
827.462	3020
827.601	2952
827.741	2986
827.88	2971
828.02	2864
828.159	2967
828.298	3047
828.437	3131
828.577	3074
828.716	3241
828.855	3104
828.994	2967
829.134	2861
829.273	2956
829.412	2899
829.551	2906
829.69	2899
829.829	2971
829.968	3138
830.107	3032
830.246	3085
830.385	2925
830.524	2876
830.663	2853
830.802	2762
830.941	2678
831.08	2674
831.219	2785
831.357	2777
831.496	2960
831.635	2712
831.774	2663
831.913	2663
832.051	2545
832.19	2590
832.329	2686
832.467	2571
832.606	2503
832.744	2583
832.883	2583
833.022	2602
833.16	2674
833.299	2670
833.437	2716
833.576	2720
833.714	2705
833.852	2731
833.991	2788
834.129	2838
834.267	2845
834.406	2785
834.544	2853
834.682	2887
834.821	2929
834.959	3024
835.097	2910
835.235	3074
835.373	3005
835.511	3020
835.65	2979
835.788	2960
835.926	2880
836.064	2807
836.202	2868
836.34	3112
836.478	3154
836.615	3066
836.753	3146
836.891	3211
837.029	3157
837.167	3097
837.305	3089
837.443	2998
837.58	3009
837.718	3173
837.856	3100
837.993	3047
838.131	3180
838.269	3100
838.406	3085
838.544	3119
838.681	2937
838.819	2925
838.956	2826
839.094	2842
839.231	2937
839.369	3062
839.506	3401
839.643	3249
839.781	3013
839.918	2979
840.055	3089
840.193	3070
840.33	3070
840.467	3146
840.604	3161
840.742	3428
840.879	3074
841.016	3081
841.153	3131
841.29	3329
841.427	3310
841.564	3287
841.701	3321
841.838	3279
841.975	3188
842.112	3214
842.249	3066
842.385	3066
842.522	3253
842.659	3112
842.796	3097
842.933	3142
843.069	3043
843.206	3055
843.343	3157
843.479	3116
843.616	3161
843.752	2910
843.889	2868
844.025	3135
844.162	2872
844.298	3100
844.435	2937
844.571	2918
844.708	3085
844.844	3173
844.98	3272
845.117	3192
845.253	3028
845.389	3028
845.525	3138
845.661	3131
845.798	3036
845.934	3127
846.07	3085
846.206	3230
846.342	3321
846.478	3199
846.614	3100
846.75	3093
846.886	3062
847.022	3233
847.158	3169
847.294	3218
847.429	3302
847.565	3226
847.701	3488
847.837	3100
847.972	3032
848.108	3188
848.244	3157
848.379	2994
848.515	2975
848.65	2929
848.786	2998
848.921	3020
849.057	3123
849.192	3161
849.328	3093
849.463	3108
849.598	3055
849.734	3051
849.869	2994
850.004	2948
850.14	2986
850.275	2933
850.41	2815
850.545	2883
850.68	2960
850.815	2971
850.95	2963
851.085	3176
851.22	3116
851.355	3043
851.49	2971
851.625	2982
851.76	3013
851.895	2971
852.03	2922
852.165	3039
852.299	3074
852.434	3173
852.569	3131
852.703	3131
852.838	3230
852.973	3332
853.107	3325
853.242	3154
853.376	3058
853.511	3001
853.645	3077
853.78	3294
853.914	3116
854.048	3135
854.183	3077
854.317	3154
854.451	3302
854.585	3116
854.72	3104
854.854	3199
854.988	3043
855.122	3089
855.256	2963
855.39	3097
855.524	3230
855.658	3226
855.792	3150
855.926	3180
856.06	3230
856.194	3272
856.327	3157
856.461	3051
856.595	3100
856.729	3100
856.862	3230
856.996	3169
857.13	3203
857.263	3230
857.397	3287
857.53	3127
857.664	3192
857.797	3207
857.931	3260
858.064	3180
858.197	3241
858.331	3127
858.464	3123
858.597	3009
858.731	3161
858.864	3123
858.997	3081
859.13	3142
859.263	3165
859.396	3188
859.529	3100
859.662	3043
859.795	3036
859.928	3127
860.061	3291
860.194	3275
860.327	3123
860.46	3074
860.592	3195
860.725	3230
860.858	3275
860.99	3112
861.123	3058
861.256	3058
861.388	3146
861.521	3907
861.653	3005
861.786	2971
861.918	2975
862.05	3062
862.183	3116
862.315	3142
862.447	3203
862.58	3077
862.712	2929
862.844	2880
862.976	3032
863.108	3043
863.24	3283
863.372	2895
863.504	3009
863.636	2963
863.768	3062
863.9	2979
864.032	2918
864.164	2952
864.296	3074
864.428	3119
864.559	3108
864.691	3077
864.823	3112
864.954	3020
865.086	3047
865.217	2952
865.349	2971
865.48	2963
865.612	3017
865.743	3138
865.875	2971
866.006	2933
866.137	2998
866.269	2944
866.4	2925
866.531	2986
866.662	2914
866.793	2864
866.924	2937
867.055	2937
867.186	2887
867.317	2902
867.448	2838
867.579	2864
867.71	2872
867.841	2815
867.972	2910
868.103	2876
868.233	2868
868.364	2876
868.495	2906
868.625	3062
868.756	3142
868.886	2971
869.017	3039
869.147	3154
869.278	3211
869.408	3039
869.539	3066
869.669	3089
869.799	3043
869.929	3150
870.06	3127
870.19	3310
870.32	3302
870.45	3291
870.58	3321
870.71	3458
870.84	3450
870.97	3306
871.1	3268
871.23	3447
871.36	3469
871.489	3348
871.619	3397
871.749	3428
871.879	3439
872.008	3469
872.138	3340
872.267	3268
872.397	3169
872.526	3097
872.656	3020
872.785	3093
872.915	3245
873.044	3336
873.173	3173
873.303	3249
873.432	3218
873.561	3226
873.69	3199
873.819	3123
873.948	3199
874.077	3093
874.206	3047
874.335	3112
874.464	3207
874.593	3329
874.722	3253
874.851	3397
874.979	3317
875.108	3325
875.237	3176
875.365	3135
875.494	3142
875.623	3256
875.751	3108
875.88	3100
876.008	3165
876.136	3218
876.265	3359
876.393	3530
876.521	3420
876.65	3367
876.778	3359
876.906	3264
877.034	3154
877.162	3230
877.29	3165
877.418	3237
877.546	3245
877.674	3218
877.802	3253
877.93	3245
878.058	3146
878.185	3100
878.313	3211
878.441	3222
878.568	3043
878.696	3135
878.824	3272
878.951	3306
879.079	3447
879.206	3641
879.333	3443
879.461	3348
879.588	3355
879.715	3481
879.842	3603
879.97	3405
880.097	3173
880.224	3119
880.351	3157
880.478	3222
880.605	3180
880.732	3233
880.859	3458
880.986	3283
881.112	3306
881.239	3218
881.366	3116
881.493	2982
881.619	3024
881.746	3066
881.872	3093
881.999	3112
882.125	3161
882.252	3260
882.378	3272
882.505	3412
882.631	3306
882.757	3146
882.883	3253
883.01	3233
883.136	3146
883.262	3074
883.388	3100
883.514	3382
883.64	3428
883.766	3302
883.892	3173
884.018	3176
884.143	3435
884.269	3557
884.395	3169
884.52	3150
884.646	3142
884.772	3138
884.897	3077
885.023	3233
885.148	3348
885.274	3420
885.399	3397
885.524	3294
885.65	3233
885.775	3294
885.9	3260
886.025	3412
886.15	3378
886.275	3241
886.4	3260
886.525	3298
886.65	3256
886.775	3237
886.9	3485
887.025	3641
887.149	3409
887.274	3222
887.399	3154
887.523	3180
887.648	3188
887.773	3207
887.897	3370
888.021	3405
888.146	3329
888.27	3443
888.395	3492
888.519	3443
888.643	3424
888.767	3458
888.891	3306
889.015	3222
889.139	3260
889.263	3245
889.387	3405
889.511	3466
889.635	3481
889.759	3294
889.883	3325
890.006	3386
890.13	3523
890.254	3260
890.377	3329
890.501	3184
890.624	3199
890.748	3272
890.871	3195
890.995	3127
891.118	3032
891.241	3154
891.364	3207
891.488	3325
891.611	3195
891.734	3192
891.857	3310
891.98	3222
892.103	3348
892.226	3279
892.349	3192
892.471	3112
892.594	3233
892.717	3336
892.839	3241
892.962	3279
893.085	3359
893.207	3302
893.33	3142
893.452	3207
893.575	3329
893.697	3237
893.819	3439
893.941	3469
894.064	3435
894.186	3214
894.308	3245
894.43	3447
894.552	3538
894.674	3469
894.796	3233
894.918	3287
895.04	3275
895.161	3450
895.283	3389
895.405	3317
895.526	3355
895.648	3439
895.769	3420
895.891	3462
896.012	3511
896.134	3458
896.255	3412
896.376	3378
896.498	3367
896.619	3458
896.74	3386
896.861	3374
896.982	3698
897.103	3842
897.224	3587
897.345	3511
897.466	3447
897.587	3504
897.708	3595
897.828	3534
897.949	3447
898.07	3336
898.19	3397
898.311	3564
898.431	3462
898.552	3515
898.672	3591
898.792	3572
898.913	3515
899.033	3462
899.153	3287
899.273	3214
899.393	3283
899.513	3298
899.633	3310
899.753	3294
899.873	3317
899.993	3405
900.113	3363
900.232	3409
900.352	3321
900.472	3275
900.591	3222
900.711	3325
900.83	3237
900.95	3405
901.069	3507
901.189	3336
901.308	3192
901.427	3135
901.546	3211
901.665	3287
901.784	3313
901.904	3161
902.023	3138
902.141	3039
902.26	2986
902.379	3135
902.498	3077
902.617	3077
902.735	3184
902.854	3218
902.973	3180
903.091	3058
903.21	3028
903.328	3135
903.446	3108
903.565	3112
903.683	3173
903.801	3142
903.919	3230
904.038	3279
904.156	3180
904.274	3294
904.392	3230
904.51	3294
904.627	3321
904.745	3435
904.863	3504
904.981	3264
905.098	3176
905.216	3207
905.334	3268
905.451	3272
905.569	3275
905.686	3431
905.803	3477
905.921	3291
906.038	3405
906.155	3344
906.272	3294
906.389	3329
906.506	3226
906.623	3256
906.74	3272
906.857	3157
906.974	3233
907.091	3412
907.208	3538
907.324	3492
907.441	3378
907.557	3203
907.674	3222
907.79	3214
907.907	3260
908.023	3329
908.139	3409
908.256	3332
908.372	3359
908.488	3359
908.604	3245
908.72	3230
908.836	3291
908.952	3233
909.068	3317
909.184	3481
909.3	3374
909.415	3504
909.531	3469
909.647	3253
909.762	3275
909.878	3249
909.993	3340
910.108	3340
910.224	3336
910.339	3351
910.454	3321
910.57	3294
910.685	3260
910.8	3591
910.915	3534
911.03	3473
911.145	3256
911.259	3253
911.374	3275
911.489	3249
911.604	3211
911.718	3142
911.833	3173
911.947	3028
912.062	2982
912.176	3123
912.291	3211
912.405	3157
912.519	3397
912.633	3477
912.748	3367
912.862	3237
912.976	3165
913.09	3070
913.204	3116
913.318	3226
913.431	3291
913.545	3325
913.659	3431
913.772	3313
913.886	3188
914	3203
914.113	3329
914.226	3435
914.34	3370
914.453	3199
914.566	3469
914.68	3283
914.793	3329
914.906	3119
915.019	3150
915.132	3055
915.245	3173
915.358	3192
915.47	3222
915.583	3253
915.696	3287
915.809	3359
915.921	3409
916.034	3272
916.146	3241
916.259	3214
916.371	3344
916.483	3351
916.595	3268
916.708	3302
916.82	3351
916.932	3332
917.044	3367
917.156	3294
917.268	3237
917.38	3294
917.491	3298
917.603	3370
917.715	3443
917.826	3466
917.938	3386
918.049	3275
918.161	3439
918.272	3614
918.384	3625
918.495	3515
918.606	3374
918.717	3279
918.828	3351
918.939	3405
919.05	3275
919.161	3348
919.272	3176
919.383	3272
919.494	3473
919.604	3671
919.715	3485
919.826	3386
919.936	3428
920.047	3557
920.157	3530
920.267	3774
920.378	3606
920.488	3580
920.598	3778
920.708	3975
920.818	3873
920.928	3823
921.038	4006
921.148	3975
921.258	3690
921.368	3637
921.477	3599
921.587	3538
921.697	3466
921.806	3587
921.916	3523
922.025	3294
922.134	3344
922.244	3264
922.353	3412
922.462	3230
922.571	3188
922.68	3077
922.789	3062
922.898	3116
923.007	3093
923.116	3199
923.224	3192
923.333	3192
923.442	3108
923.55	3055
923.659	3131
923.767	3188
923.876	3093
923.984	3218
924.092	3097
924.201	3211
924.309	3253
924.417	3287
924.525	3207
924.633	3233
924.741	4006
924.849	3043
924.956	3260
925.064	3112
925.172	3032
925.279	3127
925.387	3199
925.494	3138
925.602	3351
925.709	3332
925.816	3176
925.924	3268
926.031	3348
926.138	3294
926.245	3329
926.352	3268
926.459	3409
926.566	3469
926.673	3310
926.779	3237
926.886	3222
926.993	3146
927.099	3116
927.206	3093
927.312	3093
927.419	3253
927.525	3184
927.631	3241
927.737	3161
927.843	3142
927.95	3024
928.056	3119
928.162	3173
928.267	3222
928.373	3781
928.479	3336
928.585	3066
928.69	3214
928.796	3310
928.901	3161
929.007	3032
929.112	3233
929.218	3192
929.323	3146
929.428	3127
929.533	3310
929.638	3097
929.743	3165
929.848	3268
929.953	3203
930.058	3131
930.163	2941
930.267	3028
930.372	3165
930.477	3005
930.581	3287
930.685	3165
930.79	3009
930.894	3169
930.998	3043
931.103	3302
931.207	2963
931.311	2922
931.415	2891
931.519	2788
931.623	2807
