Data from test_V78500241_462.txt Node
Date: Fri Mar 25 16:18:24 CST 2022
User: usil
Spectrometer: V785-0024
Trigger mode: 0
Integration Time (sec): 4.000000E-1
Scans to average: 1
Nonlinearity correction enabled: false
Boxcar width: 0
Storing dark spectrum: false
XAxis mode: Wavelengths
Number of Pixels in Spectrum: 1024
>>>>>Begin Spectral Data<<<<<
801.071	2914
801.214	2956
801.356	2891
801.499	2914
801.641	2933
801.783	2948
801.926	3051
802.068	2956
802.211	3051
802.353	3043
802.496	2990
802.638	3024
802.78	3051
802.923	3066
803.065	3009
803.208	2925
803.35	2933
803.492	2948
803.635	2918
803.777	2746
803.919	2902
804.061	3192
804.204	2979
804.346	2899
804.488	2880
804.63	3036
804.773	2910
804.915	2918
805.057	3089
805.199	2941
805.341	2952
805.483	3058
805.626	3020
805.768	3009
805.91	3108
806.052	3138
806.194	3017
806.336	3237
806.478	3032
806.62	2937
806.762	2979
806.904	3051
807.046	3157
807.188	2960
807.33	2906
807.472	2998
807.614	2918
807.756	3001
807.898	2910
808.04	2914
808.182	2998
808.324	2933
808.465	2914
808.607	2864
808.749	2804
808.891	2849
809.033	2990
809.174	2956
809.316	2861
809.458	2876
809.6	2792
809.741	2777
809.883	2766
810.025	2880
810.166	2857
810.308	2830
810.45	2880
810.591	2800
810.733	2746
810.875	2819
811.016	2758
811.158	2758
811.299	2838
811.441	2925
811.582	2880
811.724	2819
811.865	2815
812.007	2902
812.148	2902
812.29	2857
812.431	2880
812.573	2929
812.714	2956
812.855	3051
812.997	3039
813.138	3097
813.279	2998
813.421	2998
813.562	2937
813.703	2849
813.845	2895
813.986	2792
814.127	2731
814.268	2800
814.41	2842
814.551	2826
814.692	2880
814.833	2849
814.974	2922
815.115	2971
815.256	2826
815.397	2826
815.539	2883
815.68	2785
815.821	2804
815.962	2914
816.103	2902
816.244	2853
816.385	2849
816.526	2952
816.666	2925
816.807	2754
816.948	2899
817.089	2899
817.23	2849
817.371	2750
817.512	2762
817.653	2842
817.793	2842
817.934	2902
818.075	2944
818.216	2941
818.356	3009
818.497	2876
818.638	2815
818.778	2842
818.919	2781
819.06	2746
819.2	2845
819.341	2800
819.481	2796
819.622	2941
819.762	3085
819.903	3051
820.043	2937
820.184	2895
820.324	2910
820.465	3039
820.605	3013
820.746	3028
820.886	2891
821.026	3085
821.167	3188
821.307	3268
821.447	3329
821.588	3226
821.728	3214
821.868	3184
822.008	3043
822.149	3184
822.289	3272
822.429	3119
822.569	3077
822.709	3192
822.849	3047
822.99	3066
823.13	3154
823.27	3195
823.41	3123
823.55	3138
823.69	3150
823.83	3218
823.97	3112
824.11	2990
824.25	3028
824.389	3070
824.529	3135
824.669	3097
824.809	3241
824.949	3310
825.089	3237
825.228	3214
825.368	3062
825.508	2986
825.648	3017
825.787	3013
825.927	3062
826.067	2975
826.206	2990
826.346	3058
826.485	3104
826.625	3123
826.765	3313
826.904	3214
827.044	3017
827.183	2979
827.323	2922
827.462	3055
827.601	2941
827.741	2990
827.88	2986
828.02	2872
828.159	3009
828.298	3074
828.437	3157
828.577	3058
828.716	3302
828.855	3165
828.994	2952
829.134	2979
829.273	3005
829.412	2914
829.551	2868
829.69	2925
829.829	3009
829.968	3184
830.107	3070
830.246	3055
830.385	2975
830.524	2956
830.663	2838
830.802	2754
830.941	2670
831.08	2686
831.219	2800
831.357	2773
831.496	2941
831.635	2750
831.774	2686
831.913	2693
832.051	2606
832.19	2587
832.329	2735
832.467	2610
832.606	2541
832.744	2648
832.883	2625
833.022	2613
833.16	2701
833.299	2762
833.437	2716
833.576	2739
833.714	2754
833.852	2766
833.991	2781
834.129	2880
834.267	2899
834.406	2815
834.544	2922
834.682	2941
834.821	2910
834.959	3112
835.097	2963
835.235	3097
835.373	3032
835.511	3043
835.65	2994
835.788	3017
835.926	2925
836.064	2838
836.202	2845
836.34	3093
836.478	3157
836.615	3100
836.753	3157
836.891	3218
837.029	3188
837.167	3104
837.305	3116
837.443	3070
837.58	2960
837.718	3161
837.856	3081
837.993	3070
838.131	3131
838.269	3119
838.406	3077
838.544	3131
838.681	2975
838.819	2979
838.956	2872
839.094	2887
839.231	2979
839.369	3051
839.506	3389
839.643	3256
839.781	3032
839.918	3009
840.055	3066
840.193	3070
840.33	3108
840.467	3116
840.604	3180
840.742	3462
840.879	3097
841.016	3074
841.153	3146
841.29	3344
841.427	3325
841.564	3283
841.701	3336
841.838	3226
841.975	3199
842.112	3233
842.249	3112
842.385	3047
842.522	3313
842.659	3123
842.796	3089
842.933	3127
843.069	3058
843.206	3062
843.343	3214
843.479	3131
843.616	3138
843.752	2910
843.889	2918
844.025	3062
844.162	2910
844.298	3104
844.435	2944
844.571	2960
844.708	3077
844.844	3173
844.98	3253
845.117	3241
845.253	3085
845.389	3013
845.525	3119
845.661	3146
845.798	3024
845.934	3165
846.07	3108
846.206	3241
846.342	3332
846.478	3264
846.614	3108
846.75	3055
846.886	3043
847.022	3260
847.158	3150
847.294	3214
847.429	3253
847.565	3260
847.701	3500
847.837	3089
847.972	3024
848.108	3161
848.244	3157
848.379	3028
848.515	2963
848.65	2944
848.786	3001
848.921	3055
849.057	3135
849.192	3161
849.328	3119
849.463	3157
849.598	3100
849.734	3077
849.869	3009
850.004	2967
850.14	2998
850.275	2929
850.41	2887
850.545	2876
850.68	2971
850.815	2956
850.95	3009
851.085	3245
851.22	3154
851.355	3089
851.49	3005
851.625	3055
851.76	3055
851.895	2948
852.03	2952
852.165	3085
852.299	3157
852.434	3195
852.569	3154
852.703	3233
852.838	3291
852.973	3386
853.107	3351
853.242	3188
853.376	3119
853.511	2979
853.645	3070
853.78	3233
853.914	3135
854.048	3138
854.183	3085
854.317	3154
854.451	3310
854.585	3184
854.72	3135
854.854	3249
854.988	3093
855.122	3142
855.256	3009
855.39	3135
855.524	3291
855.658	3245
855.792	3180
855.926	3199
856.06	3245
856.194	3268
856.327	3157
856.461	3116
856.595	3085
856.729	3100
856.862	3241
856.996	3188
857.13	3222
857.263	3272
857.397	3287
857.53	3173
857.664	3249
857.797	3264
857.931	3294
858.064	3222
858.197	3241
858.331	3161
858.464	3104
858.597	3055
858.731	3146
858.864	3173
858.997	3131
859.13	3184
859.263	3207
859.396	3233
859.529	3104
859.662	3104
859.795	3058
859.928	3173
860.061	3317
860.194	3310
860.327	3150
860.46	3108
860.592	3264
860.725	3268
860.858	3249
860.99	3074
861.123	3043
861.256	3100
861.388	3169
861.521	3964
861.653	3005
861.786	3001
861.918	3077
862.05	3058
862.183	3108
862.315	3142
862.447	3253
862.58	3119
862.712	2937
862.844	2918
862.976	3108
863.108	3039
863.24	3351
863.372	2872
863.504	3005
863.636	2990
863.768	3055
863.9	2986
864.032	2895
864.164	2952
864.296	3028
864.428	3112
864.559	3127
864.691	3085
864.823	3093
864.954	3043
865.086	3077
865.217	3017
865.349	2971
865.48	3020
865.612	3032
865.743	3203
865.875	2975
866.006	2956
866.137	2971
866.269	2967
866.4	2929
866.531	2941
866.662	2880
866.793	2895
866.924	2887
867.055	2990
867.186	2941
867.317	2948
867.448	2895
867.579	2872
867.71	2899
867.841	2880
867.972	2899
868.103	2922
868.233	2922
868.364	2883
868.495	2922
868.625	3142
868.756	3184
868.886	2990
869.017	3013
869.147	3169
869.278	3176
869.408	3062
869.539	3055
869.669	3062
869.799	3051
869.929	3138
870.06	3104
870.19	3329
870.32	3291
870.45	3287
870.58	3389
870.71	3500
870.84	3500
870.97	3310
871.1	3264
871.23	3488
871.36	3469
871.489	3378
871.619	3412
871.749	3439
871.879	3469
872.008	3519
872.138	3393
872.267	3283
872.397	3173
872.526	3100
872.656	3074
872.785	3116
872.915	3256
873.044	3310
873.173	3230
873.303	3256
873.432	3241
873.561	3249
873.69	3207
873.819	3161
873.948	3222
874.077	3119
874.206	3070
874.335	3123
874.464	3249
874.593	3386
874.722	3222
874.851	3405
874.979	3351
875.108	3374
875.237	3233
875.365	3214
875.494	3169
875.623	3253
875.751	3104
875.88	3116
876.008	3211
876.136	3230
876.265	3405
876.393	3523
876.521	3443
876.65	3393
876.778	3344
876.906	3233
877.034	3184
877.162	3310
877.29	3207
877.418	3268
877.546	3268
877.674	3272
877.802	3283
877.93	3272
878.058	3184
878.185	3154
878.313	3195
878.441	3222
878.568	3100
878.696	3154
878.824	3233
878.951	3317
879.079	3473
879.206	3557
879.333	3458
879.461	3363
879.588	3351
879.715	3519
879.842	3587
879.97	3409
880.097	3218
880.224	3108
880.351	3249
880.478	3256
880.605	3226
880.732	3214
880.859	3507
880.986	3310
881.112	3363
881.239	3226
881.366	3100
881.493	3058
881.619	3032
881.746	3070
881.872	3085
881.999	3123
882.125	3165
882.252	3207
882.378	3264
882.505	3462
882.631	3294
882.757	3157
882.883	3222
883.01	3253
883.136	3169
883.262	3131
883.388	3100
883.514	3340
883.64	3397
883.766	3291
883.892	3226
884.018	3222
884.143	3439
884.269	3542
884.395	3249
884.52	3207
884.646	3184
884.772	3104
884.897	3097
885.023	3203
885.148	3287
885.274	3409
885.399	3378
885.524	3329
885.65	3264
885.775	3325
885.9	3275
886.025	3428
886.15	3405
886.275	3332
886.4	3249
886.525	3317
886.65	3313
886.775	3272
886.9	3530
887.025	3641
887.149	3447
887.274	3329
887.399	3184
887.523	3192
887.648	3192
887.773	3169
887.897	3367
888.021	3409
888.146	3348
888.27	3477
888.395	3542
888.519	3424
888.643	3496
888.767	3473
888.891	3298
889.015	3241
889.139	3306
889.263	3302
889.387	3401
889.511	3477
889.635	3416
889.759	3336
889.883	3332
890.006	3409
890.13	3477
890.254	3298
890.377	3351
890.501	3188
890.624	3146
890.748	3344
890.871	3195
890.995	3089
891.118	3070
891.241	3214
891.364	3249
891.488	3298
891.611	3192
891.734	3237
891.857	3310
891.98	3264
892.103	3340
892.226	3283
892.349	3188
892.471	3157
892.594	3241
892.717	3279
892.839	3275
892.962	3302
893.085	3359
893.207	3306
893.33	3184
893.452	3214
893.575	3378
893.697	3253
893.819	3477
893.941	3507
894.064	3466
894.186	3321
894.308	3317
894.43	3454
894.552	3530
894.674	3458
894.796	3272
894.918	3306
895.04	3344
895.161	3454
895.283	3382
895.405	3302
895.526	3382
895.648	3409
895.769	3450
895.891	3469
896.012	3481
896.134	3458
896.255	3431
896.376	3401
896.498	3367
896.619	3454
896.74	3374
896.861	3393
896.982	3701
897.103	3823
897.224	3618
897.345	3542
897.466	3431
897.587	3542
897.708	3629
897.828	3530
897.949	3420
898.07	3298
898.19	3458
898.311	3610
898.431	3420
898.552	3572
898.672	3614
898.792	3564
898.913	3545
899.033	3431
899.153	3302
899.273	3222
899.393	3310
899.513	3332
899.633	3355
899.753	3348
899.873	3306
899.993	3363
900.113	3332
900.232	3382
900.352	3351
900.472	3313
900.591	3192
900.711	3310
900.83	3226
900.95	3397
901.069	3466
901.189	3359
901.308	3180
901.427	3116
901.546	3161
901.665	3351
901.784	3332
901.904	3192
902.023	3150
902.141	3043
902.26	3024
902.379	3112
902.498	3074
902.617	3032
902.735	3214
902.854	3264
902.973	3154
903.091	3074
903.21	3081
903.328	3135
903.446	3116
903.565	3093
903.683	3188
903.801	3119
903.919	3294
904.038	3302
904.156	3180
904.274	3294
904.392	3291
904.51	3298
904.627	3351
904.745	3435
904.863	3496
904.981	3272
905.098	3184
905.216	3241
905.334	3348
905.451	3310
905.569	3313
905.686	3405
905.803	3424
905.921	3336
906.038	3428
906.155	3386
906.272	3256
906.389	3340
906.506	3253
906.623	3287
906.74	3287
906.857	3207
906.974	3272
907.091	3443
907.208	3576
907.324	3477
907.441	3397
907.557	3253
907.674	3253
907.79	3222
907.907	3260
908.023	3393
908.139	3401
908.256	3382
908.372	3344
908.488	3344
908.604	3279
908.72	3237
908.836	3317
908.952	3302
909.068	3351
909.184	3500
909.3	3405
909.415	3500
909.531	3485
909.647	3272
909.762	3294
909.878	3291
909.993	3382
910.108	3370
910.224	3367
910.339	3443
910.454	3344
910.57	3275
910.685	3245
910.8	3599
910.915	3534
911.03	3428
911.145	3272
911.259	3283
911.374	3329
911.489	3245
911.604	3222
911.718	3123
911.833	3154
911.947	3062
912.062	2975
912.176	3214
912.291	3211
912.405	3230
912.519	3458
912.633	3492
912.748	3310
912.862	3306
912.976	3154
913.09	3047
913.204	3138
913.318	3222
913.431	3325
913.545	3306
913.659	3420
913.772	3336
913.886	3241
914	3176
914.113	3393
914.226	3382
914.34	3363
914.453	3211
914.566	3389
914.68	3294
914.793	3249
914.906	3146
915.019	3100
915.132	3100
915.245	3150
915.358	3195
915.47	3230
915.583	3287
915.696	3302
915.809	3405
915.921	3397
916.034	3275
916.146	3253
916.259	3188
916.371	3420
916.483	3389
916.595	3241
916.708	3310
916.82	3344
916.932	3348
917.044	3302
917.156	3340
917.268	3264
917.38	3298
917.491	3275
917.603	3351
917.715	3435
917.826	3507
917.938	3348
918.049	3283
918.161	3412
918.272	3625
918.384	3515
918.495	3500
918.606	3336
918.717	3310
918.828	3412
918.939	3389
919.05	3306
919.161	3336
919.272	3169
919.383	3264
919.494	3545
919.604	3690
919.715	3511
919.826	3409
919.936	3466
920.047	3576
920.157	3553
920.267	3774
920.378	3572
920.488	3572
920.598	3759
920.708	4002
920.818	3823
920.928	3846
921.038	4029
921.148	4032
921.258	3679
921.368	3629
921.477	3561
921.587	3500
921.697	3469
921.806	3641
921.916	3534
922.025	3351
922.134	3355
922.244	3294
922.353	3428
922.462	3241
922.571	3211
922.68	3097
922.789	3062
922.898	3135
923.007	3093
923.116	3218
923.224	3211
923.333	3176
923.442	3112
923.55	3081
923.659	3135
923.767	3253
923.876	3112
923.984	3256
924.092	3112
924.201	3199
924.309	3199
924.417	3253
924.525	3161
924.633	3275
924.741	4013
924.849	3070
924.956	3287
925.064	3104
925.172	3020
925.279	3112
925.387	3211
925.494	3253
925.602	3351
925.709	3348
925.816	3188
925.924	3321
926.031	3382
926.138	3351
926.245	3351
926.352	3264
926.459	3401
926.566	3492
926.673	3359
926.779	3237
926.886	3245
926.993	3146
927.099	3138
927.206	3150
927.312	3108
927.419	3214
927.525	3211
927.631	3291
927.737	3119
927.843	3104
927.95	3013
928.056	3157
928.162	3184
928.267	3199
928.373	3762
928.479	3370
928.585	3051
928.69	3195
928.796	3272
928.901	3138
929.007	3024
929.112	3176
929.218	3211
929.323	3116
929.428	3138
929.533	3291
929.638	3112
929.743	3176
929.848	3245
929.953	3150
930.058	3184
930.163	3005
930.267	3062
930.372	3173
930.477	3066
930.581	3363
930.685	3195
930.79	3047
930.894	3097
930.998	3112
931.103	3294
931.207	2971
931.311	2990
931.415	2914
931.519	2788
931.623	2811
