Data from test_V78500241_330.txt Node
Date: Fri Mar 25 16:17:29 CST 2022
User: usil
Spectrometer: V785-0024
Trigger mode: 0
Integration Time (sec): 4.000000E-1
Scans to average: 1
Nonlinearity correction enabled: false
Boxcar width: 0
Storing dark spectrum: false
XAxis mode: Wavelengths
Number of Pixels in Spectrum: 1024
>>>>>Begin Spectral Data<<<<<
801.071	2979
801.214	2986
801.356	2925
801.499	2948
801.641	2906
801.783	2982
801.926	3116
802.068	3039
802.211	3009
802.353	3100
802.496	2967
802.638	3047
802.78	3097
802.923	3154
803.065	3051
803.208	2929
803.35	2982
803.492	2952
803.635	2963
803.777	2792
803.919	2902
804.061	3211
804.204	2986
804.346	2933
804.488	2880
804.63	3005
804.773	2849
804.915	2929
805.057	3085
805.199	2948
805.341	3005
805.483	3085
805.626	3051
805.768	3005
805.91	3123
806.052	3123
806.194	3074
806.336	3260
806.478	3093
806.62	2975
806.762	2994
806.904	3077
807.046	3199
807.188	3020
807.33	2982
807.472	3036
807.614	2948
807.756	3013
807.898	2967
808.04	2937
808.182	2956
808.324	3001
808.465	2956
808.607	2895
808.749	2815
808.891	2864
809.033	2998
809.174	2975
809.316	2918
809.458	2941
809.6	2800
809.741	2823
809.883	2792
810.025	2864
810.166	2887
810.308	2842
810.45	2883
810.591	2826
810.733	2800
810.875	2864
811.016	2838
811.158	2769
811.299	2830
811.441	2937
811.582	2963
811.724	2857
811.865	2849
812.007	2914
812.148	2910
812.29	2891
812.431	2899
812.573	2948
812.714	3020
812.855	3066
812.997	3051
813.138	3150
813.279	3039
813.421	2986
813.562	3009
813.703	2902
813.845	2899
813.986	2773
814.127	2743
814.268	2857
814.41	2853
814.551	2876
814.692	2910
814.833	2842
814.974	2922
815.115	2967
815.256	2849
815.397	2819
815.539	2883
815.68	2807
815.821	2826
815.962	2948
816.103	2975
816.244	2887
816.385	2872
816.526	3009
816.666	2925
816.807	2758
816.948	2918
817.089	2933
817.23	2876
817.371	2819
817.512	2781
817.653	2891
817.793	2853
817.934	2899
818.075	2982
818.216	3024
818.356	3070
818.497	2937
818.638	2834
818.778	2864
818.919	2796
819.06	2819
819.2	2906
819.341	2838
819.481	2823
819.622	2971
819.762	3154
819.903	3089
820.043	2937
820.184	2925
820.324	2925
820.465	3028
820.605	3047
820.746	3039
820.886	2937
821.026	3112
821.167	3169
821.307	3264
821.447	3283
821.588	3241
821.728	3211
821.868	3199
822.008	3119
822.149	3176
822.289	3260
822.429	3146
822.569	3100
822.709	3222
822.849	3047
822.99	3077
823.13	3180
823.27	3218
823.41	3135
823.55	3161
823.69	3169
823.83	3207
823.97	3093
824.11	3005
824.25	3028
824.389	3100
824.529	3123
824.669	3085
824.809	3233
824.949	3279
825.089	3279
825.228	3146
825.368	3017
825.508	3013
825.648	3009
825.787	3013
825.927	3013
826.067	2994
826.206	2979
826.346	3062
826.485	3100
826.625	3127
826.765	3268
826.904	3222
827.044	3020
827.183	2963
827.323	2895
827.462	3013
827.601	2944
827.741	2944
827.88	2963
828.02	2834
828.159	2990
828.298	3043
828.437	3131
828.577	3047
828.716	3275
828.855	3077
828.994	2925
829.134	2925
829.273	2914
829.412	2941
829.551	2914
829.69	2895
829.829	2979
829.968	3154
830.107	3009
830.246	3051
830.385	2952
830.524	2887
830.663	2815
830.802	2796
830.941	2674
831.08	2655
831.219	2781
831.357	2788
831.496	2975
831.635	2739
831.774	2659
831.913	2678
832.051	2587
832.19	2606
832.329	2667
832.467	2545
832.606	2514
832.744	2613
832.883	2590
833.022	2640
833.16	2693
833.299	2689
833.437	2682
833.576	2701
833.714	2739
833.852	2743
833.991	2796
834.129	2861
834.267	2861
834.406	2796
834.544	2910
834.682	2895
834.821	2914
834.959	3089
835.097	2929
835.235	3077
835.373	3055
835.511	3024
835.65	2975
835.788	2963
835.926	2876
836.064	2811
836.202	2876
836.34	3089
836.478	3150
836.615	3074
836.753	3142
836.891	3241
837.029	3180
837.167	3138
837.305	3074
837.443	3062
837.58	2975
837.718	3119
837.856	3051
837.993	3043
838.131	3138
838.269	3138
838.406	3131
838.544	3123
838.681	2960
838.819	2929
838.956	2834
839.094	2876
839.231	2933
839.369	3036
839.506	3386
839.643	3230
839.781	3024
839.918	2979
840.055	3062
840.193	3066
840.33	3100
840.467	3116
840.604	3138
840.742	3389
840.879	3070
841.016	3089
841.153	3138
841.29	3382
841.427	3317
841.564	3283
841.701	3340
841.838	3260
841.975	3188
842.112	3237
842.249	3104
842.385	3055
842.522	3272
842.659	3100
842.796	3127
842.933	3100
843.069	3070
843.206	3036
843.343	3222
843.479	3116
843.616	3138
843.752	2899
843.889	2861
844.025	3123
844.162	2910
844.298	3093
844.435	2952
844.571	2902
844.708	3093
844.844	3188
844.98	3253
845.117	3211
845.253	3093
845.389	3028
845.525	3127
845.661	3142
845.798	3024
845.934	3157
846.07	3070
846.206	3268
846.342	3310
846.478	3233
846.614	3097
846.75	3066
846.886	3028
847.022	3264
847.158	3150
847.294	3218
847.429	3275
847.565	3218
847.701	3519
847.837	3036
847.972	3013
848.108	3165
848.244	3173
848.379	3001
848.515	2922
848.65	2914
848.786	2994
848.921	3028
849.057	3112
849.192	3150
849.328	3116
849.463	3127
849.598	3093
849.734	3066
849.869	2979
850.004	2918
850.14	2960
850.275	2925
850.41	2838
850.545	2914
850.68	2910
850.815	2971
850.95	2994
851.085	3180
851.22	3070
851.355	3024
851.49	2979
851.625	3013
851.76	3074
851.895	2963
852.03	2910
852.165	3055
852.299	3089
852.434	3176
852.569	3169
852.703	3127
852.838	3245
852.973	3332
853.107	3332
853.242	3157
853.376	3119
853.511	3020
853.645	3051
853.78	3230
853.914	3127
854.048	3135
854.183	3093
854.317	3173
854.451	3306
854.585	3161
854.72	3085
854.854	3237
854.988	3036
855.122	3070
855.256	2986
855.39	3127
855.524	3233
855.658	3161
855.792	3157
855.926	3188
856.06	3241
856.194	3256
856.327	3169
856.461	3097
856.595	3089
856.729	3070
856.862	3226
856.996	3188
857.13	3192
857.263	3214
857.397	3272
857.53	3135
857.664	3195
857.797	3241
857.931	3272
858.064	3135
858.197	3272
858.331	3146
858.464	3100
858.597	3013
858.731	3089
858.864	3161
858.997	3135
859.13	3138
859.263	3188
859.396	3203
859.529	3100
859.662	3051
859.795	3028
859.928	3127
860.061	3253
860.194	3317
860.327	3157
860.46	3119
860.592	3241
860.725	3268
860.858	3245
860.99	3100
861.123	3032
861.256	3074
861.388	3119
861.521	3869
861.653	3020
861.786	3005
861.918	3020
862.05	3104
862.183	3077
862.315	3146
862.447	3241
862.58	3039
862.712	2929
862.844	2880
862.976	3005
863.108	3058
863.24	3344
863.372	2910
863.504	2975
863.636	2948
863.768	3051
863.9	2986
864.032	2883
864.164	2944
864.296	3047
864.428	3097
864.559	3093
864.691	3062
864.823	3047
864.954	3039
865.086	3043
865.217	3001
865.349	2937
865.48	2982
865.612	3024
865.743	3127
865.875	2982
866.006	2963
866.137	2979
866.269	2986
866.4	2899
866.531	2887
866.662	2929
866.793	2910
866.924	2902
867.055	2994
867.186	2895
867.317	2899
867.448	2845
867.579	2830
867.71	2883
867.841	2796
867.972	2918
868.103	2925
868.233	2861
868.364	2868
868.495	2895
868.625	3077
868.756	3138
868.886	3001
869.017	3036
869.147	3195
869.278	3150
869.408	3028
869.539	3058
869.669	3112
869.799	3066
869.929	3142
870.06	3138
870.19	3317
870.32	3230
870.45	3287
870.58	3378
870.71	3443
870.84	3450
870.97	3291
871.1	3256
871.23	3492
871.36	3507
871.489	3363
871.619	3393
871.749	3389
871.879	3469
872.008	3462
872.138	3355
872.267	3249
872.397	3150
872.526	3119
872.656	3005
872.785	3077
872.915	3222
873.044	3340
873.173	3268
873.303	3291
873.432	3256
873.561	3233
873.69	3180
873.819	3165
873.948	3203
874.077	3123
874.206	3070
874.335	3112
874.464	3226
874.593	3348
874.722	3268
874.851	3393
874.979	3344
875.108	3348
875.237	3230
875.365	3157
875.494	3116
875.623	3241
875.751	3070
875.88	3108
876.008	3211
876.136	3199
876.265	3355
876.393	3496
876.521	3428
876.65	3378
876.778	3310
876.906	3283
877.034	3195
877.162	3214
877.29	3192
877.418	3230
877.546	3279
877.674	3253
877.802	3214
877.93	3260
878.058	3138
878.185	3108
878.313	3211
878.441	3241
878.568	3047
878.696	3123
878.824	3233
878.951	3351
879.079	3439
879.206	3629
879.333	3450
879.461	3325
879.588	3351
879.715	3473
879.842	3595
879.97	3378
880.097	3211
880.224	3150
880.351	3184
880.478	3230
880.605	3199
880.732	3165
880.859	3492
880.986	3268
881.112	3340
881.239	3184
881.366	3097
881.493	3039
881.619	3001
881.746	3055
881.872	3104
881.999	3116
882.125	3157
882.252	3260
882.378	3306
882.505	3435
882.631	3264
882.757	3165
882.883	3203
883.01	3245
883.136	3176
883.262	3100
883.388	3112
883.514	3302
883.64	3389
883.766	3298
883.892	3203
884.018	3256
884.143	3397
884.269	3534
884.395	3214
884.52	3176
884.646	3169
884.772	3097
884.897	3123
885.023	3226
885.148	3325
885.274	3412
885.399	3393
885.524	3313
885.65	3272
885.775	3313
885.9	3272
886.025	3428
886.15	3367
886.275	3306
886.4	3195
886.525	3310
886.65	3268
886.775	3237
886.9	3492
887.025	3644
887.149	3374
887.274	3241
887.399	3165
887.523	3211
887.648	3176
887.773	3195
887.897	3397
888.021	3401
888.146	3287
888.27	3458
888.395	3561
888.519	3454
888.643	3443
888.767	3424
888.891	3302
889.015	3233
889.139	3310
889.263	3211
889.387	3409
889.511	3515
889.635	3416
889.759	3241
889.883	3344
890.006	3389
890.13	3492
890.254	3287
890.377	3363
890.501	3195
890.624	3161
890.748	3291
890.871	3169
890.995	3093
891.118	3047
891.241	3188
891.364	3249
891.488	3310
891.611	3218
891.734	3230
891.857	3306
891.98	3211
892.103	3336
892.226	3306
892.349	3226
892.471	3108
892.594	3233
892.717	3298
892.839	3256
892.962	3313
893.085	3382
893.207	3298
893.33	3188
893.452	3180
893.575	3340
893.697	3203
893.819	3477
893.941	3496
894.064	3450
894.186	3306
894.308	3253
894.43	3424
894.552	3561
894.674	3485
894.796	3321
894.918	3264
895.04	3302
895.161	3428
895.283	3382
895.405	3275
895.526	3340
895.648	3428
895.769	3370
895.891	3431
896.012	3439
896.134	3454
896.255	3393
896.376	3370
896.498	3397
896.619	3454
896.74	3393
896.861	3389
896.982	3667
897.103	3846
897.224	3576
897.345	3473
897.466	3450
897.587	3477
897.708	3656
897.828	3542
897.949	3481
898.07	3325
898.19	3405
898.311	3625
898.431	3450
898.552	3485
898.672	3606
898.792	3584
898.913	3511
899.033	3393
899.153	3306
899.273	3195
899.393	3294
899.513	3275
899.633	3321
899.753	3348
899.873	3332
899.993	3389
900.113	3329
900.232	3389
900.352	3317
900.472	3294
900.591	3195
900.711	3253
900.83	3253
900.95	3416
901.069	3488
901.189	3351
901.308	3165
901.427	3119
901.546	3184
901.665	3283
901.784	3351
901.904	3226
902.023	3150
902.141	3024
902.26	2994
902.379	3142
902.498	3070
902.617	3047
902.735	3211
902.854	3253
902.973	3214
903.091	3093
903.21	3074
903.328	3116
903.446	3108
903.565	3097
903.683	3154
903.801	3146
903.919	3256
904.038	3264
904.156	3146
904.274	3310
904.392	3264
904.51	3313
904.627	3313
904.745	3466
904.863	3507
904.981	3256
905.098	3173
905.216	3241
905.334	3298
905.451	3279
905.569	3291
905.686	3420
905.803	3431
905.921	3332
906.038	3428
906.155	3332
906.272	3279
906.389	3344
906.506	3245
906.623	3279
906.74	3253
906.857	3176
906.974	3268
907.091	3409
907.208	3545
907.324	3515
907.441	3389
907.557	3253
907.674	3230
907.79	3214
907.907	3302
908.023	3386
908.139	3355
908.256	3329
908.372	3317
908.488	3336
908.604	3245
908.72	3233
908.836	3279
908.952	3279
909.068	3321
909.184	3477
909.3	3367
909.415	3500
909.531	3462
909.647	3279
909.762	3268
909.878	3253
909.993	3389
910.108	3313
910.224	3321
910.339	3424
910.454	3298
910.57	3336
910.685	3268
910.8	3595
910.915	3542
911.03	3405
911.145	3291
911.259	3253
911.374	3302
911.489	3256
911.604	3249
911.718	3157
911.833	3180
911.947	3047
912.062	2975
912.176	3161
912.291	3188
912.405	3230
912.519	3435
912.633	3485
912.748	3317
912.862	3264
912.976	3161
913.09	3085
913.204	3142
913.318	3230
913.431	3321
913.545	3329
913.659	3382
913.772	3359
913.886	3226
914	3203
914.113	3367
914.226	3435
914.34	3367
914.453	3222
914.566	3420
914.68	3275
914.793	3298
914.906	3142
915.019	3089
915.132	3093
915.245	3127
915.358	3249
915.47	3230
915.583	3268
915.696	3298
915.809	3389
915.921	3424
916.034	3268
916.146	3291
916.259	3222
916.371	3416
916.483	3397
916.595	3272
916.708	3351
916.82	3378
916.932	3329
917.044	3355
917.156	3389
917.268	3226
917.38	3256
917.491	3260
917.603	3370
917.715	3431
917.826	3447
917.938	3397
918.049	3310
918.161	3416
918.272	3564
918.384	3584
918.495	3466
918.606	3359
918.717	3230
918.828	3389
918.939	3428
919.05	3325
919.161	3397
919.272	3180
919.383	3275
919.494	3519
919.604	3724
919.715	3504
919.826	3420
919.936	3466
920.047	3610
920.157	3561
920.267	3766
920.378	3633
920.488	3557
920.598	3823
920.708	3968
920.818	3842
920.928	3835
921.038	4029
921.148	3987
921.258	3701
921.368	3603
921.477	3625
921.587	3542
921.697	3473
921.806	3648
921.916	3545
922.025	3332
922.134	3351
922.244	3332
922.353	3424
922.462	3260
922.571	3256
922.68	3104
922.789	3074
922.898	3138
923.007	3066
923.116	3184
923.224	3195
923.333	3188
923.442	3100
923.55	3085
923.659	3135
923.767	3230
923.876	3097
923.984	3245
924.092	3104
924.201	3192
924.309	3195
924.417	3268
924.525	3233
924.633	3233
924.741	4196
924.849	3043
924.956	3268
925.064	3135
925.172	3028
925.279	3085
925.387	3199
925.494	3207
925.602	3367
925.709	3310
925.816	3161
925.924	3279
926.031	3367
926.138	3310
926.245	3321
926.352	3245
926.459	3420
926.566	3473
926.673	3313
926.779	3245
926.886	3226
926.993	3165
927.099	3112
927.206	3104
927.312	3123
927.419	3230
927.525	3192
927.631	3291
927.737	3150
927.843	3116
927.95	3047
928.056	3154
928.162	3165
928.267	3218
928.373	3880
928.479	3332
928.585	3058
928.69	3211
928.796	3245
928.901	3173
929.007	3081
929.112	3165
929.218	3154
929.323	3142
929.428	3112
929.533	3310
929.638	3123
929.743	3169
929.848	3249
929.953	3207
930.058	3180
930.163	3020
930.267	3074
930.372	3192
930.477	3024
930.581	3313
930.685	3173
930.79	3028
930.894	3097
930.998	3085
931.103	3264
931.207	2963
931.311	2922
931.415	2937
931.519	2811
931.623	2834
