Data from test_V78500241_1476.txt Node
Date: Fri Mar 25 16:25:25 CST 2022
User: usil
Spectrometer: V785-0024
Trigger mode: 0
Integration Time (sec): 4.000000E-1
Scans to average: 1
Nonlinearity correction enabled: false
Boxcar width: 0
Storing dark spectrum: false
XAxis mode: Wavelengths
Number of Pixels in Spectrum: 1024
>>>>>Begin Spectral Data<<<<<
801.071	2880
801.214	2933
801.356	2891
801.499	2914
801.641	2845
801.783	2922
801.926	3051
802.068	2982
802.211	2986
802.353	3039
802.496	2967
802.638	2986
802.78	2994
802.923	3100
803.065	2979
803.208	2887
803.35	2899
803.492	2948
803.635	2918
803.777	2743
803.919	2830
804.061	3199
804.204	2933
804.346	2899
804.488	2845
804.63	2994
804.773	2864
804.915	2910
805.057	3097
805.199	2948
805.341	2982
805.483	3020
805.626	3013
805.768	2971
805.91	3017
806.052	3127
806.194	3032
806.336	3264
806.478	2998
806.62	2956
806.762	2952
806.904	3032
807.046	3135
807.188	2971
807.33	2902
807.472	2956
807.614	2918
807.756	2971
807.898	2895
808.04	2910
808.182	2956
808.324	2925
808.465	2857
808.607	2864
808.749	2807
808.891	2815
809.033	2998
809.174	2944
809.316	2861
809.458	2895
809.6	2727
809.741	2762
809.883	2800
810.025	2811
810.166	2834
810.308	2849
810.45	2876
810.591	2781
810.733	2788
810.875	2830
811.016	2807
811.158	2773
811.299	2819
811.441	2876
811.582	2891
811.724	2842
811.865	2845
812.007	2891
812.148	2845
812.29	2861
812.431	2876
812.573	2933
812.714	2963
812.855	3036
812.997	3070
813.138	3108
813.279	2998
813.421	2971
813.562	2929
813.703	2872
813.845	2876
813.986	2804
814.127	2720
814.268	2804
814.41	2811
814.551	2804
814.692	2887
814.833	2796
814.974	2933
815.115	2948
815.256	2807
815.397	2826
815.539	2842
815.68	2758
815.821	2842
815.962	2952
816.103	2956
816.244	2876
816.385	2872
816.526	2960
816.666	2944
816.807	2743
816.948	2899
817.089	2899
817.23	2880
817.371	2781
817.512	2781
817.653	2823
817.793	2834
817.934	2883
818.075	2960
818.216	3017
818.356	2967
818.497	2876
818.638	2792
818.778	2838
818.919	2788
819.06	2769
819.2	2880
819.341	2815
819.481	2785
819.622	2918
819.762	3020
819.903	3039
820.043	2914
820.184	2880
820.324	2914
820.465	3005
820.605	2982
820.746	2998
820.886	2891
821.026	3085
821.167	3180
821.307	3249
821.447	3291
821.588	3245
821.728	3188
821.868	3173
822.008	3108
822.149	3180
822.289	3230
822.429	3047
822.569	3081
822.709	3180
822.849	3032
822.99	3081
823.13	3161
823.27	3188
823.41	3093
823.55	3127
823.69	3131
823.83	3173
823.97	3085
824.11	2990
824.25	2979
824.389	3066
824.529	3116
824.669	3062
824.809	3184
824.949	3241
825.089	3222
825.228	3150
825.368	3005
825.508	2956
825.648	2982
825.787	2990
825.927	3009
826.067	2963
826.206	2975
826.346	3017
826.485	3089
826.625	3070
826.765	3226
826.904	3176
827.044	2994
827.183	2918
827.323	2876
827.462	2971
827.601	2872
827.741	2933
827.88	2941
828.02	2845
828.159	3001
828.298	3039
828.437	3119
828.577	3013
828.716	3245
828.855	3077
828.994	2944
829.134	2853
829.273	2948
829.412	2861
829.551	2876
829.69	2902
829.829	2967
829.968	3138
830.107	3032
830.246	3020
830.385	2902
830.524	2887
830.663	2823
830.802	2705
830.941	2625
831.08	2636
831.219	2735
831.357	2762
831.496	2948
831.635	2727
831.774	2655
831.913	2689
832.051	2499
832.19	2575
832.329	2648
832.467	2530
832.606	2476
832.744	2549
832.883	2571
833.022	2613
833.16	2644
833.299	2708
833.437	2682
833.576	2689
833.714	2731
833.852	2720
833.991	2746
834.129	2842
834.267	2792
834.406	2750
834.544	2849
834.682	2857
834.821	2857
834.959	3036
835.097	2906
835.235	3077
835.373	3009
835.511	3001
835.65	2937
835.788	2918
835.926	2815
836.064	2792
836.202	2849
836.34	3108
836.478	3154
836.615	3047
836.753	3146
836.891	3184
837.029	3142
837.167	3119
837.305	3058
837.443	3043
837.58	2956
837.718	3138
837.856	3032
837.993	2994
838.131	3081
838.269	3097
838.406	3116
838.544	3047
838.681	2933
838.819	2925
838.956	2807
839.094	2853
839.231	2918
839.369	3005
839.506	3332
839.643	3233
839.781	3089
839.918	2948
840.055	3043
840.193	3028
840.33	3055
840.467	3085
840.604	3146
840.742	3397
840.879	3039
841.016	3024
841.153	3100
841.29	3332
841.427	3355
841.564	3275
841.701	3321
841.838	3192
841.975	3135
842.112	3199
842.249	3066
842.385	3058
842.522	3226
842.659	3089
842.796	3058
842.933	3077
843.069	3066
843.206	3051
843.343	3207
843.479	3097
843.616	3146
843.752	2891
843.889	2906
844.025	3074
844.162	2857
844.298	3074
844.435	2967
844.571	2895
844.708	3070
844.844	3176
844.98	3245
845.117	3188
845.253	3051
845.389	3024
845.525	3100
845.661	3077
845.798	3047
845.934	3104
846.07	3066
846.206	3218
846.342	3298
846.478	3245
846.614	3074
846.75	3051
846.886	3005
847.022	3264
847.158	3119
847.294	3211
847.429	3226
847.565	3214
847.701	3507
847.837	3001
847.972	2990
848.108	3150
848.244	3131
848.379	2990
848.515	2960
848.65	2933
848.786	2963
848.921	3017
849.057	3047
849.192	3112
849.328	3024
849.463	3108
849.598	3058
849.734	3043
849.869	2982
850.004	2929
850.14	2952
850.275	2883
850.41	2864
850.545	2868
850.68	2929
850.815	2937
850.95	3001
851.085	3195
851.22	3119
851.355	3028
851.49	2990
851.625	3001
851.76	3001
851.895	2887
852.03	2918
852.165	3036
852.299	3104
852.434	3123
852.569	3154
852.703	3161
852.838	3241
852.973	3302
853.107	3363
853.242	3142
853.376	3112
853.511	2990
853.645	3020
853.78	3283
853.914	3062
854.048	3123
854.183	3081
854.317	3165
854.451	3272
854.585	3135
854.72	3108
854.854	3222
854.988	3081
855.122	3104
855.256	2948
855.39	3112
855.524	3237
855.658	3161
855.792	3165
855.926	3192
856.06	3226
856.194	3268
856.327	3176
856.461	3058
856.595	3077
856.729	3093
856.862	3188
856.996	3131
857.13	3203
857.263	3218
857.397	3237
857.53	3077
857.664	3207
857.797	3241
857.931	3275
858.064	3131
858.197	3226
858.331	3089
858.464	3093
858.597	2994
858.731	3093
858.864	3127
858.997	3043
859.13	3169
859.263	3203
859.396	3192
859.529	3093
859.662	3062
859.795	3039
859.928	3138
860.061	3260
860.194	3264
860.327	3112
860.46	3066
860.592	3260
860.725	3241
860.858	3256
860.99	3062
861.123	3047
861.256	3055
861.388	3112
861.521	3846
861.653	2986
861.786	3013
861.918	2986
862.05	3100
862.183	3070
862.315	3176
862.447	3218
862.58	3100
862.712	2933
862.844	2876
862.976	3066
863.108	3013
863.24	3279
863.372	2880
863.504	2960
863.636	2956
863.768	3020
863.9	2956
864.032	2929
864.164	2922
864.296	3017
864.428	3058
864.559	3081
864.691	3104
864.823	3036
864.954	3024
865.086	3009
865.217	2967
865.349	2937
865.48	2986
865.612	3005
865.743	3135
865.875	2948
866.006	2922
866.137	2979
866.269	2960
866.4	2933
866.531	2922
866.662	2864
866.793	2868
866.924	2925
867.055	2975
867.186	2914
867.317	2864
867.448	2830
867.579	2842
867.71	2842
867.841	2830
867.972	2891
868.103	2902
868.233	2876
868.364	2861
868.495	2887
868.625	3097
868.756	3161
868.886	2960
869.017	2971
869.147	3176
869.278	3142
869.408	3058
869.539	3024
869.669	3100
869.799	3058
869.929	3135
870.06	3146
870.19	3348
870.32	3230
870.45	3275
870.58	3359
870.71	3439
870.84	3431
870.97	3230
871.1	3226
871.23	3500
871.36	3458
871.489	3378
871.619	3393
871.749	3386
871.879	3431
872.008	3481
872.138	3367
872.267	3310
872.397	3150
872.526	3104
872.656	3001
872.785	3116
872.915	3279
873.044	3313
873.173	3207
873.303	3256
873.432	3199
873.561	3203
873.69	3161
873.819	3169
873.948	3157
874.077	3097
874.206	3036
874.335	3058
874.464	3192
874.593	3325
874.722	3237
874.851	3412
874.979	3355
875.108	3272
875.237	3195
875.365	3138
875.494	3169
875.623	3245
875.751	3070
875.88	3077
876.008	3188
876.136	3218
876.265	3378
876.393	3538
876.521	3382
876.65	3378
876.778	3287
876.906	3253
877.034	3192
877.162	3226
877.29	3165
877.418	3226
877.546	3237
877.674	3192
877.802	3237
877.93	3218
878.058	3135
878.185	3127
878.313	3199
878.441	3192
878.568	3074
878.696	3150
878.824	3264
878.951	3329
879.079	3447
879.206	3610
879.333	3473
879.461	3344
879.588	3344
879.715	3458
879.842	3576
879.97	3397
880.097	3157
880.224	3104
880.351	3176
880.478	3184
880.605	3203
880.732	3157
880.859	3454
880.986	3294
881.112	3302
881.239	3180
881.366	3097
881.493	3020
881.619	3009
881.746	3085
881.872	3100
881.999	3055
882.125	3138
882.252	3211
882.378	3306
882.505	3424
882.631	3310
882.757	3119
882.883	3226
883.01	3203
883.136	3116
883.262	3100
883.388	3089
883.514	3283
883.64	3393
883.766	3317
883.892	3207
884.018	3241
884.143	3348
884.269	3572
884.395	3165
884.52	3195
884.646	3184
884.772	3119
884.897	3116
885.023	3180
885.148	3310
885.274	3409
885.399	3321
885.524	3275
885.65	3283
885.775	3306
885.9	3264
886.025	3443
886.15	3344
886.275	3306
886.4	3211
886.525	3325
886.65	3302
886.775	3233
886.9	3492
887.025	3614
887.149	3397
887.274	3275
887.399	3195
887.523	3176
887.648	3161
887.773	3203
887.897	3367
888.021	3359
888.146	3325
888.27	3443
888.395	3526
888.519	3374
888.643	3435
888.767	3443
888.891	3329
889.015	3279
889.139	3294
889.263	3256
889.387	3409
889.511	3500
889.635	3405
889.759	3249
889.883	3294
890.006	3355
890.13	3462
890.254	3241
890.377	3351
890.501	3188
890.624	3207
890.748	3294
890.871	3169
890.995	3142
891.118	3039
891.241	3180
891.364	3214
891.488	3298
891.611	3157
891.734	3218
891.857	3275
891.98	3230
892.103	3325
892.226	3260
892.349	3211
892.471	3116
892.594	3211
892.717	3283
892.839	3272
892.962	3272
893.085	3367
893.207	3287
893.33	3146
893.452	3180
893.575	3313
893.697	3275
893.819	3469
893.941	3462
894.064	3431
894.186	3237
894.308	3283
894.43	3397
894.552	3523
894.674	3469
894.796	3283
894.918	3310
895.04	3291
895.161	3424
895.283	3389
895.405	3298
895.526	3378
895.648	3443
895.769	3397
895.891	3439
896.012	3473
896.134	3443
896.255	3412
896.376	3336
896.498	3393
896.619	3401
896.74	3367
896.861	3386
896.982	3732
897.103	3827
897.224	3561
897.345	3462
897.466	3397
897.587	3458
897.708	3618
897.828	3515
897.949	3435
898.07	3302
898.19	3412
898.311	3587
898.431	3424
898.552	3500
898.672	3576
898.792	3584
898.913	3504
899.033	3424
899.153	3268
899.273	3195
899.393	3283
899.513	3313
899.633	3317
899.753	3298
899.873	3302
899.993	3389
900.113	3306
900.232	3382
900.352	3344
900.472	3272
900.591	3214
900.711	3275
900.83	3211
900.95	3397
901.069	3488
901.189	3355
901.308	3173
901.427	3112
901.546	3157
901.665	3313
901.784	3355
901.904	3176
902.023	3142
902.141	3001
902.26	2982
902.379	3112
902.498	3058
902.617	3036
902.735	3199
902.854	3218
902.973	3203
903.091	3005
903.21	3020
903.328	3127
903.446	3123
903.565	3135
903.683	3214
903.801	3131
903.919	3241
904.038	3268
904.156	3135
904.274	3275
904.392	3272
904.51	3313
904.627	3313
904.745	3420
904.863	3492
904.981	3279
905.098	3188
905.216	3226
905.334	3310
905.451	3279
905.569	3268
905.686	3412
905.803	3416
905.921	3283
906.038	3401
906.155	3306
906.272	3275
906.389	3294
906.506	3245
906.623	3253
906.74	3272
906.857	3211
906.974	3222
907.091	3454
907.208	3557
907.324	3454
907.441	3412
907.557	3188
907.674	3272
907.79	3173
907.907	3279
908.023	3348
908.139	3336
908.256	3332
908.372	3389
908.488	3317
908.604	3230
908.72	3226
908.836	3310
908.952	3253
909.068	3340
909.184	3485
909.3	3374
909.415	3519
909.531	3477
909.647	3279
909.762	3272
909.878	3226
909.993	3306
910.108	3355
910.224	3298
910.339	3412
910.454	3313
910.57	3260
910.685	3275
910.8	3587
910.915	3496
911.03	3454
911.145	3253
911.259	3264
911.374	3340
911.489	3233
911.604	3195
911.718	3089
911.833	3142
911.947	3024
912.062	2975
912.176	3161
912.291	3214
912.405	3203
912.519	3447
912.633	3485
912.748	3344
912.862	3256
912.976	3154
913.09	3032
913.204	3104
913.318	3233
913.431	3329
913.545	3313
913.659	3420
913.772	3332
913.886	3192
914	3180
914.113	3321
914.226	3367
914.34	3351
914.453	3192
914.566	3393
914.68	3283
914.793	3260
914.906	3146
915.019	3108
915.132	3024
915.245	3165
915.358	3157
915.47	3214
915.583	3245
915.696	3275
915.809	3374
915.921	3393
916.034	3272
916.146	3226
916.259	3214
916.371	3382
916.483	3351
916.595	3218
916.708	3287
916.82	3287
916.932	3302
917.044	3325
917.156	3332
917.268	3279
917.38	3310
917.491	3264
917.603	3317
917.715	3462
917.826	3435
917.938	3367
918.049	3249
918.161	3420
918.272	3553
918.384	3538
918.495	3466
918.606	3325
918.717	3321
918.828	3370
918.939	3363
919.05	3306
919.161	3397
919.272	3157
919.383	3283
919.494	3462
919.604	3660
919.715	3473
919.826	3382
919.936	3458
920.047	3625
920.157	3549
920.267	3759
920.378	3633
920.488	3526
920.598	3785
920.708	3975
920.818	3835
920.928	3835
921.038	4051
921.148	4013
921.258	3720
921.368	3705
921.477	3561
921.587	3576
921.697	3481
921.806	3595
921.916	3564
922.025	3412
922.134	3374
922.244	3329
922.353	3439
922.462	3325
922.571	3313
922.68	3150
922.789	3150
922.898	3138
923.007	3119
923.116	3241
923.224	3207
923.333	3195
923.442	3150
923.55	3135
923.659	3176
923.767	3256
923.876	3142
923.984	3321
924.092	3150
924.201	3226
924.309	3272
924.417	3283
924.525	3180
924.633	3279
924.741	4188
924.849	3081
924.956	3302
925.064	3150
925.172	3089
925.279	3142
925.387	3245
925.494	3260
925.602	3416
925.709	3374
925.816	3214
925.924	3302
926.031	3393
926.138	3355
926.245	3386
926.352	3279
926.459	3409
926.566	3507
926.673	3336
926.779	3283
926.886	3298
926.993	3173
927.099	3195
927.206	3142
927.312	3157
927.419	3237
927.525	3222
927.631	3272
927.737	3192
927.843	3184
927.95	3062
928.056	3176
928.162	3241
928.267	3336
928.373	3774
928.479	3405
928.585	3108
928.69	3283
928.796	3298
928.901	3211
929.007	3093
929.112	3245
929.218	3222
929.323	3176
929.428	3180
929.533	3382
929.638	3165
929.743	3207
929.848	3332
929.953	3279
930.058	3195
930.163	3043
930.267	3055
930.372	3226
930.477	3070
930.581	3367
930.685	3226
930.79	3104
930.894	3119
930.998	3085
931.103	3260
931.207	3017
931.311	2960
931.415	2937
931.519	2823
931.623	2857
