Data from test_V78500241_1779.txt Node
Date: Fri Mar 25 16:27:31 CST 2022
User: usil
Spectrometer: V785-0024
Trigger mode: 0
Integration Time (sec): 4.000000E-1
Scans to average: 1
Nonlinearity correction enabled: false
Boxcar width: 0
Storing dark spectrum: false
XAxis mode: Wavelengths
Number of Pixels in Spectrum: 1024
>>>>>Begin Spectral Data<<<<<
801.071	2937
801.214	2933
801.356	2887
801.499	2910
801.641	2861
801.783	2929
801.926	3066
802.068	3013
802.211	3020
802.353	3051
802.496	2952
802.638	3001
802.78	3051
802.923	3028
803.065	3020
803.208	2880
803.35	2922
803.492	2948
803.635	2925
803.777	2762
803.919	2876
804.061	3211
804.204	2963
804.346	2922
804.488	2819
804.63	2941
804.773	2868
804.915	2925
805.057	3047
805.199	2906
805.341	2956
805.483	3051
805.626	3032
805.768	2971
805.91	3077
806.052	3116
806.194	3020
806.336	3260
806.478	3047
806.62	2944
806.762	2982
806.904	3070
807.046	3154
807.188	2990
807.33	2937
807.472	2994
807.614	2922
807.756	2956
807.898	2937
808.04	2918
808.182	2967
808.324	2971
808.465	2868
808.607	2864
808.749	2842
808.891	2849
809.033	2956
809.174	2975
809.316	2899
809.458	2872
809.6	2777
809.741	2743
809.883	2762
810.025	2811
810.166	2872
810.308	2849
810.45	2891
810.591	2800
810.733	2800
810.875	2834
811.016	2762
811.158	2743
811.299	2838
811.441	2937
811.582	2864
811.724	2815
811.865	2830
812.007	2925
812.148	2899
812.29	2842
812.431	2895
812.573	2948
812.714	2937
812.855	3043
812.997	3020
813.138	3093
813.279	2971
813.421	2971
813.562	2975
813.703	2872
813.845	2906
813.986	2788
814.127	2735
814.268	2853
814.41	2807
814.551	2823
814.692	2891
814.833	2804
814.974	2914
815.115	2975
815.256	2830
815.397	2773
815.539	2830
815.68	2773
815.821	2769
815.962	2906
816.103	2952
816.244	2910
816.385	2857
816.526	2944
816.666	2914
816.807	2743
816.948	2914
817.089	2864
817.23	2857
817.371	2769
817.512	2766
817.653	2834
817.793	2819
817.934	2872
818.075	2944
818.216	2963
818.356	3013
818.497	2861
818.638	2769
818.778	2819
818.919	2754
819.06	2739
819.2	2845
819.341	2811
819.481	2815
819.622	2948
819.762	3089
819.903	3051
820.043	2925
820.184	2876
820.324	2864
820.465	3028
820.605	2986
820.746	2990
820.886	2933
821.026	3066
821.167	3157
821.307	3218
821.447	3283
821.588	3214
821.728	3154
821.868	3207
822.008	3051
822.149	3180
822.289	3237
822.429	3070
822.569	3135
822.709	3165
822.849	2998
822.99	3062
823.13	3161
823.27	3195
823.41	3043
823.55	3135
823.69	3169
823.83	3233
823.97	3097
824.11	2990
824.25	3051
824.389	3051
824.529	3123
824.669	3097
824.809	3199
824.949	3249
825.089	3211
825.228	3138
825.368	2990
825.508	2960
825.648	2963
825.787	3009
825.927	3036
826.067	2967
826.206	2975
826.346	3055
826.485	3062
826.625	3100
826.765	3294
826.904	3207
827.044	2975
827.183	2975
827.323	2880
827.462	2990
827.601	2922
827.741	2994
827.88	2982
828.02	2876
828.159	3028
828.298	3055
828.437	3161
828.577	3036
828.716	3291
828.855	3058
828.994	2899
829.134	2948
829.273	2986
829.412	2929
829.551	2861
829.69	2967
829.829	3028
829.968	3184
830.107	3066
830.246	3066
830.385	2990
830.524	2891
830.663	2842
830.802	2781
830.941	2686
831.08	2682
831.219	2796
831.357	2788
831.496	2971
831.635	2746
831.774	2701
831.913	2716
832.051	2545
832.19	2613
832.329	2731
832.467	2606
832.606	2564
832.744	2621
832.883	2621
833.022	2606
833.16	2697
833.299	2750
833.437	2754
833.576	2720
833.714	2773
833.852	2762
833.991	2781
834.129	2876
834.267	2880
834.406	2823
834.544	2902
834.682	2906
834.821	2883
834.959	3142
835.097	2956
835.235	3119
835.373	3017
835.511	3070
835.65	2952
835.788	2979
835.926	2876
836.064	2872
836.202	2902
836.34	3116
836.478	3176
836.615	3100
836.753	3161
836.891	3241
837.029	3165
837.167	3157
837.305	3142
837.443	3062
837.58	3005
837.718	3150
837.856	3100
837.993	3093
838.131	3161
838.269	3138
838.406	3138
838.544	3135
838.681	2994
838.819	2956
838.956	2853
839.094	2883
839.231	2952
839.369	3100
839.506	3393
839.643	3249
839.781	3039
839.918	3020
840.055	3077
840.193	3062
840.33	3116
840.467	3077
840.604	3165
840.742	3454
840.879	3066
841.016	3112
841.153	3180
841.29	3359
841.427	3348
841.564	3272
841.701	3317
841.838	3260
841.975	3195
842.112	3211
842.249	3131
842.385	3085
842.522	3279
842.659	3146
842.796	3032
842.933	3146
843.069	3089
843.206	3077
843.343	3241
843.479	3104
843.616	3180
843.752	2929
843.889	2876
844.025	3127
844.162	2895
844.298	3058
844.435	2967
844.571	2960
844.708	3116
844.844	3226
844.98	3275
845.117	3275
845.253	3051
845.389	3047
845.525	3085
845.661	3135
845.798	3047
845.934	3154
846.07	3085
846.206	3207
846.342	3340
846.478	3233
846.614	3116
846.75	3081
846.886	3032
847.022	3268
847.158	3157
847.294	3211
847.429	3275
847.565	3264
847.701	3568
847.837	3089
847.972	3024
848.108	3176
848.244	3161
848.379	3032
848.515	2967
848.65	2952
848.786	2986
848.921	3089
849.057	3119
849.192	3180
849.328	3116
849.463	3127
849.598	3074
849.734	3066
849.869	2994
850.004	2948
850.14	2994
850.275	2948
850.41	2842
850.545	2925
850.68	2914
850.815	2975
850.95	3028
851.085	3241
851.22	3131
851.355	3074
851.49	2979
851.625	3039
851.76	3043
851.895	2960
852.03	2895
852.165	3104
852.299	3127
852.434	3241
852.569	3180
852.703	3180
852.838	3306
852.973	3374
853.107	3382
853.242	3207
853.376	3142
853.511	2990
853.645	3081
853.78	3272
853.914	3154
854.048	3150
854.183	3066
854.317	3154
854.451	3302
854.585	3150
854.72	3104
854.854	3256
854.988	3043
855.122	3146
855.256	3005
855.39	3150
855.524	3256
855.658	3211
855.792	3169
855.926	3218
856.06	3233
856.194	3268
856.327	3173
856.461	3116
856.595	3131
856.729	3089
856.862	3279
856.996	3169
857.13	3226
857.263	3253
857.397	3336
857.53	3138
857.664	3222
857.797	3264
857.931	3306
858.064	3195
858.197	3298
858.331	3135
858.464	3127
858.597	3013
858.731	3184
858.864	3165
858.997	3112
859.13	3195
859.263	3222
859.396	3222
859.529	3119
859.662	3135
859.795	3043
859.928	3135
860.061	3310
860.194	3298
860.327	3157
860.46	3150
860.592	3241
860.725	3268
860.858	3272
860.99	3135
861.123	3055
861.256	3089
861.388	3176
861.521	3918
861.653	3047
861.786	2998
861.918	3032
862.05	3039
862.183	3093
862.315	3199
862.447	3203
862.58	3108
862.712	2963
862.844	2902
862.976	3024
863.108	3039
863.24	3329
863.372	2895
863.504	3020
863.636	3017
863.768	3066
863.9	3017
864.032	2880
864.164	2963
864.296	3058
864.428	3074
864.559	3093
864.691	3062
864.823	3116
864.954	3074
865.086	3066
865.217	3024
865.349	2963
865.48	2971
865.612	3028
865.743	3169
865.875	2975
866.006	2952
866.137	2994
866.269	2967
866.4	3001
866.531	2906
866.662	2922
866.793	2918
866.924	2933
867.055	2998
867.186	2914
867.317	2891
867.448	2834
867.579	2864
867.71	2849
867.841	2868
867.972	2933
868.103	2918
868.233	2899
868.364	2895
868.495	2918
868.625	3077
868.756	3154
868.886	3009
869.017	3047
869.147	3188
869.278	3173
869.408	3058
869.539	3066
869.669	3108
869.799	3070
869.929	3173
870.06	3116
870.19	3378
870.32	3313
870.45	3283
870.58	3378
870.71	3473
870.84	3462
870.97	3313
871.1	3275
871.23	3515
871.36	3526
871.489	3359
871.619	3401
871.749	3454
871.879	3473
872.008	3473
872.138	3367
872.267	3279
872.397	3188
872.526	3112
872.656	3009
872.785	3070
872.915	3214
873.044	3329
873.173	3230
873.303	3256
873.432	3268
873.561	3249
873.69	3154
873.819	3173
873.948	3176
874.077	3108
874.206	3058
874.335	3108
874.464	3222
874.593	3389
874.722	3283
874.851	3424
874.979	3393
875.108	3332
875.237	3230
875.365	3192
875.494	3180
875.623	3226
875.751	3097
875.88	3131
876.008	3214
876.136	3253
876.265	3386
876.393	3519
876.521	3412
876.65	3393
876.778	3363
876.906	3291
877.034	3180
877.162	3237
877.29	3184
877.418	3268
877.546	3294
877.674	3279
877.802	3233
877.93	3230
878.058	3211
878.185	3100
878.313	3222
878.441	3230
878.568	3108
878.696	3173
878.824	3253
878.951	3329
879.079	3435
879.206	3629
879.333	3447
879.461	3367
879.588	3363
879.715	3507
879.842	3614
879.97	3405
880.097	3188
880.224	3119
880.351	3203
880.478	3195
880.605	3192
880.732	3214
880.859	3526
880.986	3302
881.112	3329
881.239	3214
881.366	3135
881.493	3100
881.619	3051
881.746	3104
881.872	3116
881.999	3116
882.125	3157
882.252	3283
882.378	3332
882.505	3473
882.631	3291
882.757	3169
882.883	3222
883.01	3249
883.136	3157
883.262	3074
883.388	3112
883.514	3359
883.64	3378
883.766	3344
883.892	3195
884.018	3256
884.143	3409
884.269	3530
884.395	3233
884.52	3195
884.646	3199
884.772	3146
884.897	3085
885.023	3199
885.148	3351
885.274	3458
885.399	3389
885.524	3241
885.65	3275
885.775	3389
885.9	3291
886.025	3469
886.15	3348
886.275	3332
886.4	3260
886.525	3294
886.65	3275
886.775	3283
886.9	3542
887.025	3629
887.149	3428
887.274	3268
887.399	3199
887.523	3199
887.648	3211
887.773	3222
887.897	3397
888.021	3409
888.146	3302
888.27	3424
888.395	3557
888.519	3443
888.643	3409
888.767	3511
888.891	3325
889.015	3268
889.139	3306
889.263	3294
889.387	3389
889.511	3500
889.635	3488
889.759	3279
889.883	3321
890.006	3420
890.13	3477
890.254	3329
890.377	3298
890.501	3214
890.624	3207
890.748	3287
890.871	3218
890.995	3123
891.118	3074
891.241	3211
891.364	3253
891.488	3321
891.611	3165
891.734	3214
891.857	3348
891.98	3256
892.103	3405
892.226	3272
892.349	3268
892.471	3100
892.594	3245
892.717	3291
892.839	3294
892.962	3268
893.085	3416
893.207	3287
893.33	3142
893.452	3199
893.575	3340
893.697	3226
893.819	3488
893.941	3526
894.064	3435
894.186	3279
894.308	3264
894.43	3458
894.552	3542
894.674	3492
894.796	3287
894.918	3283
895.04	3287
895.161	3389
895.283	3424
895.405	3272
895.526	3378
895.648	3469
895.769	3405
895.891	3469
896.012	3500
896.134	3515
896.255	3420
896.376	3439
896.498	3370
896.619	3420
896.74	3359
896.861	3405
896.982	3652
897.103	3873
897.224	3587
897.345	3496
897.466	3504
897.587	3481
897.708	3614
897.828	3542
897.949	3409
898.07	3325
898.19	3401
898.311	3625
898.431	3481
898.552	3561
898.672	3591
898.792	3561
898.913	3511
899.033	3412
899.153	3348
899.273	3184
899.393	3302
899.513	3355
899.633	3313
899.753	3344
899.873	3317
899.993	3363
900.113	3351
900.232	3370
900.352	3344
900.472	3317
900.591	3230
900.711	3275
900.83	3264
900.95	3412
901.069	3500
901.189	3325
901.308	3192
901.427	3150
901.546	3245
901.665	3298
901.784	3329
901.904	3222
902.023	3161
902.141	3009
902.26	3009
902.379	3131
902.498	3131
902.617	3058
902.735	3195
902.854	3241
902.973	3199
903.091	3066
903.21	3100
903.328	3135
903.446	3154
903.565	3131
903.683	3173
903.801	3135
903.919	3268
904.038	3291
904.156	3222
904.274	3298
904.392	3249
904.51	3298
904.627	3363
904.745	3469
904.863	3519
904.981	3279
905.098	3165
905.216	3249
905.334	3329
905.451	3329
905.569	3306
905.686	3435
905.803	3462
905.921	3306
906.038	3416
906.155	3363
906.272	3313
906.389	3329
906.506	3283
906.623	3230
906.74	3283
906.857	3195
906.974	3275
907.091	3469
907.208	3568
907.324	3485
907.441	3405
907.557	3226
907.674	3272
907.79	3222
907.907	3283
908.023	3332
908.139	3409
908.256	3340
908.372	3409
908.488	3344
908.604	3268
908.72	3256
908.836	3279
908.952	3272
909.068	3370
909.184	3515
909.3	3393
909.415	3538
909.531	3458
909.647	3275
909.762	3310
909.878	3279
909.993	3374
910.108	3336
910.224	3355
910.339	3409
910.454	3317
910.57	3329
910.685	3272
910.8	3610
910.915	3561
911.03	3409
911.145	3249
911.259	3287
911.374	3302
911.489	3233
911.604	3237
911.718	3169
911.833	3176
911.947	3055
912.062	3009
912.176	3176
912.291	3180
912.405	3214
912.519	3431
912.633	3485
912.748	3336
912.862	3298
912.976	3146
913.09	3047
913.204	3138
913.318	3245
913.431	3359
913.545	3325
913.659	3420
913.772	3367
913.886	3245
914	3211
914.113	3344
914.226	3409
914.34	3367
914.453	3195
914.566	3412
914.68	3302
914.793	3321
914.906	3180
915.019	3123
915.132	3070
915.245	3199
915.358	3199
915.47	3272
915.583	3294
915.696	3264
915.809	3401
915.921	3450
916.034	3256
916.146	3287
916.259	3249
916.371	3370
916.483	3370
916.595	3294
916.708	3332
916.82	3298
916.932	3363
917.044	3363
917.156	3348
917.268	3268
917.38	3325
917.491	3268
917.603	3310
917.715	3458
917.826	3466
917.938	3367
918.049	3279
918.161	3458
918.272	3584
918.384	3526
918.495	3507
918.606	3363
918.717	3329
918.828	3389
918.939	3420
919.05	3332
919.161	3393
919.272	3176
919.383	3313
919.494	3504
919.604	3679
919.715	3496
919.826	3393
919.936	3458
920.047	3606
920.157	3530
920.267	3762
920.378	3606
920.488	3576
920.598	3762
920.708	4002
920.818	3789
920.928	3785
921.038	4067
921.148	3979
921.258	3701
921.368	3641
921.477	3629
921.587	3553
921.697	3443
921.806	3587
921.916	3523
922.025	3370
922.134	3351
922.244	3325
922.353	3424
922.462	3291
922.571	3218
922.68	3108
922.789	3085
922.898	3146
923.007	3123
923.116	3203
923.224	3188
923.333	3184
923.442	3119
923.55	3062
923.659	3157
923.767	3214
923.876	3104
923.984	3230
924.092	3097
924.201	3188
924.309	3188
924.417	3241
924.525	3157
924.633	3260
924.741	4044
924.849	3077
924.956	3272
925.064	3119
925.172	3043
925.279	3093
925.387	3214
925.494	3195
925.602	3359
925.709	3344
925.816	3192
925.924	3317
926.031	3363
926.138	3294
926.245	3317
926.352	3237
926.459	3424
926.566	3469
926.673	3302
926.779	3256
926.886	3275
926.993	3146
927.099	3142
927.206	3100
927.312	3150
927.419	3180
927.525	3199
927.631	3313
927.737	3146
927.843	3104
927.95	3055
928.056	3165
928.162	3157
928.267	3256
928.373	3846
928.479	3325
928.585	3135
928.69	3218
928.796	3317
928.901	3169
929.007	3036
929.112	3207
929.218	3184
929.323	3157
929.428	3161
929.533	3260
929.638	3077
929.743	3165
929.848	3264
929.953	3237
930.058	3138
930.163	2979
930.267	3047
930.372	3211
930.477	3074
930.581	3332
930.685	3184
930.79	3047
930.894	3074
930.998	3116
931.103	3279
931.207	2956
931.311	2902
931.415	2937
931.519	2750
931.623	2796
