Data from test_V78500241_1171.txt Node
Date: Fri Mar 25 16:23:18 CST 2022
User: usil
Spectrometer: V785-0024
Trigger mode: 0
Integration Time (sec): 4.000000E-1
Scans to average: 1
Nonlinearity correction enabled: false
Boxcar width: 0
Storing dark spectrum: false
XAxis mode: Wavelengths
Number of Pixels in Spectrum: 1024
>>>>>Begin Spectral Data<<<<<
801.071	2937
801.214	2937
801.356	2902
801.499	2925
801.641	2902
801.783	2971
801.926	3081
802.068	2990
802.211	3047
802.353	3100
802.496	2971
802.638	3020
802.78	3058
802.923	3062
803.065	3020
803.208	2891
803.35	2925
803.492	2948
803.635	2910
803.777	2739
803.919	2864
804.061	3230
804.204	2952
804.346	2941
804.488	2876
804.63	3024
804.773	2906
804.915	2941
805.057	3108
805.199	2952
805.341	2971
805.483	3051
805.626	3036
805.768	2944
805.91	3097
806.052	3131
806.194	3036
806.336	3207
806.478	3070
806.62	2971
806.762	3020
806.904	3104
807.046	3192
807.188	3032
807.33	2948
807.472	3017
807.614	2937
807.756	2998
807.898	2960
808.04	2929
808.182	3017
808.324	2933
808.465	2918
808.607	2914
808.749	2811
808.891	2853
809.033	2982
809.174	3009
809.316	2914
809.458	2891
809.6	2781
809.741	2800
809.883	2815
810.025	2838
810.166	2872
810.308	2887
810.45	2887
810.591	2819
810.733	2796
810.875	2849
811.016	2792
811.158	2773
811.299	2785
811.441	2937
811.582	2933
811.724	2830
811.865	2834
812.007	2918
812.148	2925
812.29	2899
812.431	2887
812.573	2948
812.714	2998
812.855	3085
812.997	3074
813.138	3142
813.279	3043
813.421	2998
813.562	2956
813.703	2853
813.845	2922
813.986	2781
814.127	2788
814.268	2845
814.41	2849
814.551	2838
814.692	2910
814.833	2861
814.974	2937
815.115	2994
815.256	2857
815.397	2826
815.539	2887
815.68	2811
815.821	2826
815.962	2994
816.103	2948
816.244	2929
816.385	2883
816.526	3036
816.666	2948
816.807	2792
816.948	2895
817.089	2929
817.23	2853
817.371	2773
817.512	2819
817.653	2849
817.793	2834
817.934	2895
818.075	2967
818.216	3017
818.356	3032
818.497	2880
818.638	2853
818.778	2845
818.919	2800
819.06	2788
819.2	2876
819.341	2845
819.481	2845
819.622	2948
819.762	3123
819.903	3051
820.043	2933
820.184	2937
820.324	2899
820.465	3043
820.605	3032
820.746	3028
820.886	2956
821.026	3127
821.167	3184
821.307	3264
821.447	3310
821.588	3218
821.728	3226
821.868	3222
822.008	3104
822.149	3222
822.289	3245
822.429	3100
822.569	3104
822.709	3154
822.849	3020
822.99	3089
823.13	3165
823.27	3211
823.41	3146
823.55	3154
823.69	3169
823.83	3241
823.97	3058
824.11	3017
824.25	3032
824.389	3093
824.529	3169
824.669	3047
824.809	3195
824.949	3294
825.089	3203
825.228	3157
825.368	3066
825.508	2937
825.648	2967
825.787	3047
825.927	3066
826.067	2967
826.206	2994
826.346	3062
826.485	3089
826.625	3070
826.765	3249
826.904	3207
827.044	3017
827.183	2960
827.323	2880
827.462	2986
827.601	2967
827.741	2963
827.88	2967
828.02	2857
828.159	3005
828.298	3043
828.437	3142
828.577	3043
828.716	3245
828.855	3062
828.994	2937
829.134	2902
829.273	2929
829.412	2830
829.551	2845
829.69	2914
829.829	2998
829.968	3150
830.107	2990
830.246	3036
830.385	2941
830.524	2880
830.663	2838
830.802	2743
830.941	2644
831.08	2640
831.219	2792
831.357	2766
831.496	2925
831.635	2731
831.774	2663
831.913	2663
832.051	2571
832.19	2598
832.329	2689
832.467	2560
832.606	2473
832.744	2610
832.883	2598
833.022	2606
833.16	2670
833.299	2689
833.437	2716
833.576	2686
833.714	2754
833.852	2754
833.991	2766
834.129	2857
834.267	2868
834.406	2815
834.544	2864
834.682	2891
834.821	2849
834.959	3051
835.097	2937
835.235	3093
835.373	2986
835.511	3036
835.65	2979
835.788	2982
835.926	2891
836.064	2815
836.202	2872
836.34	3089
836.478	3150
836.615	3070
836.753	3176
836.891	3214
837.029	3173
837.167	3066
837.305	3047
837.443	3017
837.58	2952
837.718	3154
837.856	3039
837.993	3028
838.131	3104
838.269	3089
838.406	3142
838.544	3093
838.681	2929
838.819	2933
838.956	2804
839.094	2826
839.231	2918
839.369	3043
839.506	3370
839.643	3230
839.781	2994
839.918	2960
840.055	3081
840.193	3058
840.33	3058
840.467	3104
840.604	3150
840.742	3412
840.879	3070
841.016	3066
841.153	3131
841.29	3363
841.427	3275
841.564	3226
841.701	3317
841.838	3233
841.975	3180
842.112	3207
842.249	3097
842.385	3024
842.522	3245
842.659	3104
842.796	3070
842.933	3100
843.069	3047
843.206	3024
843.343	3180
843.479	3119
843.616	3119
843.752	2883
843.889	2883
844.025	3112
844.162	2887
844.298	3070
844.435	2967
844.571	2899
844.708	3097
844.844	3176
844.98	3214
845.117	3169
845.253	3020
845.389	3036
845.525	3089
845.661	3116
845.798	3043
845.934	3104
846.07	3074
846.206	3207
846.342	3291
846.478	3214
846.614	3116
846.75	3062
846.886	3032
847.022	3230
847.158	3157
847.294	3241
847.429	3241
847.565	3230
847.701	3443
847.837	3051
847.972	2971
848.108	3165
848.244	3169
848.379	3009
848.515	2944
848.65	2944
848.786	2963
848.921	3013
849.057	3081
849.192	3142
849.328	3112
849.463	3138
849.598	3077
849.734	3028
849.869	2967
850.004	2922
850.14	2975
850.275	2948
850.41	2868
850.545	2868
850.68	2937
850.815	3009
850.95	2979
851.085	3211
851.22	3123
851.355	3074
851.49	2986
851.625	2967
851.76	3077
851.895	2967
852.03	2925
852.165	3055
852.299	3135
852.434	3184
852.569	3169
852.703	3192
852.838	3283
852.973	3351
853.107	3370
853.242	3161
853.376	3104
853.511	3013
853.645	3093
853.78	3272
853.914	3211
854.048	3116
854.183	3138
854.317	3161
854.451	3298
854.585	3161
854.72	3131
854.854	3272
854.988	3089
855.122	3112
855.256	2990
855.39	3157
855.524	3275
855.658	3203
855.792	3218
855.926	3253
856.06	3272
856.194	3313
856.327	3176
856.461	3104
856.595	3127
856.729	3127
856.862	3222
856.996	3184
857.13	3233
857.263	3233
857.397	3336
857.53	3161
857.664	3203
857.797	3317
857.931	3306
858.064	3207
858.197	3260
858.331	3192
858.464	3123
858.597	3058
858.731	3165
858.864	3176
858.997	3131
859.13	3222
859.263	3226
859.396	3233
859.529	3127
859.662	3127
859.795	3070
859.928	3195
860.061	3294
860.194	3310
860.327	3165
860.46	3146
860.592	3256
860.725	3287
860.858	3275
860.99	3157
861.123	3093
861.256	3081
861.388	3176
861.521	3759
861.653	3047
861.786	3024
861.918	3039
862.05	3070
862.183	3135
862.315	3180
862.447	3245
862.58	3081
862.712	2990
862.844	2902
862.976	3066
863.108	3039
863.24	3382
863.372	2922
863.504	2994
863.636	2998
863.768	3085
863.9	2994
864.032	2937
864.164	3001
864.296	3074
864.428	3081
864.559	3116
864.691	3127
864.823	3138
864.954	3047
865.086	3062
865.217	3028
865.349	2960
865.48	3036
865.612	3032
865.743	3169
865.875	3036
866.006	2956
866.137	3005
866.269	2990
866.4	2944
866.531	2960
866.662	2937
866.793	2929
866.924	2971
867.055	3024
867.186	2963
867.317	2937
867.448	2876
867.579	2876
867.71	2914
867.841	2887
867.972	2925
868.103	2929
868.233	2941
868.364	2914
868.495	2941
868.625	3097
868.756	3161
868.886	2990
869.017	3009
869.147	3207
869.278	3226
869.408	3089
869.539	3020
869.669	3150
869.799	3077
869.929	3150
870.06	3123
870.19	3355
870.32	3306
870.45	3363
870.58	3412
870.71	3462
870.84	3466
870.97	3351
871.1	3294
871.23	3515
871.36	3469
871.489	3393
871.619	3393
871.749	3428
871.879	3416
872.008	3500
872.138	3397
872.267	3340
872.397	3142
872.526	3127
872.656	3001
872.785	3131
872.915	3291
873.044	3329
873.173	3272
873.303	3283
873.432	3253
873.561	3264
873.69	3192
873.819	3161
873.948	3226
874.077	3157
874.206	3093
874.335	3108
874.464	3272
874.593	3374
874.722	3256
874.851	3439
874.979	3374
875.108	3329
875.237	3249
875.365	3195
875.494	3203
875.623	3306
875.751	3108
875.88	3135
876.008	3199
876.136	3245
876.265	3435
876.393	3534
876.521	3492
876.65	3409
876.778	3344
876.906	3218
877.034	3226
877.162	3249
877.29	3241
877.418	3272
877.546	3233
877.674	3283
877.802	3260
877.93	3230
878.058	3180
878.185	3116
878.313	3241
878.441	3256
878.568	3093
878.696	3192
878.824	3256
878.951	3340
879.079	3458
879.206	3686
879.333	3485
879.461	3386
879.588	3382
879.715	3511
879.842	3629
879.97	3405
880.097	3184
880.224	3135
880.351	3203
880.478	3237
880.605	3222
880.732	3207
880.859	3534
880.986	3355
881.112	3329
881.239	3233
881.366	3112
881.493	3070
881.619	3047
881.746	3066
881.872	3119
881.999	3180
882.125	3138
882.252	3237
882.378	3272
882.505	3488
882.631	3313
882.757	3214
882.883	3241
883.01	3241
883.136	3154
883.262	3138
883.388	3165
883.514	3336
883.64	3428
883.766	3302
883.892	3207
884.018	3237
884.143	3416
884.269	3549
884.395	3233
884.52	3203
884.646	3180
884.772	3138
884.897	3146
885.023	3207
885.148	3344
885.274	3443
885.399	3412
885.524	3306
885.65	3249
885.775	3332
885.9	3279
886.025	3485
886.15	3370
886.275	3321
886.4	3275
886.525	3340
886.65	3291
886.775	3260
886.9	3557
887.025	3629
887.149	3405
887.274	3298
887.399	3192
887.523	3275
887.648	3214
887.773	3195
887.897	3431
888.021	3435
888.146	3340
888.27	3458
888.395	3553
888.519	3447
888.643	3466
888.767	3481
888.891	3325
889.015	3268
889.139	3294
889.263	3245
889.387	3450
889.511	3523
889.635	3481
889.759	3310
889.883	3313
890.006	3416
890.13	3507
890.254	3298
890.377	3382
890.501	3230
890.624	3184
890.748	3317
890.871	3226
890.995	3112
891.118	3116
891.241	3218
891.364	3245
891.488	3325
891.611	3165
891.734	3222
891.857	3294
891.98	3253
892.103	3374
892.226	3302
892.349	3233
892.471	3123
892.594	3253
892.717	3294
892.839	3302
892.962	3283
893.085	3340
893.207	3283
893.33	3180
893.452	3237
893.575	3344
893.697	3264
893.819	3492
893.941	3507
894.064	3443
894.186	3294
894.308	3287
894.43	3439
894.552	3580
894.674	3530
894.796	3275
894.918	3325
895.04	3275
895.161	3443
895.283	3412
895.405	3351
895.526	3389
895.648	3420
895.769	3450
895.891	3420
896.012	3511
896.134	3481
896.255	3477
896.376	3424
896.498	3374
896.619	3443
896.74	3374
896.861	3443
896.982	3667
897.103	3861
897.224	3625
897.345	3507
897.466	3428
897.587	3504
897.708	3618
897.828	3572
897.949	3443
898.07	3359
898.19	3466
898.311	3599
898.431	3488
898.552	3538
898.672	3584
898.792	3553
898.913	3523
899.033	3428
899.153	3313
899.273	3241
899.393	3298
899.513	3321
899.633	3336
899.753	3367
899.873	3310
899.993	3393
900.113	3355
900.232	3431
900.352	3348
900.472	3310
900.591	3195
900.711	3317
900.83	3264
900.95	3450
901.069	3542
901.189	3363
901.308	3176
901.427	3138
901.546	3195
901.665	3294
901.784	3302
901.904	3226
902.023	3123
902.141	2998
902.26	3013
902.379	3157
902.498	3097
902.617	3066
902.735	3195
902.854	3245
902.973	3226
903.091	3058
903.21	3066
903.328	3180
903.446	3131
903.565	3127
903.683	3218
903.801	3150
903.919	3230
904.038	3283
904.156	3165
904.274	3306
904.392	3264
904.51	3291
904.627	3317
904.745	3447
904.863	3515
904.981	3310
905.098	3180
905.216	3241
905.334	3260
905.451	3329
905.569	3313
905.686	3450
905.803	3462
905.921	3336
906.038	3424
906.155	3355
906.272	3272
906.389	3332
906.506	3211
906.623	3249
906.74	3256
906.857	3195
906.974	3287
907.091	3469
907.208	3564
907.324	3526
907.441	3409
907.557	3214
907.674	3283
907.79	3245
907.907	3268
908.023	3409
908.139	3389
908.256	3363
908.372	3386
908.488	3405
908.604	3272
908.72	3230
908.836	3302
908.952	3313
909.068	3378
909.184	3504
909.3	3447
909.415	3481
909.531	3488
909.647	3283
909.762	3306
909.878	3294
909.993	3336
910.108	3344
910.224	3363
910.339	3409
910.454	3340
910.57	3351
910.685	3230
910.8	3625
910.915	3534
911.03	3401
911.145	3275
911.259	3283
911.374	3321
911.489	3268
911.604	3218
911.718	3131
911.833	3184
911.947	3039
912.062	2979
912.176	3188
912.291	3207
912.405	3214
912.519	3450
912.633	3488
912.748	3336
912.862	3272
912.976	3150
913.09	3066
913.204	3127
913.318	3249
913.431	3336
913.545	3340
913.659	3420
913.772	3370
913.886	3245
914	3218
914.113	3363
914.226	3458
914.34	3367
914.453	3218
914.566	3416
914.68	3294
914.793	3374
914.906	3127
915.019	3127
915.132	3081
915.245	3184
915.358	3218
915.47	3237
915.583	3233
915.696	3287
915.809	3435
915.921	3477
916.034	3279
916.146	3245
916.259	3226
916.371	3397
916.483	3363
916.595	3256
916.708	3386
916.82	3325
916.932	3374
917.044	3344
917.156	3363
917.268	3287
917.38	3306
917.491	3321
917.603	3393
917.715	3488
917.826	3477
917.938	3409
918.049	3264
918.161	3443
918.272	3557
918.384	3564
918.495	3500
918.606	3329
918.717	3317
918.828	3393
918.939	3416
919.05	3268
919.161	3374
919.272	3180
919.383	3272
919.494	3492
919.604	3724
919.715	3500
919.826	3382
919.936	3466
920.047	3595
920.157	3526
920.267	3755
920.378	3584
920.488	3599
920.598	3778
920.708	3979
920.818	3808
920.928	3804
921.038	4032
921.148	4055
921.258	3686
921.368	3644
921.477	3606
921.587	3561
921.697	3466
921.806	3633
921.916	3538
922.025	3397
922.134	3359
922.244	3340
922.353	3431
922.462	3256
922.571	3256
922.68	3165
922.789	3085
922.898	3154
923.007	3093
923.116	3230
923.224	3169
923.333	3161
923.442	3097
923.55	3077
923.659	3138
923.767	3214
923.876	3169
923.984	3268
924.092	3123
924.201	3268
924.309	3226
924.417	3199
924.525	3199
924.633	3222
924.741	4010
924.849	3077
924.956	3253
925.064	3119
925.172	3036
925.279	3085
925.387	3176
925.494	3180
925.602	3348
925.709	3351
925.816	3218
925.924	3249
926.031	3363
926.138	3325
926.245	3386
926.352	3237
926.459	3439
926.566	3481
926.673	3294
926.779	3245
926.886	3230
926.993	3154
927.099	3146
927.206	3119
927.312	3104
927.419	3226
927.525	3222
927.631	3302
927.737	3123
927.843	3135
927.95	3070
928.056	3161
928.162	3195
928.267	3279
928.373	3861
928.479	3302
928.585	3085
928.69	3222
928.796	3310
928.901	3180
929.007	3066
929.112	3188
929.218	3169
929.323	3135
929.428	3150
929.533	3325
929.638	3138
929.743	3188
929.848	3245
929.953	3211
930.058	3184
930.163	3020
930.267	3070
930.372	3188
930.477	3039
930.581	3313
930.685	3169
930.79	3039
930.894	3138
930.998	3138
931.103	3253
931.207	2986
931.311	2952
931.415	2925
931.519	2766
931.623	2785
