Data from test_V78500241_1424.txt Node
Date: Fri Mar 25 16:25:04 CST 2022
User: usil
Spectrometer: V785-0024
Trigger mode: 0
Integration Time (sec): 4.000000E-1
Scans to average: 1
Nonlinearity correction enabled: false
Boxcar width: 0
Storing dark spectrum: false
XAxis mode: Wavelengths
Number of Pixels in Spectrum: 1024
>>>>>Begin Spectral Data<<<<<
801.071	2929
801.214	2967
801.356	2906
801.499	2933
801.641	2895
801.783	2929
801.926	3112
802.068	3005
802.211	3024
802.353	3043
802.496	2986
802.638	3024
802.78	3055
802.923	3135
803.065	2990
803.208	2902
803.35	2944
803.492	2971
803.635	2963
803.777	2750
803.919	2872
804.061	3222
804.204	2937
804.346	2925
804.488	2849
804.63	3001
804.773	2876
804.915	2944
805.057	3093
805.199	2967
805.341	2982
805.483	3062
805.626	3028
805.768	2960
805.91	3097
806.052	3146
806.194	3058
806.336	3268
806.478	3036
806.62	2998
806.762	2971
806.904	3047
807.046	3180
807.188	2982
807.33	2941
807.472	3017
807.614	2952
807.756	2982
807.898	2914
808.04	2918
808.182	2975
808.324	2979
808.465	2899
808.607	2902
808.749	2826
808.891	2876
809.033	3017
809.174	3005
809.316	2899
809.458	2906
809.6	2792
809.741	2746
809.883	2781
810.025	2868
810.166	2868
810.308	2853
810.45	2902
810.591	2785
810.733	2773
810.875	2826
811.016	2811
811.158	2754
811.299	2849
811.441	2967
811.582	2944
811.724	2887
811.865	2880
812.007	2929
812.148	2883
812.29	2819
812.431	2887
812.573	2979
812.714	2933
812.855	3020
812.997	3089
813.138	3116
813.279	2986
813.421	2998
813.562	2979
813.703	2864
813.845	2880
813.986	2826
814.127	2750
814.268	2819
814.41	2838
814.551	2826
814.692	2895
814.833	2830
814.974	2902
815.115	2979
815.256	2826
815.397	2796
815.539	2857
815.68	2788
815.821	2800
815.962	2925
816.103	2967
816.244	2880
816.385	2891
816.526	2979
816.666	2925
816.807	2720
816.948	2906
817.089	2960
817.23	2807
817.371	2781
817.512	2800
817.653	2838
817.793	2826
817.934	2883
818.075	2975
818.216	2994
818.356	3009
818.497	2883
818.638	2773
818.778	2819
818.919	2830
819.06	2769
819.2	2853
819.341	2792
819.481	2796
819.622	2952
819.762	3112
819.903	3070
820.043	2941
820.184	2941
820.324	2899
820.465	3058
820.605	3062
820.746	2990
820.886	2918
821.026	3074
821.167	3154
821.307	3268
821.447	3306
821.588	3245
821.728	3233
821.868	3199
822.008	3070
822.149	3214
822.289	3237
822.429	3108
822.569	3116
822.709	3188
822.849	3085
822.99	3047
823.13	3157
823.27	3245
823.41	3135
823.55	3135
823.69	3150
823.83	3211
823.97	3104
824.11	3005
824.25	2998
824.389	3074
824.529	3135
824.669	3112
824.809	3176
824.949	3279
825.089	3161
825.228	3184
825.368	3017
825.508	2952
825.648	2986
825.787	3032
825.927	3032
826.067	2952
826.206	2941
826.346	3058
826.485	3131
826.625	3119
826.765	3302
826.904	3184
827.044	3024
827.183	2963
827.323	2872
827.462	3028
827.601	2941
827.741	2956
827.88	2986
828.02	2868
828.159	2994
828.298	3036
828.437	3161
828.577	3043
828.716	3218
828.855	3051
828.994	2880
829.134	2864
829.273	2948
829.412	2857
829.551	2864
829.69	2887
829.829	3005
829.968	3100
830.107	3032
830.246	2998
830.385	2925
830.524	2922
830.663	2804
830.802	2705
830.941	2670
831.08	2648
831.219	2769
831.357	2777
831.496	2986
831.635	2712
831.774	2632
831.913	2682
832.051	2560
832.19	2587
832.329	2682
832.467	2514
832.606	2457
832.744	2594
832.883	2606
833.022	2617
833.16	2648
833.299	2663
833.437	2693
833.576	2712
833.714	2735
833.852	2750
833.991	2792
834.129	2830
834.267	2838
834.406	2826
834.544	2895
834.682	2868
834.821	2910
834.959	3097
835.097	2922
835.235	3058
835.373	3028
835.511	3028
835.65	2952
835.788	2971
835.926	2830
836.064	2826
836.202	2815
836.34	3058
836.478	3157
836.615	3104
836.753	3116
836.891	3222
837.029	3180
837.167	3108
837.305	3077
837.443	3066
837.58	2918
837.718	3154
837.856	3058
837.993	3077
838.131	3116
838.269	3074
838.406	3123
838.544	3108
838.681	2944
838.819	2937
838.956	2800
839.094	2819
839.231	2922
839.369	3032
839.506	3397
839.643	3256
839.781	3036
839.918	3013
840.055	3013
840.193	3058
840.33	3074
840.467	3116
840.604	3150
840.742	3416
840.879	3058
841.016	3070
841.153	3097
841.29	3317
841.427	3287
841.564	3275
841.701	3351
841.838	3245
841.975	3165
842.112	3264
842.249	3089
842.385	3032
842.522	3256
842.659	3097
842.796	3116
842.933	3157
843.069	3024
843.206	3047
843.343	3203
843.479	3085
843.616	3165
843.752	2895
843.889	2864
844.025	3112
844.162	2925
844.298	3070
844.435	2944
844.571	2918
844.708	3077
844.844	3176
844.98	3226
845.117	3195
845.253	3039
845.389	3024
845.525	3127
845.661	3112
845.798	2990
845.934	3116
846.07	3066
846.206	3253
846.342	3313
846.478	3241
846.614	3093
846.75	3062
846.886	3020
847.022	3230
847.158	3119
847.294	3222
847.429	3199
847.565	3203
847.701	3466
847.837	3020
847.972	3017
848.108	3214
848.244	3142
848.379	3001
848.515	2933
848.65	2952
848.786	2982
848.921	3001
849.057	3108
849.192	3161
849.328	3074
849.463	3085
849.598	3051
849.734	3047
849.869	2986
850.004	2910
850.14	2956
850.275	2944
850.41	2842
850.545	2861
850.68	2902
850.815	2960
850.95	2986
851.085	3180
851.22	3127
851.355	3009
851.49	2975
851.625	2986
851.76	3028
851.895	2914
852.03	2944
852.165	3039
852.299	3116
852.434	3188
852.569	3165
852.703	3142
852.838	3268
852.973	3302
853.107	3325
853.242	3180
853.376	3116
853.511	2975
853.645	3020
853.78	3199
853.914	3131
854.048	3131
854.183	3123
854.317	3127
854.451	3226
854.585	3157
854.72	3074
854.854	3230
854.988	3036
855.122	3093
855.256	2994
855.39	3100
855.524	3256
855.658	3199
855.792	3123
855.926	3195
856.06	3226
856.194	3233
856.327	3173
856.461	3066
856.595	3070
856.729	3116
856.862	3230
856.996	3157
857.13	3188
857.263	3253
857.397	3268
857.53	3169
857.664	3207
857.797	3245
857.931	3245
858.064	3188
858.197	3226
858.331	3100
858.464	3085
858.597	3001
858.731	3154
858.864	3112
858.997	3070
859.13	3119
859.263	3157
859.396	3203
859.529	3077
859.662	3085
859.795	3028
859.928	3131
860.061	3268
860.194	3287
860.327	3135
860.46	3077
860.592	3214
860.725	3260
860.858	3272
860.99	3089
861.123	3028
861.256	3058
861.388	3154
861.521	3743
861.653	3001
861.786	2990
861.918	2979
862.05	3051
862.183	3070
862.315	3135
862.447	3176
862.58	3127
862.712	2948
862.844	2857
862.976	3062
863.108	2982
863.24	3310
863.372	2834
863.504	2956
863.636	2952
863.768	3028
863.9	2982
864.032	2922
864.164	2948
864.296	3047
864.428	3058
864.559	3108
864.691	3081
864.823	3066
864.954	3043
865.086	3036
865.217	2990
865.349	2948
865.48	2979
865.612	3013
865.743	3203
865.875	2979
866.006	2914
866.137	2941
866.269	2922
866.4	2967
866.531	2929
866.662	2944
866.793	2872
866.924	2914
867.055	2956
867.186	2895
867.317	2876
867.448	2807
867.579	2861
867.71	2861
867.841	2815
867.972	2910
868.103	2906
868.233	2922
868.364	2887
868.495	2902
868.625	3070
868.756	3154
868.886	2982
869.017	3024
869.147	3184
869.278	3169
869.408	3047
869.539	3024
869.669	3093
869.799	3005
869.929	3135
870.06	3089
870.19	3329
870.32	3222
870.45	3310
870.58	3348
870.71	3447
870.84	3447
870.97	3283
871.1	3203
871.23	3485
871.36	3481
871.489	3321
871.619	3424
871.749	3389
871.879	3431
872.008	3507
872.138	3344
872.267	3237
872.397	3135
872.526	3108
872.656	2994
872.785	3093
872.915	3233
873.044	3351
873.173	3230
873.303	3207
873.432	3222
873.561	3214
873.69	3169
873.819	3123
873.948	3195
874.077	3058
874.206	3032
874.335	3055
874.464	3218
874.593	3321
874.722	3230
874.851	3393
874.979	3336
875.108	3306
875.237	3207
875.365	3142
875.494	3180
875.623	3222
875.751	3093
875.88	3135
876.008	3211
876.136	3253
876.265	3351
876.393	3481
876.521	3443
876.65	3367
876.778	3298
876.906	3218
877.034	3161
877.162	3230
877.29	3203
877.418	3283
877.546	3226
877.674	3272
877.802	3256
877.93	3268
878.058	3192
878.185	3116
878.313	3226
878.441	3199
878.568	3081
878.696	3150
878.824	3241
878.951	3325
879.079	3466
879.206	3610
879.333	3428
879.461	3298
879.588	3344
879.715	3496
879.842	3591
879.97	3374
880.097	3131
880.224	3142
880.351	3157
880.478	3226
880.605	3188
880.732	3176
880.859	3492
880.986	3287
881.112	3294
881.239	3203
881.366	3119
881.493	3020
881.619	3028
881.746	3055
881.872	3108
881.999	3070
882.125	3127
882.252	3222
882.378	3268
882.505	3424
882.631	3260
882.757	3157
882.883	3207
883.01	3222
883.136	3138
883.262	3089
883.388	3104
883.514	3321
883.64	3355
883.766	3291
883.892	3173
884.018	3245
884.143	3409
884.269	3538
884.395	3184
884.52	3161
884.646	3157
884.772	3089
884.897	3108
885.023	3233
885.148	3340
885.274	3397
885.399	3367
885.524	3283
885.65	3222
885.775	3321
885.9	3291
886.025	3428
886.15	3370
886.275	3241
886.4	3211
886.525	3287
886.65	3275
886.775	3287
886.9	3481
887.025	3644
887.149	3409
887.274	3275
887.399	3180
887.523	3226
887.648	3207
887.773	3184
887.897	3359
888.021	3409
888.146	3249
888.27	3393
888.395	3507
888.519	3401
888.643	3473
888.767	3492
888.891	3287
889.015	3272
889.139	3291
889.263	3218
889.387	3382
889.511	3504
889.635	3435
889.759	3253
889.883	3294
890.006	3370
890.13	3519
890.254	3291
890.377	3321
890.501	3241
890.624	3199
890.748	3298
890.871	3161
890.995	3070
891.118	3047
891.241	3203
891.364	3230
891.488	3317
891.611	3161
891.734	3188
891.857	3298
891.98	3237
892.103	3313
892.226	3287
892.349	3222
892.471	3127
892.594	3226
892.717	3264
892.839	3283
892.962	3294
893.085	3382
893.207	3256
893.33	3176
893.452	3180
893.575	3374
893.697	3230
893.819	3473
893.941	3488
894.064	3469
894.186	3249
894.308	3264
894.43	3420
894.552	3515
894.674	3469
894.796	3241
894.918	3291
895.04	3268
895.161	3393
895.283	3336
895.405	3291
895.526	3359
895.648	3416
895.769	3409
895.891	3435
896.012	3450
896.134	3488
896.255	3405
896.376	3409
896.498	3340
896.619	3401
896.74	3344
896.861	3409
896.982	3694
897.103	3857
897.224	3587
897.345	3485
897.466	3424
897.587	3485
897.708	3637
897.828	3523
897.949	3439
898.07	3340
898.19	3420
898.311	3599
898.431	3454
898.552	3492
898.672	3603
898.792	3568
898.913	3545
899.033	3431
899.153	3287
899.273	3195
899.393	3275
899.513	3310
899.633	3283
899.753	3351
899.873	3298
899.993	3389
900.113	3348
900.232	3348
900.352	3382
900.472	3294
900.591	3203
900.711	3298
900.83	3245
900.95	3420
901.069	3492
901.189	3374
901.308	3176
901.427	3142
901.546	3195
901.665	3298
901.784	3329
901.904	3241
902.023	3112
902.141	2998
902.26	2967
902.379	3097
902.498	3100
902.617	3074
902.735	3233
902.854	3245
902.973	3169
903.091	3058
903.21	3043
903.328	3104
903.446	3138
903.565	3112
903.683	3199
903.801	3119
903.919	3218
904.038	3272
904.156	3169
904.274	3287
904.392	3275
904.51	3260
904.627	3313
904.745	3488
904.863	3504
904.981	3222
905.098	3150
905.216	3241
905.334	3272
905.451	3264
905.569	3298
905.686	3428
905.803	3443
905.921	3287
906.038	3450
906.155	3374
906.272	3264
906.389	3332
906.506	3260
906.623	3233
906.74	3302
906.857	3176
906.974	3245
907.091	3431
907.208	3534
907.324	3458
907.441	3359
907.557	3211
907.674	3241
907.79	3226
907.907	3279
908.023	3382
908.139	3370
908.256	3344
908.372	3363
908.488	3336
908.604	3279
908.72	3230
908.836	3264
908.952	3287
909.068	3313
909.184	3530
909.3	3382
909.415	3507
909.531	3424
909.647	3279
909.762	3298
909.878	3256
909.993	3389
910.108	3340
910.224	3340
910.339	3435
910.454	3374
910.57	3313
910.685	3253
910.8	3610
910.915	3523
911.03	3454
911.145	3256
911.259	3222
911.374	3310
911.489	3237
911.604	3233
911.718	3123
911.833	3169
911.947	3013
912.062	2994
912.176	3123
912.291	3211
912.405	3230
912.519	3409
912.633	3447
912.748	3329
912.862	3249
912.976	3135
913.09	3039
913.204	3146
913.318	3253
913.431	3317
913.545	3291
913.659	3405
913.772	3332
913.886	3192
914	3211
914.113	3378
914.226	3428
914.34	3363
914.453	3218
914.566	3405
914.68	3256
914.793	3283
914.906	3154
915.019	3070
915.132	3081
915.245	3192
915.358	3199
915.47	3233
915.583	3249
915.696	3279
915.809	3382
915.921	3428
916.034	3279
916.146	3237
916.259	3245
916.371	3351
916.483	3340
916.595	3275
916.708	3367
916.82	3298
916.932	3325
917.044	3363
917.156	3340
917.268	3272
917.38	3298
917.491	3302
917.603	3382
917.715	3443
917.826	3473
917.938	3370
918.049	3245
918.161	3428
918.272	3580
918.384	3553
918.495	3500
918.606	3348
918.717	3245
918.828	3378
918.939	3416
919.05	3351
919.161	3367
919.272	3211
919.383	3237
919.494	3515
919.604	3660
919.715	3443
919.826	3412
919.936	3450
920.047	3580
920.157	3545
920.267	3740
920.378	3625
920.488	3538
920.598	3789
920.708	3960
920.818	3793
920.928	3808
921.038	4044
921.148	3994
921.258	3709
921.368	3648
921.477	3584
921.587	3530
921.697	3450
921.806	3641
921.916	3496
922.025	3355
922.134	3329
922.244	3317
922.353	3409
922.462	3230
922.571	3203
922.68	3123
922.789	3100
922.898	3123
923.007	3104
923.116	3203
923.224	3135
923.333	3195
923.442	3116
923.55	3104
923.659	3135
923.767	3169
923.876	3127
923.984	3260
924.092	3097
924.201	3203
924.309	3207
924.417	3249
924.525	3127
924.633	3233
924.741	4196
924.849	3024
924.956	3260
925.064	3081
925.172	3055
925.279	3070
925.387	3184
925.494	3192
925.602	3359
925.709	3310
925.816	3203
925.924	3268
926.031	3351
926.138	3298
926.245	3386
926.352	3253
926.459	3393
926.566	3466
926.673	3313
926.779	3226
926.886	3222
926.993	3131
927.099	3112
927.206	3089
927.312	3135
927.419	3214
927.525	3214
927.631	3260
927.737	3138
927.843	3123
927.95	3043
928.056	3135
928.162	3146
928.267	3233
928.373	3873
928.479	3325
928.585	3043
928.69	3222
928.796	3272
928.901	3146
929.007	3020
929.112	3184
929.218	3211
929.323	3146
929.428	3135
929.533	3313
929.638	3085
929.743	3150
929.848	3256
929.953	3233
930.058	3119
930.163	3005
930.267	3047
930.372	3199
930.477	3077
930.581	3344
930.685	3188
930.79	3066
930.894	3142
930.998	3123
931.103	3264
931.207	2948
931.311	2944
931.415	2944
931.519	2766
931.623	2800
