Data from test_V78500241_1463.txt Node
Date: Fri Mar 25 16:25:20 CST 2022
User: usil
Spectrometer: V785-0024
Trigger mode: 0
Integration Time (sec): 4.000000E-1
Scans to average: 1
Nonlinearity correction enabled: false
Boxcar width: 0
Storing dark spectrum: false
XAxis mode: Wavelengths
Number of Pixels in Spectrum: 1024
>>>>>Begin Spectral Data<<<<<
801.071	2922
801.214	2963
801.356	2883
801.499	2880
801.641	2891
801.783	2918
801.926	3062
802.068	2941
802.211	3024
802.353	2986
802.496	2952
802.638	2998
802.78	2998
802.923	3097
803.065	3028
803.208	2872
803.35	2887
803.492	2910
803.635	2937
803.777	2727
803.919	2876
804.061	3199
804.204	2941
804.346	2902
804.488	2853
804.63	2963
804.773	2880
804.915	2891
805.057	3077
805.199	2899
805.341	2956
805.483	3051
805.626	3020
805.768	2975
805.91	3077
806.052	3123
806.194	3005
806.336	3249
806.478	3013
806.62	2952
806.762	2994
806.904	3077
807.046	3138
807.188	2979
807.33	2914
807.472	2971
807.614	2941
807.756	2963
807.898	2948
808.04	2864
808.182	2960
808.324	2941
808.465	2857
808.607	2872
808.749	2819
808.891	2861
809.033	2971
809.174	2971
809.316	2876
809.458	2895
809.6	2758
809.741	2750
809.883	2762
810.025	2861
810.166	2868
810.308	2842
810.45	2853
810.591	2762
810.733	2773
810.875	2838
811.016	2769
811.158	2735
811.299	2800
811.441	2910
811.582	2876
811.724	2826
811.865	2864
812.007	2906
812.148	2861
812.29	2849
812.431	2899
812.573	2952
812.714	2956
812.855	3058
812.997	3051
813.138	3131
813.279	3028
813.421	2975
813.562	2960
813.703	2899
813.845	2895
813.986	2788
814.127	2754
814.268	2807
814.41	2842
814.551	2807
814.692	2880
814.833	2811
814.974	2883
815.115	2960
815.256	2819
815.397	2819
815.539	2872
815.68	2743
815.821	2796
815.962	2906
816.103	2925
816.244	2876
816.385	2864
816.526	2952
816.666	2925
816.807	2724
816.948	2861
817.089	2891
817.23	2853
817.371	2773
817.512	2811
817.653	2838
817.793	2811
817.934	2857
818.075	2941
818.216	2982
818.356	3005
818.497	2910
818.638	2834
818.778	2819
818.919	2781
819.06	2731
819.2	2883
819.341	2842
819.481	2777
819.622	2952
819.762	3100
819.903	3028
820.043	2914
820.184	2887
820.324	2883
820.465	3013
820.605	3009
820.746	2986
820.886	2910
821.026	3093
821.167	3127
821.307	3249
821.447	3264
821.588	3226
821.728	3195
821.868	3203
822.008	3058
822.149	3169
822.289	3214
822.429	3108
822.569	3062
822.709	3192
822.849	2994
822.99	3055
823.13	3142
823.27	3203
823.41	3070
823.55	3146
823.69	3150
823.83	3150
823.97	3089
824.11	3017
824.25	3009
824.389	3066
824.529	3085
824.669	3066
824.809	3211
824.949	3291
825.089	3154
825.228	3161
825.368	2982
825.508	2956
825.648	2910
825.787	3020
825.927	3028
826.067	2963
826.206	2948
826.346	3013
826.485	3047
826.625	3100
826.765	3291
826.904	3214
827.044	3009
827.183	2929
827.323	2849
827.462	2979
827.601	2902
827.741	2929
827.88	2952
828.02	2842
828.159	2922
828.298	3017
828.437	3089
828.577	3036
828.716	3195
828.855	3085
828.994	2922
829.134	2876
829.273	2872
829.412	2887
829.551	2872
829.69	2887
829.829	2994
829.968	3100
830.107	2975
830.246	3005
830.385	2872
830.524	2872
830.663	2815
830.802	2724
830.941	2670
831.08	2674
831.219	2750
831.357	2727
831.496	2922
831.635	2674
831.774	2629
831.913	2651
832.051	2522
832.19	2552
832.329	2663
832.467	2530
832.606	2465
832.744	2617
832.883	2590
833.022	2533
833.16	2606
833.299	2712
833.437	2682
833.576	2655
833.714	2693
833.852	2735
833.991	2746
834.129	2823
834.267	2842
834.406	2788
834.544	2838
834.682	2880
834.821	2868
834.959	3051
835.097	2895
835.235	3047
835.373	3001
835.511	2975
835.65	2944
835.788	2963
835.926	2807
836.064	2804
836.202	2823
836.34	3081
836.478	3127
836.615	3032
836.753	3104
836.891	3192
837.029	3127
837.167	3089
837.305	3062
837.443	3001
837.58	2948
837.718	3104
837.856	3058
837.993	2998
838.131	3112
838.269	3123
838.406	3097
838.544	3036
838.681	2941
838.819	2899
838.956	2830
839.094	2792
839.231	2918
839.369	3020
839.506	3332
839.643	3222
839.781	2998
839.918	2933
840.055	3020
840.193	3036
840.33	3039
840.467	3138
840.604	3161
840.742	3424
840.879	3032
841.016	3024
841.153	3097
841.29	3329
841.427	3294
841.564	3264
841.701	3275
841.838	3218
841.975	3165
842.112	3188
842.249	3070
842.385	3024
842.522	3207
842.659	3077
842.796	3043
842.933	3085
843.069	3055
843.206	3051
843.343	3199
843.479	3127
843.616	3119
843.752	2906
843.889	2902
844.025	3097
844.162	2914
844.298	3066
844.435	2948
844.571	2910
844.708	3100
844.844	3184
844.98	3214
845.117	3176
845.253	3032
845.389	3028
845.525	3108
845.661	3100
845.798	2982
845.934	3119
846.07	3051
846.206	3203
846.342	3313
846.478	3207
846.614	3085
846.75	3066
846.886	2990
847.022	3230
847.158	3112
847.294	3188
847.429	3249
847.565	3203
847.701	3466
847.837	3043
847.972	2975
848.108	3150
848.244	3119
848.379	3001
848.515	2956
848.65	2918
848.786	2933
848.921	2971
849.057	3112
849.192	3138
849.328	3043
849.463	3112
849.598	3055
849.734	3039
849.869	2944
850.004	2895
850.14	2956
850.275	2937
850.41	2853
850.545	2883
850.68	2933
850.815	2967
850.95	2986
851.085	3161
851.22	3089
851.355	3005
851.49	2967
851.625	3039
851.76	2986
851.895	2914
852.03	2910
852.165	3001
852.299	3093
852.434	3169
852.569	3112
852.703	3165
852.838	3195
852.973	3336
853.107	3294
853.242	3169
853.376	3074
853.511	2952
853.645	3036
853.78	3233
853.914	3127
854.048	3108
854.183	3047
854.317	3119
854.451	3302
854.585	3142
854.72	3074
854.854	3180
854.988	3051
855.122	3066
855.256	2975
855.39	3123
855.524	3195
855.658	3165
855.792	3150
855.926	3192
856.06	3237
856.194	3264
856.327	3161
856.461	3100
856.595	3074
856.729	3089
856.862	3203
856.996	3154
857.13	3195
857.263	3211
857.397	3256
857.53	3138
857.664	3203
857.797	3245
857.931	3245
858.064	3180
858.197	3230
858.331	3108
858.464	3074
858.597	2986
858.731	3104
858.864	3119
858.997	3055
859.13	3192
859.263	3222
859.396	3218
859.529	3085
859.662	3089
859.795	3070
859.928	3142
860.061	3268
860.194	3264
860.327	3138
860.46	3089
860.592	3203
860.725	3230
860.858	3214
860.99	3100
861.123	3074
861.256	3077
861.388	3112
861.521	3876
861.653	2998
861.786	3013
861.918	2990
862.05	3036
862.183	3089
862.315	3146
862.447	3180
862.58	3104
862.712	2910
862.844	2857
862.976	2998
863.108	2963
863.24	3306
863.372	2895
863.504	2960
863.636	2971
863.768	3013
863.9	2956
864.032	2910
864.164	2933
864.296	3001
864.428	3047
864.559	3070
864.691	3039
864.823	3032
864.954	3020
865.086	3081
865.217	2960
865.349	2952
865.48	2975
865.612	3009
865.743	3176
865.875	2990
866.006	2910
866.137	2967
866.269	2937
866.4	2956
866.531	2918
866.662	2876
866.793	2876
866.924	2876
867.055	2960
867.186	2868
867.317	2853
867.448	2842
867.579	2823
867.71	2834
867.841	2811
867.972	2910
868.103	2887
868.233	2895
868.364	2868
868.495	2906
868.625	3093
868.756	3157
868.886	2998
869.017	3005
869.147	3150
869.278	3169
869.408	3062
869.539	3020
869.669	3062
869.799	3032
869.929	3127
870.06	3108
870.19	3317
870.32	3218
870.45	3272
870.58	3370
870.71	3439
870.84	3431
870.97	3302
871.1	3256
871.23	3526
871.36	3435
871.489	3340
871.619	3378
871.749	3389
871.879	3428
872.008	3481
872.138	3367
872.267	3310
872.397	3127
872.526	3093
872.656	3017
872.785	3104
872.915	3207
873.044	3302
873.173	3226
873.303	3260
873.432	3237
873.561	3233
873.69	3176
873.819	3138
873.948	3199
874.077	3081
874.206	3024
874.335	3093
874.464	3176
874.593	3389
874.722	3268
874.851	3355
874.979	3401
875.108	3310
875.237	3195
875.365	3154
875.494	3146
875.623	3249
875.751	3089
875.88	3108
876.008	3188
876.136	3211
876.265	3348
876.393	3462
876.521	3412
876.65	3420
876.778	3367
876.906	3275
877.034	3199
877.162	3199
877.29	3165
877.418	3256
877.546	3245
877.674	3249
877.802	3218
877.93	3218
878.058	3142
878.185	3085
878.313	3207
878.441	3249
878.568	3112
878.696	3123
878.824	3260
878.951	3298
879.079	3450
879.206	3629
879.333	3424
879.461	3279
879.588	3351
879.715	3477
879.842	3591
879.97	3367
880.097	3138
880.224	3131
880.351	3173
880.478	3176
880.605	3180
880.732	3154
880.859	3481
880.986	3317
881.112	3321
881.239	3199
881.366	3100
881.493	3005
881.619	3028
881.746	3081
881.872	3097
881.999	3131
882.125	3108
882.252	3211
882.378	3275
882.505	3424
882.631	3325
882.757	3188
882.883	3207
883.01	3226
883.136	3184
883.262	3093
883.388	3150
883.514	3321
883.64	3359
883.766	3325
883.892	3203
884.018	3188
884.143	3431
884.269	3507
884.395	3211
884.52	3154
884.646	3157
884.772	3131
884.897	3097
885.023	3199
885.148	3329
885.274	3393
885.399	3363
885.524	3237
885.65	3241
885.775	3287
885.9	3241
886.025	3458
886.15	3355
886.275	3302
886.4	3222
886.525	3317
886.65	3272
886.775	3272
886.9	3439
887.025	3610
887.149	3424
887.274	3233
887.399	3184
887.523	3184
887.648	3180
887.773	3188
887.897	3363
888.021	3370
888.146	3294
888.27	3435
888.395	3515
888.519	3367
888.643	3424
888.767	3481
888.891	3294
889.015	3241
889.139	3275
889.263	3237
889.387	3397
889.511	3519
889.635	3462
889.759	3245
889.883	3298
890.006	3393
890.13	3485
890.254	3253
890.377	3306
890.501	3192
890.624	3173
890.748	3291
890.871	3161
890.995	3104
891.118	3055
891.241	3157
891.364	3256
891.488	3321
891.611	3127
891.734	3188
891.857	3291
891.98	3249
892.103	3355
892.226	3298
892.349	3214
892.471	3093
892.594	3230
892.717	3279
892.839	3253
892.962	3291
893.085	3325
893.207	3275
893.33	3157
893.452	3218
893.575	3367
893.697	3222
893.819	3401
893.941	3454
894.064	3462
894.186	3264
894.308	3264
894.43	3447
894.552	3568
894.674	3481
894.796	3283
894.918	3325
895.04	3283
895.161	3409
895.283	3382
895.405	3268
895.526	3344
895.648	3439
895.769	3386
895.891	3473
896.012	3454
896.134	3447
896.255	3389
896.376	3336
896.498	3386
896.619	3443
896.74	3348
896.861	3416
896.982	3705
897.103	3831
897.224	3599
897.345	3530
897.466	3428
897.587	3504
897.708	3584
897.828	3549
897.949	3431
898.07	3317
898.19	3378
898.311	3610
898.431	3462
898.552	3523
898.672	3584
898.792	3610
898.913	3572
899.033	3431
899.153	3272
899.273	3245
899.393	3279
899.513	3355
899.633	3272
899.753	3363
899.873	3310
899.993	3389
900.113	3321
900.232	3401
900.352	3313
900.472	3268
900.591	3188
900.711	3294
900.83	3207
900.95	3409
901.069	3511
901.189	3370
901.308	3195
901.427	3119
901.546	3176
901.665	3306
901.784	3321
901.904	3222
902.023	3165
902.141	3028
902.26	3005
902.379	3108
902.498	3070
902.617	3043
902.735	3211
902.854	3218
902.973	3157
903.091	3043
903.21	3085
903.328	3176
903.446	3077
903.565	3116
903.683	3203
903.801	3116
903.919	3211
904.038	3279
904.156	3146
904.274	3302
904.392	3245
904.51	3302
904.627	3306
904.745	3397
904.863	3557
904.981	3294
905.098	3165
905.216	3237
905.334	3275
905.451	3253
905.569	3298
905.686	3401
905.803	3405
905.921	3279
906.038	3431
906.155	3321
906.272	3291
906.389	3306
906.506	3253
906.623	3245
906.74	3253
906.857	3165
906.974	3253
907.091	3458
907.208	3568
907.324	3458
907.441	3397
907.557	3245
907.674	3249
907.79	3199
907.907	3272
908.023	3382
908.139	3359
908.256	3363
908.372	3378
908.488	3374
908.604	3268
908.72	3256
908.836	3279
908.952	3268
909.068	3325
909.184	3462
909.3	3367
909.415	3481
909.531	3454
909.647	3306
909.762	3287
909.878	3237
909.993	3397
910.108	3340
910.224	3351
910.339	3412
910.454	3291
910.57	3272
910.685	3226
910.8	3564
910.915	3538
911.03	3439
911.145	3329
911.259	3302
911.374	3313
911.489	3222
911.604	3211
911.718	3116
911.833	3142
911.947	3039
912.062	2994
912.176	3188
912.291	3184
912.405	3192
912.519	3454
912.633	3435
912.748	3351
912.862	3275
912.976	3173
913.09	3043
913.204	3138
913.318	3203
913.431	3325
913.545	3313
913.659	3386
913.772	3317
913.886	3222
914	3169
914.113	3378
914.226	3412
914.34	3378
914.453	3218
914.566	3439
914.68	3241
914.793	3294
914.906	3176
915.019	3123
915.132	3062
915.245	3165
915.358	3203
915.47	3245
915.583	3291
915.696	3283
915.809	3416
915.921	3420
916.034	3268
916.146	3218
916.259	3203
916.371	3424
916.483	3378
916.595	3283
916.708	3359
916.82	3325
916.932	3351
917.044	3302
917.156	3291
917.268	3279
917.38	3298
917.491	3283
917.603	3389
917.715	3447
917.826	3500
917.938	3344
918.049	3291
918.161	3420
918.272	3587
918.384	3576
918.495	3473
918.606	3336
918.717	3272
918.828	3370
918.939	3443
919.05	3275
919.161	3359
919.272	3161
919.383	3260
919.494	3523
919.604	3701
919.715	3450
919.826	3409
919.936	3466
920.047	3591
920.157	3534
920.267	3770
920.378	3629
920.488	3595
920.598	3789
920.708	3945
920.818	3835
920.928	3804
921.038	3972
921.148	3941
921.258	3720
921.368	3625
921.477	3557
921.587	3572
921.697	3462
921.806	3622
921.916	3542
922.025	3378
922.134	3336
922.244	3317
922.353	3386
922.462	3268
922.571	3241
922.68	3081
922.789	3058
922.898	3131
923.007	3077
923.116	3226
923.224	3157
923.333	3157
923.442	3062
923.55	3104
923.659	3127
923.767	3222
923.876	3100
923.984	3203
924.092	3104
924.201	3203
924.309	3211
924.417	3207
924.525	3199
924.633	3218
924.741	4173
924.849	3024
924.956	3283
925.064	3108
925.172	3013
925.279	3108
925.387	3222
925.494	3176
925.602	3397
925.709	3325
925.816	3161
925.924	3287
926.031	3374
926.138	3313
926.245	3367
926.352	3230
926.459	3416
926.566	3458
926.673	3302
926.779	3237
926.886	3222
926.993	3093
927.099	3116
927.206	3093
927.312	3093
927.419	3214
927.525	3199
927.631	3272
927.737	3127
927.843	3131
927.95	3028
928.056	3131
928.162	3195
928.267	3222
928.373	3762
928.479	3325
928.585	3043
928.69	3230
928.796	3287
928.901	3157
929.007	3051
929.112	3176
929.218	3173
929.323	3169
929.428	3154
929.533	3329
929.638	3119
929.743	3180
929.848	3226
929.953	3207
930.058	3165
930.163	2986
930.267	3070
930.372	3253
930.477	3001
930.581	3329
930.685	3169
930.79	3028
930.894	3104
930.998	3116
931.103	3249
931.207	2975
931.311	2952
931.415	2929
931.519	2777
931.623	2826
