Data from test_V78500241_1327.txt Node
Date: Fri Mar 25 16:24:23 CST 2022
User: usil
Spectrometer: V785-0024
Trigger mode: 0
Integration Time (sec): 4.000000E-1
Scans to average: 1
Nonlinearity correction enabled: false
Boxcar width: 0
Storing dark spectrum: false
XAxis mode: Wavelengths
Number of Pixels in Spectrum: 1024
>>>>>Begin Spectral Data<<<<<
801.071	2902
801.214	2906
801.356	2864
801.499	2918
801.641	2845
801.783	2899
801.926	3024
802.068	2990
802.211	2971
802.353	3020
802.496	2960
802.638	3028
802.78	3036
802.923	3081
803.065	2948
803.208	2883
803.35	2929
803.492	2891
803.635	2895
803.777	2750
803.919	2800
804.061	3180
804.204	2937
804.346	2883
804.488	2823
804.63	2971
804.773	2872
804.915	2918
805.057	3066
805.199	2937
805.341	2941
805.483	3020
805.626	2986
805.768	2967
805.91	3085
806.052	3138
806.194	3017
806.336	3199
806.478	2979
806.62	2937
806.762	2948
806.904	3043
807.046	3135
807.188	2941
807.33	2883
807.472	2952
807.614	2902
807.756	2941
807.898	2922
808.04	2883
808.182	2975
808.324	2933
808.465	2906
808.607	2861
808.749	2777
808.891	2849
809.033	2937
809.174	2967
809.316	2849
809.458	2880
809.6	2758
809.741	2743
809.883	2781
810.025	2842
810.166	2826
810.308	2849
810.45	2868
810.591	2743
810.733	2758
810.875	2842
811.016	2781
811.158	2762
811.299	2811
811.441	2944
811.582	2868
811.724	2823
811.865	2819
812.007	2933
812.148	2861
812.29	2815
812.431	2922
812.573	2956
812.714	2922
812.855	3051
812.997	3020
813.138	3127
813.279	2990
813.421	2971
813.562	2986
813.703	2857
813.845	2864
813.986	2811
814.127	2705
814.268	2796
814.41	2819
814.551	2815
814.692	2845
814.833	2815
814.974	2853
815.115	2944
815.256	2834
815.397	2834
815.539	2883
815.68	2773
815.821	2792
815.962	2895
816.103	2937
816.244	2853
816.385	2861
816.526	2948
816.666	2910
816.807	2758
816.948	2883
817.089	2937
817.23	2838
817.371	2785
817.512	2811
817.653	2800
817.793	2807
817.934	2853
818.075	2952
818.216	2990
818.356	2967
818.497	2895
818.638	2781
818.778	2807
818.919	2781
819.06	2762
819.2	2880
819.341	2804
819.481	2804
819.622	2887
819.762	3116
819.903	3017
820.043	2922
820.184	2902
820.324	2902
820.465	2994
820.605	3028
820.746	3017
820.886	2925
821.026	3112
821.167	3180
821.307	3256
821.447	3260
821.588	3253
821.728	3169
821.868	3161
822.008	3089
822.149	3173
822.289	3237
822.429	3085
822.569	3112
822.709	3154
822.849	3013
822.99	3020
823.13	3180
823.27	3176
823.41	3112
823.55	3116
823.69	3142
823.83	3169
823.97	3085
824.11	3020
824.25	3005
824.389	3074
824.529	3108
824.669	3070
824.809	3184
824.949	3268
825.089	3218
825.228	3138
825.368	2986
825.508	2933
825.648	2948
825.787	2960
825.927	2994
826.067	2971
826.206	2956
826.346	3039
826.485	3047
826.625	3093
826.765	3294
826.904	3203
827.044	2971
827.183	2941
827.323	2849
827.462	2979
827.601	2937
827.741	2914
827.88	2914
828.02	2845
828.159	2982
828.298	3070
828.437	3142
828.577	3039
828.716	3233
828.855	3066
828.994	2876
829.134	2861
829.273	2929
829.412	2861
829.551	2857
829.69	2857
829.829	2979
829.968	3089
830.107	2998
830.246	2986
830.385	2906
830.524	2842
830.663	2838
830.802	2720
830.941	2659
831.08	2625
831.219	2712
831.357	2762
831.496	2929
831.635	2708
831.774	2629
831.913	2602
832.051	2549
832.19	2579
832.329	2663
832.467	2545
832.606	2499
832.744	2575
832.883	2518
833.022	2579
833.16	2648
833.299	2678
833.437	2651
833.576	2682
833.714	2712
833.852	2724
833.991	2724
834.129	2815
834.267	2838
834.406	2792
834.544	2861
834.682	2864
834.821	2864
834.959	3070
835.097	2899
835.235	2994
835.373	2952
835.511	3009
835.65	2960
835.788	2963
835.926	2819
836.064	2811
836.202	2853
836.34	3062
836.478	3097
836.615	3036
836.753	3116
836.891	3161
837.029	3161
837.167	3112
837.305	3039
837.443	3039
837.58	2944
837.718	3089
837.856	3024
837.993	3005
838.131	3081
838.269	3081
838.406	3066
838.544	3005
838.681	2918
838.819	2891
838.956	2773
839.094	2819
839.231	2918
839.369	2956
839.506	3291
839.643	3192
839.781	3005
839.918	2944
840.055	3009
840.193	3036
840.33	3070
840.467	3070
840.604	3127
840.742	3420
840.879	2998
841.016	3009
841.153	3066
841.29	3313
841.427	3283
841.564	3291
841.701	3275
841.838	3203
841.975	3211
842.112	3233
842.249	3085
842.385	3024
842.522	3241
842.659	3108
842.796	3085
842.933	3085
843.069	3028
843.206	3047
843.343	3157
843.479	3093
843.616	3146
843.752	2929
843.889	2857
844.025	3089
844.162	2891
844.298	3138
844.435	2956
844.571	2929
844.708	3055
844.844	3245
844.98	3245
845.117	3233
845.253	3055
845.389	3036
845.525	3112
845.661	3127
845.798	3066
845.934	3135
846.07	3074
846.206	3245
846.342	3367
846.478	3268
846.614	3112
846.75	3085
846.886	3043
847.022	3245
847.158	3176
847.294	3211
847.429	3253
847.565	3253
847.701	3515
847.837	3085
847.972	3028
848.108	3207
848.244	3188
848.379	3036
848.515	2963
848.65	2982
848.786	3001
848.921	3032
849.057	3119
849.192	3173
849.328	3127
849.463	3176
849.598	3047
849.734	3070
849.869	2986
850.004	2948
850.14	3062
850.275	2941
850.41	2883
850.545	2952
850.68	2944
850.815	2990
850.95	3017
851.085	3203
851.22	3123
851.355	3066
851.49	3013
851.625	3024
851.76	3070
851.895	2956
852.03	2933
852.165	3081
852.299	3142
852.434	3211
852.569	3165
852.703	3184
852.838	3260
852.973	3389
853.107	3351
853.242	3165
853.376	3127
853.511	3036
853.645	3077
853.78	3272
853.914	3157
854.048	3119
854.183	3104
854.317	3192
854.451	3329
854.585	3131
854.72	3100
854.854	3256
854.988	3104
855.122	3093
855.256	2982
855.39	3138
855.524	3272
855.658	3203
855.792	3157
855.926	3237
856.06	3211
856.194	3317
856.327	3199
856.461	3085
856.595	3116
856.729	3135
856.862	3241
856.996	3203
857.13	3226
857.263	3256
857.397	3294
857.53	3138
857.664	3237
857.797	3291
857.931	3253
858.064	3207
858.197	3233
858.331	3176
858.464	3135
858.597	3024
858.731	3169
858.864	3157
858.997	3119
859.13	3199
859.263	3180
859.396	3218
859.529	3108
859.662	3081
859.795	3051
859.928	3138
860.061	3283
860.194	3279
860.327	3192
860.46	3112
860.592	3233
860.725	3283
860.858	3211
860.99	3104
861.123	3074
861.256	3097
861.388	3157
861.521	3751
861.653	3020
861.786	3024
861.918	3055
862.05	3154
862.183	3104
862.315	3142
862.447	3241
862.58	3142
862.712	2967
862.844	2925
862.976	3055
863.108	3051
863.24	3378
863.372	2902
863.504	2979
863.636	2963
863.768	3047
863.9	3020
864.032	2929
864.164	2929
864.296	3039
864.428	3127
864.559	3119
864.691	3043
864.823	3081
864.954	3036
865.086	3074
865.217	2998
865.349	2971
865.48	3005
865.612	3043
865.743	3192
865.875	3005
866.006	2982
866.137	3020
866.269	2998
866.4	2960
866.531	2914
866.662	2929
866.793	2902
866.924	2956
867.055	2929
867.186	2952
867.317	2937
867.448	2845
867.579	2876
867.71	2925
867.841	2857
867.972	2929
868.103	2918
868.233	2933
868.364	2891
868.495	2952
868.625	3093
868.756	3192
868.886	3017
869.017	3051
869.147	3207
869.278	3199
869.408	3036
869.539	3062
869.669	3116
869.799	3047
869.929	3176
870.06	3123
870.19	3340
870.32	3359
870.45	3317
870.58	3386
870.71	3462
870.84	3492
870.97	3298
871.1	3222
871.23	3496
871.36	3466
871.489	3389
871.619	3412
871.749	3458
871.879	3439
872.008	3530
872.138	3420
872.267	3313
872.397	3169
872.526	3127
872.656	3032
872.785	3131
872.915	3275
873.044	3321
873.173	3256
873.303	3294
873.432	3256
873.561	3287
873.69	3176
873.819	3192
873.948	3211
874.077	3127
874.206	3066
874.335	3142
874.464	3256
874.593	3367
874.722	3233
874.851	3412
874.979	3382
875.108	3351
875.237	3245
875.365	3176
875.494	3192
875.623	3249
875.751	3100
875.88	3131
876.008	3203
876.136	3222
876.265	3424
876.393	3545
876.521	3428
876.65	3420
876.778	3321
876.906	3283
877.034	3184
877.162	3272
877.29	3211
877.418	3310
877.546	3233
877.674	3264
877.802	3253
877.93	3253
878.058	3188
878.185	3112
878.313	3180
878.441	3253
878.568	3097
878.696	3146
878.824	3272
878.951	3340
879.079	3485
879.206	3652
879.333	3477
879.461	3370
879.588	3382
879.715	3496
879.842	3587
879.97	3416
880.097	3154
880.224	3138
880.351	3180
880.478	3237
880.605	3184
880.732	3195
880.859	3496
880.986	3332
881.112	3370
881.239	3256
881.366	3150
881.493	3085
881.619	3055
881.746	3119
881.872	3135
881.999	3085
882.125	3188
882.252	3253
882.378	3310
882.505	3462
882.631	3332
882.757	3184
882.883	3245
883.01	3272
883.136	3146
883.262	3104
883.388	3142
883.514	3374
883.64	3374
883.766	3355
883.892	3211
884.018	3264
884.143	3435
884.269	3591
884.395	3218
884.52	3150
884.646	3192
884.772	3142
884.897	3146
885.023	3245
885.148	3367
885.274	3412
885.399	3374
885.524	3298
885.65	3275
885.775	3306
885.9	3291
886.025	3462
886.15	3412
886.275	3332
886.4	3253
886.525	3325
886.65	3313
886.775	3329
886.9	3481
887.025	3648
887.149	3435
887.274	3253
887.399	3173
887.523	3218
887.648	3218
887.773	3245
887.897	3416
888.021	3450
888.146	3321
888.27	3469
888.395	3561
888.519	3485
888.643	3447
888.767	3488
888.891	3332
889.015	3260
889.139	3283
889.263	3241
889.387	3412
889.511	3511
889.635	3431
889.759	3291
889.883	3306
890.006	3393
890.13	3523
890.254	3287
890.377	3344
890.501	3195
890.624	3173
890.748	3321
890.871	3195
890.995	3146
891.118	3047
891.241	3214
891.364	3237
891.488	3351
891.611	3184
891.734	3222
891.857	3291
891.98	3264
892.103	3332
892.226	3310
892.349	3233
892.471	3104
892.594	3268
892.717	3321
892.839	3279
892.962	3279
893.085	3393
893.207	3291
893.33	3180
893.452	3226
893.575	3363
893.697	3214
893.819	3477
893.941	3542
894.064	3447
894.186	3302
894.308	3245
894.43	3431
894.552	3538
894.674	3462
894.796	3279
894.918	3310
895.04	3272
895.161	3454
895.283	3374
895.405	3332
895.526	3393
895.648	3424
895.769	3458
895.891	3473
896.012	3477
896.134	3496
896.255	3420
896.376	3409
896.498	3389
896.619	3466
896.74	3393
896.861	3431
896.982	3740
897.103	3812
897.224	3637
897.345	3576
897.466	3458
897.587	3515
897.708	3641
897.828	3545
897.949	3458
898.07	3317
898.19	3424
898.311	3614
898.431	3477
898.552	3542
898.672	3587
898.792	3610
898.913	3534
899.033	3424
899.153	3302
899.273	3233
899.393	3313
899.513	3355
899.633	3306
899.753	3378
899.873	3332
899.993	3431
900.113	3348
900.232	3424
900.352	3340
900.472	3268
900.591	3195
900.711	3294
900.83	3283
900.95	3428
901.069	3511
901.189	3332
901.308	3199
901.427	3127
901.546	3184
901.665	3291
901.784	3332
901.904	3226
902.023	3154
902.141	3032
902.26	3013
902.379	3176
902.498	3085
902.617	3070
902.735	3218
902.854	3237
902.973	3249
903.091	3077
903.21	3024
903.328	3116
903.446	3108
903.565	3123
903.683	3233
903.801	3157
903.919	3203
904.038	3317
904.156	3180
904.274	3283
904.392	3253
904.51	3283
904.627	3336
904.745	3435
904.863	3519
904.981	3245
905.098	3211
905.216	3264
905.334	3317
905.451	3348
905.569	3291
905.686	3389
905.803	3428
905.921	3283
906.038	3416
906.155	3351
906.272	3272
906.389	3374
906.506	3241
906.623	3237
906.74	3245
906.857	3195
906.974	3287
907.091	3473
907.208	3557
907.324	3485
907.441	3359
907.557	3268
907.674	3237
907.79	3222
907.907	3317
908.023	3367
908.139	3359
908.256	3321
908.372	3363
908.488	3306
908.604	3256
908.72	3260
908.836	3336
908.952	3245
909.068	3329
909.184	3492
909.3	3405
909.415	3511
909.531	3450
909.647	3264
909.762	3310
909.878	3222
909.993	3367
910.108	3325
910.224	3355
910.339	3409
910.454	3332
910.57	3291
910.685	3294
910.8	3652
910.915	3530
911.03	3447
911.145	3260
911.259	3272
911.374	3336
911.489	3233
911.604	3211
911.718	3154
911.833	3154
911.947	3100
912.062	2990
912.176	3222
912.291	3135
912.405	3226
912.519	3443
912.633	3458
912.748	3344
912.862	3275
912.976	3161
913.09	3055
913.204	3150
913.318	3207
913.431	3363
913.545	3310
913.659	3401
913.772	3313
913.886	3218
914	3176
914.113	3382
914.226	3431
914.34	3355
914.453	3226
914.566	3435
914.68	3340
914.793	3351
914.906	3161
915.019	3123
915.132	3089
915.245	3195
915.358	3233
915.47	3233
915.583	3275
915.696	3310
915.809	3431
915.921	3458
916.034	3287
916.146	3272
916.259	3256
916.371	3428
916.483	3389
916.595	3302
916.708	3374
916.82	3386
916.932	3370
917.044	3370
917.156	3401
917.268	3302
917.38	3359
917.491	3363
917.603	3382
917.715	3481
917.826	3473
917.938	3431
918.049	3306
918.161	3477
918.272	3614
918.384	3614
918.495	3526
918.606	3363
918.717	3348
918.828	3450
918.939	3458
919.05	3340
919.161	3428
919.272	3253
919.383	3317
919.494	3561
919.604	3698
919.715	3557
919.826	3428
919.936	3500
920.047	3660
920.157	3618
920.267	3781
920.378	3603
920.488	3606
920.598	3861
920.708	4021
920.818	3861
920.928	3953
921.038	4143
921.148	4002
921.258	3812
921.368	3671
921.477	3595
921.587	3587
921.697	3519
921.806	3629
921.916	3564
922.025	3397
922.134	3401
922.244	3359
922.353	3462
922.462	3306
922.571	3260
922.68	3119
922.789	3135
922.898	3195
923.007	3154
923.116	3253
923.224	3207
923.333	3230
923.442	3161
923.55	3142
923.659	3173
923.767	3310
923.876	3184
923.984	3253
924.092	3142
924.201	3226
924.309	3272
924.417	3283
924.525	3226
924.633	3256
924.741	4025
924.849	3093
924.956	3294
925.064	3135
925.172	3047
925.279	3100
925.387	3249
925.494	3230
925.602	3397
925.709	3367
925.816	3222
925.924	3306
926.031	3389
926.138	3367
926.245	3405
926.352	3264
926.459	3488
926.566	3526
926.673	3321
926.779	3275
926.886	3272
926.993	3211
927.099	3150
927.206	3165
927.312	3146
927.419	3272
927.525	3264
927.631	3275
927.737	3169
927.843	3157
927.95	3020
928.056	3165
928.162	3211
928.267	3294
928.373	3876
928.479	3370
928.585	3127
928.69	3256
928.796	3283
928.901	3218
929.007	3089
929.112	3226
929.218	3218
929.323	3195
929.428	3176
929.533	3340
929.638	3188
929.743	3199
929.848	3317
929.953	3214
930.058	3157
930.163	3013
930.267	3077
930.372	3195
930.477	3097
930.581	3344
930.685	3188
930.79	3100
930.894	3146
930.998	3093
931.103	3325
931.207	3039
931.311	2975
931.415	2979
931.519	2815
931.623	2883
