Data from test_V78500241_1256.txt Node
Date: Fri Mar 25 16:23:54 CST 2022
User: usil
Spectrometer: V785-0024
Trigger mode: 0
Integration Time (sec): 4.000000E-1
Scans to average: 1
Nonlinearity correction enabled: false
Boxcar width: 0
Storing dark spectrum: false
XAxis mode: Wavelengths
Number of Pixels in Spectrum: 1024
>>>>>Begin Spectral Data<<<<<
801.071	2906
801.214	2914
801.356	2891
801.499	2868
801.641	2868
801.783	2922
801.926	3024
802.068	2967
802.211	2963
802.353	3009
802.496	2979
802.638	3017
802.78	3028
802.923	3047
803.065	3013
803.208	2887
803.35	2906
803.492	2922
803.635	2925
803.777	2746
803.919	2838
804.061	3203
804.204	2967
804.346	2876
804.488	2849
804.63	3024
804.773	2891
804.915	2880
805.057	3089
805.199	2922
805.341	2960
805.483	3047
805.626	2982
805.768	2925
805.91	3070
806.052	3119
806.194	3032
806.336	3207
806.478	3032
806.62	2975
806.762	2956
806.904	3051
807.046	3180
807.188	2971
807.33	2899
807.472	2975
807.614	2914
807.756	2975
807.898	2918
808.04	2861
808.182	2998
808.324	2971
808.465	2876
808.607	2899
808.749	2819
808.891	2864
809.033	2994
809.174	2967
809.316	2941
809.458	2872
809.6	2746
809.741	2766
809.883	2762
810.025	2826
810.166	2849
810.308	2842
810.45	2838
810.591	2746
810.733	2788
810.875	2826
811.016	2750
811.158	2766
811.299	2804
811.441	2941
811.582	2902
811.724	2792
811.865	2823
812.007	2861
812.148	2876
812.29	2872
812.431	2876
812.573	2944
812.714	2979
812.855	3017
812.997	3032
813.138	3070
813.279	3005
813.421	2986
813.562	2963
813.703	2880
813.845	2883
813.986	2754
814.127	2682
814.268	2785
814.41	2834
814.551	2800
814.692	2899
814.833	2845
814.974	2906
815.115	2910
815.256	2804
815.397	2849
815.539	2845
815.68	2754
815.821	2769
815.962	2933
816.103	2880
816.244	2864
816.385	2891
816.526	2975
816.666	2922
816.807	2731
816.948	2883
817.089	2895
817.23	2872
817.371	2796
817.512	2800
817.653	2853
817.793	2834
817.934	2845
818.075	2982
818.216	2994
818.356	3058
818.497	2899
818.638	2785
818.778	2811
818.919	2807
819.06	2739
819.2	2872
819.341	2804
819.481	2800
819.622	2948
819.762	3066
819.903	3032
820.043	2914
820.184	2925
820.324	2883
820.465	3009
820.605	3043
820.746	2986
820.886	2929
821.026	3116
821.167	3150
821.307	3287
821.447	3237
821.588	3214
821.728	3180
821.868	3180
822.008	3074
822.149	3188
822.289	3256
822.429	3089
822.569	3055
822.709	3176
822.849	3051
822.99	3058
823.13	3176
823.27	3199
823.41	3104
823.55	3184
823.69	3146
823.83	3195
823.97	3089
824.11	3028
824.25	3013
824.389	3077
824.529	3104
824.669	3066
824.809	3176
824.949	3249
825.089	3188
825.228	3165
825.368	2990
825.508	2963
825.648	2963
825.787	2963
825.927	2956
826.067	2948
826.206	2956
826.346	3055
826.485	3062
826.625	3077
826.765	3245
826.904	3218
827.044	3009
827.183	2929
827.323	2906
827.462	2982
827.601	2895
827.741	2933
827.88	2990
828.02	2826
828.159	2960
828.298	3036
828.437	3119
828.577	3024
828.716	3207
828.855	3081
828.994	2918
829.134	2910
829.273	2925
829.412	2830
829.551	2864
829.69	2872
829.829	2975
829.968	3150
830.107	3017
830.246	3039
830.385	2906
830.524	2864
830.663	2800
830.802	2712
830.941	2655
831.08	2659
831.219	2739
831.357	2720
831.496	2883
831.635	2739
831.774	2689
831.913	2663
832.051	2556
832.19	2560
832.329	2697
832.467	2533
832.606	2495
832.744	2598
832.883	2560
833.022	2590
833.16	2655
833.299	2674
833.437	2705
833.576	2678
833.714	2720
833.852	2739
833.991	2743
834.129	2834
834.267	2819
834.406	2746
834.544	2887
834.682	2891
834.821	2849
834.959	3066
835.097	2937
835.235	3043
835.373	2994
835.511	2963
835.65	2956
835.788	2941
835.926	2834
836.064	2777
836.202	2830
836.34	3093
836.478	3142
836.615	3055
836.753	3165
836.891	3169
837.029	3176
837.167	3077
837.305	3062
837.443	3058
837.58	2937
837.718	3146
837.856	3043
837.993	3024
838.131	3089
838.269	3077
838.406	3081
838.544	3104
838.681	2952
838.819	2872
838.956	2788
839.094	2830
839.231	2891
839.369	3013
839.506	3348
839.643	3199
839.781	2990
839.918	2971
840.055	3066
840.193	3039
840.33	3051
840.467	3123
840.604	3127
840.742	3393
840.879	3032
841.016	3020
841.153	3085
841.29	3374
841.427	3272
841.564	3272
841.701	3287
841.838	3211
841.975	3165
842.112	3207
842.249	3055
842.385	3051
842.522	3264
842.659	3093
842.796	3043
842.933	3062
843.069	3028
843.206	3036
843.343	3165
843.479	3058
843.616	3142
843.752	2868
843.889	2864
844.025	3055
844.162	2872
844.298	3058
844.435	2910
844.571	2925
844.708	3074
844.844	3127
844.98	3207
845.117	3195
845.253	3039
845.389	2986
845.525	3119
845.661	3097
845.798	2986
845.934	3104
846.07	3013
846.206	3214
846.342	3294
846.478	3214
846.614	3074
846.75	3066
846.886	3036
847.022	3218
847.158	3123
847.294	3218
847.429	3230
847.565	3214
847.701	3504
847.837	3005
847.972	2986
848.108	3154
848.244	3135
848.379	2986
848.515	2910
848.65	2937
848.786	2960
848.921	2990
849.057	3104
849.192	3138
849.328	3058
849.463	3138
849.598	3009
849.734	3017
849.869	2990
850.004	2895
850.14	2944
850.275	2918
850.41	2826
850.545	2868
850.68	2944
850.815	2963
850.95	2948
851.085	3192
851.22	3077
851.355	3028
851.49	2982
851.625	3005
851.76	2990
851.895	2944
852.03	2872
852.165	3047
852.299	3116
852.434	3169
852.569	3142
852.703	3173
852.838	3214
852.973	3291
853.107	3340
853.242	3154
853.376	3100
853.511	3013
853.645	3066
853.78	3245
853.914	3116
854.048	3097
854.183	3077
854.317	3131
854.451	3291
854.585	3108
854.72	3077
854.854	3169
854.988	3051
855.122	3097
855.256	2952
855.39	3116
855.524	3241
855.658	3169
855.792	3173
855.926	3150
856.06	3218
856.194	3245
856.327	3119
856.461	3009
856.595	3100
856.729	3070
856.862	3233
856.996	3173
857.13	3188
857.263	3211
857.397	3272
857.53	3097
857.664	3184
857.797	3214
857.931	3237
858.064	3176
858.197	3199
858.331	3119
858.464	3055
858.597	3009
858.731	3097
858.864	3089
858.997	3100
859.13	3150
859.263	3176
859.396	3195
859.529	3062
859.662	3039
859.795	3036
859.928	3138
860.061	3317
860.194	3253
860.327	3108
860.46	3085
860.592	3233
860.725	3218
860.858	3253
860.99	3100
861.123	3058
861.256	3055
861.388	3112
861.521	3648
861.653	3009
861.786	2929
861.918	2998
862.05	3108
862.183	3077
862.315	3138
862.447	3176
862.58	3123
862.712	2967
862.844	2838
862.976	3013
863.108	2982
863.24	3317
863.372	2857
863.504	2971
863.636	2944
863.768	3024
863.9	3009
864.032	2899
864.164	2929
864.296	2994
864.428	3081
864.559	3104
864.691	3093
864.823	3047
864.954	3047
865.086	3055
865.217	3005
865.349	2971
865.48	2963
865.612	3017
865.743	3154
865.875	2952
866.006	2906
866.137	2971
866.269	2948
866.4	2925
866.531	2952
866.662	2876
866.793	2895
866.924	2883
867.055	2925
867.186	2952
867.317	2918
867.448	2823
867.579	2857
867.71	2838
867.841	2811
867.972	2918
868.103	2937
868.233	2868
868.364	2895
868.495	2876
868.625	3070
868.756	3146
868.886	2986
869.017	2994
869.147	3176
869.278	3157
869.408	3028
869.539	3009
869.669	3085
869.799	3024
869.929	3112
870.06	3077
870.19	3294
870.32	3291
870.45	3298
870.58	3344
870.71	3477
870.84	3439
870.97	3272
871.1	3226
871.23	3515
871.36	3458
871.489	3325
871.619	3397
871.749	3435
871.879	3447
872.008	3447
872.138	3351
872.267	3256
872.397	3089
872.526	3085
872.656	3024
872.785	3108
872.915	3253
873.044	3317
873.173	3214
873.303	3237
873.432	3272
873.561	3233
873.69	3108
873.819	3131
873.948	3203
874.077	3093
874.206	3028
874.335	3081
874.464	3226
874.593	3351
874.722	3192
874.851	3424
874.979	3332
875.108	3313
875.237	3188
875.365	3165
875.494	3188
875.623	3241
875.751	3055
875.88	3104
876.008	3195
876.136	3165
876.265	3351
876.393	3500
876.521	3416
876.65	3386
876.778	3344
876.906	3237
877.034	3226
877.162	3214
877.29	3192
877.418	3245
877.546	3230
877.674	3237
877.802	3226
877.93	3233
878.058	3176
878.185	3066
878.313	3207
878.441	3207
878.568	3058
878.696	3112
878.824	3222
878.951	3275
879.079	3439
879.206	3637
879.333	3424
879.461	3325
879.588	3344
879.715	3469
879.842	3591
879.97	3344
880.097	3154
880.224	3127
880.351	3176
880.478	3230
880.605	3165
880.732	3165
880.859	3511
880.986	3279
881.112	3317
881.239	3218
881.366	3100
881.493	3055
881.619	3005
881.746	3066
881.872	3066
881.999	3077
882.125	3169
882.252	3256
882.378	3291
882.505	3424
882.631	3249
882.757	3108
882.883	3237
883.01	3211
883.136	3138
883.262	3112
883.388	3104
883.514	3359
883.64	3344
883.766	3287
883.892	3203
884.018	3237
884.143	3370
884.269	3545
884.395	3165
884.52	3176
884.646	3146
884.772	3089
884.897	3112
885.023	3173
885.148	3306
885.274	3389
885.399	3351
885.524	3230
885.65	3230
885.775	3298
885.9	3298
886.025	3401
886.15	3386
886.275	3268
886.4	3237
886.525	3287
886.65	3260
886.775	3222
886.9	3481
887.025	3679
887.149	3367
887.274	3272
887.399	3127
887.523	3207
887.648	3203
887.773	3180
887.897	3351
888.021	3409
888.146	3302
888.27	3447
888.395	3549
888.519	3397
888.643	3469
888.767	3462
888.891	3298
889.015	3226
889.139	3272
889.263	3222
889.387	3378
889.511	3507
889.635	3435
889.759	3298
889.883	3329
890.006	3389
890.13	3492
890.254	3268
890.377	3294
890.501	3207
890.624	3203
890.748	3310
890.871	3142
890.995	3093
891.118	3051
891.241	3173
891.364	3199
891.488	3298
891.611	3150
891.734	3233
891.857	3287
891.98	3245
892.103	3302
892.226	3275
892.349	3237
892.471	3100
892.594	3245
892.717	3272
892.839	3245
892.962	3283
893.085	3317
893.207	3294
893.33	3131
893.452	3207
893.575	3340
893.697	3283
893.819	3420
893.941	3458
894.064	3397
894.186	3283
894.308	3298
894.43	3412
894.552	3557
894.674	3466
894.796	3260
894.918	3310
895.04	3294
895.161	3416
895.283	3378
895.405	3291
895.526	3340
895.648	3393
895.769	3424
895.891	3428
896.012	3439
896.134	3507
896.255	3428
896.376	3363
896.498	3332
896.619	3409
896.74	3355
896.861	3424
896.982	3644
897.103	3831
897.224	3606
897.345	3519
897.466	3416
897.587	3545
897.708	3614
897.828	3530
897.949	3393
898.07	3332
898.19	3397
898.311	3622
898.431	3420
898.552	3504
898.672	3587
898.792	3587
898.913	3534
899.033	3374
899.153	3279
899.273	3237
899.393	3287
899.513	3260
899.633	3264
899.753	3310
899.873	3306
899.993	3374
900.113	3294
900.232	3374
900.352	3351
900.472	3249
900.591	3192
900.711	3294
900.83	3226
900.95	3416
901.069	3466
901.189	3351
901.308	3218
901.427	3100
901.546	3169
901.665	3317
901.784	3313
901.904	3207
902.023	3135
902.141	2986
902.26	2975
902.379	3150
902.498	3055
902.617	3036
902.735	3226
902.854	3253
902.973	3203
903.091	3066
903.21	3055
903.328	3142
903.446	3089
903.565	3047
903.683	3214
903.801	3112
903.919	3226
904.038	3256
904.156	3173
904.274	3287
904.392	3260
904.51	3275
904.627	3332
904.745	3424
904.863	3473
904.981	3279
905.098	3184
905.216	3218
905.334	3249
905.451	3275
905.569	3279
905.686	3397
905.803	3420
905.921	3283
906.038	3409
906.155	3344
906.272	3233
906.389	3332
906.506	3272
906.623	3283
906.74	3249
906.857	3188
906.974	3245
907.091	3428
907.208	3542
907.324	3450
907.441	3393
907.557	3199
907.674	3214
907.79	3195
907.907	3233
908.023	3374
908.139	3336
908.256	3298
908.372	3355
908.488	3344
908.604	3260
908.72	3218
908.836	3272
908.952	3283
909.068	3321
909.184	3473
909.3	3378
909.415	3443
909.531	3439
909.647	3256
909.762	3283
909.878	3256
909.993	3378
910.108	3310
910.224	3294
910.339	3409
910.454	3355
910.57	3260
910.685	3245
910.8	3568
910.915	3515
911.03	3401
911.145	3233
911.259	3233
911.374	3272
911.489	3222
911.604	3169
911.718	3116
911.833	3142
911.947	3066
912.062	2986
912.176	3154
912.291	3195
912.405	3214
912.519	3409
912.633	3443
912.748	3325
912.862	3241
912.976	3150
913.09	3058
913.204	3097
913.318	3176
913.431	3325
913.545	3329
913.659	3386
913.772	3298
913.886	3192
914	3180
914.113	3325
914.226	3363
914.34	3363
914.453	3222
914.566	3378
914.68	3283
914.793	3283
914.906	3116
915.019	3112
915.132	3085
915.245	3188
915.358	3207
915.47	3222
915.583	3256
915.696	3321
915.809	3439
915.921	3428
916.034	3249
916.146	3230
916.259	3218
916.371	3420
916.483	3374
916.595	3268
916.708	3332
916.82	3389
916.932	3374
917.044	3374
917.156	3374
917.268	3241
917.38	3313
917.491	3313
917.603	3367
917.715	3477
917.826	3477
917.938	3439
918.049	3298
918.161	3431
918.272	3553
918.384	3580
918.495	3515
918.606	3389
918.717	3344
918.828	3397
918.939	3428
919.05	3351
919.161	3367
919.272	3195
919.383	3321
919.494	3526
919.604	3679
919.715	3504
919.826	3443
919.936	3534
920.047	3603
920.157	3584
920.267	3781
920.378	3656
920.488	3614
920.598	3827
920.708	4006
920.818	3823
920.928	3876
921.038	4040
921.148	4051
921.258	3728
921.368	3660
921.477	3625
921.587	3576
921.697	3523
921.806	3660
921.916	3534
922.025	3359
922.134	3378
922.244	3351
922.353	3469
922.462	3310
922.571	3256
922.68	3116
922.789	3154
922.898	3184
923.007	3112
923.116	3287
923.224	3233
923.333	3199
923.442	3127
923.55	3127
923.659	3154
923.767	3245
923.876	3146
923.984	3302
924.092	3138
924.201	3214
924.309	3268
924.417	3302
924.525	3207
924.633	3256
924.741	4063
924.849	3085
924.956	3287
925.064	3119
925.172	3097
925.279	3142
925.387	3256
925.494	3245
925.602	3382
925.709	3355
925.816	3188
925.924	3310
926.031	3401
926.138	3340
926.245	3363
926.352	3325
926.459	3405
926.566	3496
926.673	3370
926.779	3256
926.886	3291
926.993	3157
927.099	3135
927.206	3157
927.312	3146
927.419	3260
927.525	3226
927.631	3310
927.737	3184
927.843	3157
927.95	3062
928.056	3180
928.162	3237
928.267	3264
928.373	3930
928.479	3321
928.585	3085
928.69	3226
928.796	3298
928.901	3184
929.007	3077
929.112	3218
929.218	3211
929.323	3146
929.428	3146
929.533	3355
929.638	3146
929.743	3188
929.848	3245
929.953	3260
930.058	3142
930.163	3036
930.267	3108
930.372	3226
930.477	3062
930.581	3329
930.685	3230
930.79	3074
930.894	3203
930.998	3123
931.103	3317
931.207	2956
931.311	2967
931.415	2982
931.519	2830
931.623	2815
