Data from test_V78500241_1113.txt Node
Date: Fri Mar 25 16:22:54 CST 2022
User: usil
Spectrometer: V785-0024
Trigger mode: 0
Integration Time (sec): 4.000000E-1
Scans to average: 1
Nonlinearity correction enabled: false
Boxcar width: 0
Storing dark spectrum: false
XAxis mode: Wavelengths
Number of Pixels in Spectrum: 1024
>>>>>Begin Spectral Data<<<<<
801.071	2944
801.214	2963
801.356	2861
801.499	2899
801.641	2883
801.783	2952
801.926	3070
802.068	2986
802.211	3005
802.353	3024
802.496	2986
802.638	3070
802.78	3055
802.923	3074
803.065	2967
803.208	2914
803.35	2933
803.492	2933
803.635	2971
803.777	2800
803.919	2895
804.061	3211
804.204	2933
804.346	2902
804.488	2807
804.63	2990
804.773	2880
804.915	2899
805.057	3055
805.199	2918
805.341	2982
805.483	3047
805.626	3024
805.768	2990
805.91	3070
806.052	3161
806.194	3062
806.336	3237
806.478	3013
806.62	2925
806.762	3005
806.904	3051
807.046	3138
807.188	2998
807.33	2895
807.472	2994
807.614	2914
807.756	3009
807.898	2899
808.04	2914
808.182	2990
808.324	2998
808.465	2925
808.607	2899
808.749	2796
808.891	2849
809.033	2979
809.174	2975
809.316	2918
809.458	2883
809.6	2769
809.741	2762
809.883	2785
810.025	2872
810.166	2845
810.308	2838
810.45	2842
810.591	2792
810.733	2750
810.875	2861
811.016	2785
811.158	2773
811.299	2823
811.441	2956
811.582	2929
811.724	2868
811.865	2880
812.007	2933
812.148	2876
812.29	2876
812.431	2937
812.573	2952
812.714	2975
812.855	3020
812.997	3051
813.138	3131
813.279	2975
813.421	3005
813.562	2963
813.703	2872
813.845	2899
813.986	2804
814.127	2712
814.268	2845
814.41	2826
814.551	2815
814.692	2880
814.833	2826
814.974	2910
815.115	2956
815.256	2834
815.397	2834
815.539	2910
815.68	2800
815.821	2823
815.962	2925
816.103	2929
816.244	2868
816.385	2868
816.526	3017
816.666	2925
816.807	2762
816.948	2895
817.089	2933
817.23	2838
817.371	2807
817.512	2815
817.653	2857
817.793	2849
817.934	2925
818.075	2979
818.216	2998
818.356	3032
818.497	2876
818.638	2823
818.778	2807
818.919	2823
819.06	2785
819.2	2883
819.341	2823
819.481	2819
819.622	2937
819.762	3112
819.903	3062
820.043	2918
820.184	2956
820.324	2902
820.465	3028
820.605	3005
820.746	3017
820.886	2967
821.026	3097
821.167	3154
821.307	3268
821.447	3260
821.588	3211
821.728	3237
821.868	3218
822.008	3066
822.149	3173
822.289	3214
822.429	3085
822.569	3097
822.709	3165
822.849	3032
822.99	3104
823.13	3150
823.27	3211
823.41	3146
823.55	3161
823.69	3142
823.83	3157
823.97	3104
824.11	2994
824.25	3043
824.389	3081
824.529	3142
824.669	3055
824.809	3207
824.949	3233
825.089	3249
825.228	3131
825.368	3013
825.508	2963
825.648	2975
825.787	3036
825.927	3043
826.067	2967
826.206	2929
826.346	3043
826.485	3108
826.625	3123
826.765	3241
826.904	3222
827.044	2982
827.183	2941
827.323	2845
827.462	2982
827.601	2925
827.741	2918
827.88	2979
828.02	2823
828.159	2971
828.298	3047
828.437	3119
828.577	3036
828.716	3253
828.855	3081
828.994	2922
829.134	2895
829.273	2883
829.412	2864
829.551	2864
829.69	2849
829.829	2971
829.968	3112
830.107	3009
830.246	3070
830.385	2887
830.524	2876
830.663	2815
830.802	2735
830.941	2670
831.08	2629
831.219	2735
831.357	2781
831.496	2967
831.635	2727
831.774	2693
831.913	2674
832.051	2522
832.19	2579
832.329	2655
832.467	2522
832.606	2522
832.744	2583
832.883	2621
833.022	2564
833.16	2644
833.299	2689
833.437	2697
833.576	2693
833.714	2705
833.852	2720
833.991	2769
834.129	2819
834.267	2800
834.406	2781
834.544	2861
834.682	2853
834.821	2876
834.959	3062
835.097	2876
835.235	3070
835.373	2990
835.511	3020
835.65	2948
835.788	2944
835.926	2819
836.064	2781
836.202	2849
836.34	3112
836.478	3146
836.615	3024
836.753	3100
836.891	3188
837.029	3195
837.167	3104
837.305	3024
837.443	3017
837.58	2971
837.718	3104
837.856	3062
837.993	3009
838.131	3146
838.269	3093
838.406	3077
838.544	3097
838.681	2925
838.819	2880
838.956	2838
839.094	2823
839.231	2918
839.369	3009
839.506	3340
839.643	3184
839.781	3005
839.918	2990
840.055	3047
840.193	3028
840.33	3089
840.467	3112
840.604	3165
840.742	3401
840.879	3039
841.016	3039
841.153	3104
841.29	3340
841.427	3291
841.564	3279
841.701	3302
841.838	3233
841.975	3188
842.112	3237
842.249	3077
842.385	3062
842.522	3275
842.659	3077
842.796	3081
842.933	3146
843.069	3100
843.206	3097
843.343	3188
843.479	3146
843.616	3150
843.752	2906
843.889	2899
844.025	3112
844.162	2899
844.298	3104
844.435	2998
844.571	2979
844.708	3077
844.844	3226
844.98	3237
845.117	3218
845.253	3104
845.389	3028
845.525	3123
845.661	3127
845.798	3077
845.934	3146
846.07	3074
846.206	3241
846.342	3370
846.478	3279
846.614	3097
846.75	3081
846.886	3017
847.022	3268
847.158	3142
847.294	3268
847.429	3279
847.565	3245
847.701	3542
847.837	3077
847.972	3020
848.108	3226
848.244	3165
848.379	3020
848.515	2952
848.65	2971
848.786	3005
848.921	3081
849.057	3173
849.192	3184
849.328	3081
849.463	3173
849.598	3127
849.734	3074
849.869	3001
850.004	2986
850.14	2994
850.275	2944
850.41	2887
850.545	2914
850.68	2960
850.815	2982
850.95	2994
851.085	3233
851.22	3157
851.355	3077
851.49	3036
851.625	3032
851.76	3062
851.895	2982
852.03	2929
852.165	3020
852.299	3108
852.434	3207
852.569	3154
852.703	3195
852.838	3279
852.973	3359
853.107	3367
853.242	3180
853.376	3097
853.511	3005
853.645	3043
853.78	3237
853.914	3169
854.048	3116
854.183	3135
854.317	3188
854.451	3329
854.585	3127
854.72	3123
854.854	3211
854.988	3097
855.122	3146
855.256	3024
855.39	3108
855.524	3253
855.658	3169
855.792	3184
855.926	3192
856.06	3298
856.194	3287
856.327	3188
856.461	3108
856.595	3077
856.729	3116
856.862	3241
856.996	3173
857.13	3230
857.263	3253
857.397	3283
857.53	3138
857.664	3260
857.797	3249
857.931	3294
858.064	3207
858.197	3275
858.331	3165
858.464	3119
858.597	3017
858.731	3184
858.864	3180
858.997	3142
859.13	3169
859.263	3253
859.396	3211
859.529	3074
859.662	3116
859.795	3055
859.928	3188
860.061	3325
860.194	3279
860.327	3142
860.46	3157
860.592	3291
860.725	3279
860.858	3279
860.99	3116
861.123	3077
861.256	3085
861.388	3188
861.521	3717
861.653	3039
861.786	3036
861.918	3047
862.05	3077
862.183	3131
862.315	3169
862.447	3230
862.58	3104
862.712	2960
862.844	2899
862.976	3074
863.108	3017
863.24	3481
863.372	2910
863.504	3013
863.636	3013
863.768	3070
863.9	2998
864.032	2979
864.164	2994
864.296	3066
864.428	3127
864.559	3142
864.691	3108
864.823	3093
864.954	3074
865.086	3093
865.217	2986
865.349	2979
865.48	3043
865.612	3070
865.743	3157
865.875	3009
866.006	2971
866.137	2979
866.269	2990
866.4	2952
866.531	2948
866.662	2937
866.793	2906
866.924	2944
867.055	3013
867.186	2971
867.317	2933
867.448	2880
867.579	2868
867.71	2910
867.841	2838
867.972	2944
868.103	2925
868.233	2918
868.364	2948
868.495	2933
868.625	3093
868.756	3169
868.886	2967
869.017	3043
869.147	3192
869.278	3184
869.408	3055
869.539	3062
869.669	3108
869.799	3051
869.929	3169
870.06	3135
870.19	3351
870.32	3306
870.45	3298
870.58	3382
870.71	3462
870.84	3469
870.97	3294
871.1	3291
871.23	3515
871.36	3492
871.489	3344
871.619	3393
871.749	3443
871.879	3473
872.008	3504
872.138	3389
872.267	3306
872.397	3157
872.526	3131
872.656	3070
872.785	3127
872.915	3260
873.044	3340
873.173	3230
873.303	3272
873.432	3218
873.561	3268
873.69	3222
873.819	3157
873.948	3207
874.077	3131
874.206	3119
874.335	3085
874.464	3241
874.593	3329
874.722	3272
874.851	3443
874.979	3416
875.108	3329
875.237	3180
875.365	3199
875.494	3218
875.623	3283
875.751	3116
875.88	3119
876.008	3214
876.136	3226
876.265	3405
876.393	3481
876.521	3431
876.65	3412
876.778	3367
876.906	3260
877.034	3207
877.162	3222
877.29	3207
877.418	3279
877.546	3241
877.674	3264
877.802	3264
877.93	3207
878.058	3154
878.185	3135
878.313	3230
878.441	3214
878.568	3070
878.696	3165
878.824	3272
878.951	3264
879.079	3504
879.206	3633
879.333	3458
879.461	3386
879.588	3393
879.715	3511
879.842	3610
879.97	3435
880.097	3184
880.224	3161
880.351	3218
880.478	3256
880.605	3233
880.732	3207
880.859	3485
880.986	3321
881.112	3325
881.239	3211
881.366	3127
881.493	3074
881.619	3055
881.746	3116
881.872	3093
881.999	3146
882.125	3146
882.252	3287
882.378	3317
882.505	3443
882.631	3283
882.757	3211
882.883	3195
883.01	3237
883.136	3119
883.262	3081
883.388	3093
883.514	3363
883.64	3386
883.766	3310
883.892	3222
884.018	3260
884.143	3466
884.269	3557
884.395	3211
884.52	3195
884.646	3192
884.772	3146
884.897	3104
885.023	3203
885.148	3351
885.274	3401
885.399	3374
885.524	3298
885.65	3268
885.775	3321
885.9	3264
886.025	3435
886.15	3386
886.275	3329
886.4	3226
886.525	3332
886.65	3275
886.775	3302
886.9	3542
887.025	3648
887.149	3416
887.274	3279
887.399	3237
887.523	3237
887.648	3188
887.773	3218
887.897	3393
888.021	3397
888.146	3302
888.27	3481
888.395	3561
888.519	3424
888.643	3466
888.767	3473
888.891	3332
889.015	3256
889.139	3287
889.263	3272
889.387	3424
889.511	3504
889.635	3454
889.759	3294
889.883	3340
890.006	3416
890.13	3496
890.254	3313
890.377	3340
890.501	3226
890.624	3203
890.748	3283
890.871	3211
890.995	3108
891.118	3051
891.241	3211
891.364	3222
891.488	3359
891.611	3218
891.734	3233
891.857	3298
891.98	3249
892.103	3325
892.226	3287
892.349	3256
892.471	3154
892.594	3256
892.717	3313
892.839	3291
892.962	3321
893.085	3401
893.207	3336
893.33	3192
893.452	3256
893.575	3355
893.697	3249
893.819	3488
893.941	3515
894.064	3488
894.186	3310
894.308	3249
894.43	3424
894.552	3564
894.674	3488
894.796	3291
894.918	3287
895.04	3298
895.161	3435
895.283	3397
895.405	3317
895.526	3389
895.648	3412
895.769	3416
895.891	3450
896.012	3477
896.134	3504
896.255	3439
896.376	3382
896.498	3367
896.619	3443
896.74	3389
896.861	3435
896.982	3713
897.103	3861
897.224	3572
897.345	3534
897.466	3462
897.587	3469
897.708	3622
897.828	3545
897.949	3435
898.07	3344
898.19	3473
898.311	3660
898.431	3420
898.552	3519
898.672	3644
898.792	3614
898.913	3542
899.033	3416
899.153	3317
899.273	3211
899.393	3256
899.513	3310
899.633	3348
899.753	3340
899.873	3340
899.993	3412
900.113	3310
900.232	3412
900.352	3367
900.472	3325
900.591	3222
900.711	3302
900.83	3241
900.95	3424
901.069	3511
901.189	3378
901.308	3195
901.427	3135
901.546	3199
901.665	3298
901.784	3351
901.904	3230
902.023	3135
902.141	3074
902.26	2994
902.379	3131
902.498	3066
902.617	3058
902.735	3176
902.854	3173
902.973	3260
903.091	3097
903.21	3104
903.328	3154
903.446	3112
903.565	3116
903.683	3195
903.801	3146
903.919	3256
904.038	3325
904.156	3188
904.274	3272
904.392	3264
904.51	3310
904.627	3374
904.745	3431
904.863	3488
904.981	3249
905.098	3226
905.216	3268
905.334	3306
905.451	3336
905.569	3291
905.686	3401
905.803	3485
905.921	3302
906.038	3462
906.155	3340
906.272	3272
906.389	3332
906.506	3241
906.623	3245
906.74	3321
906.857	3195
906.974	3272
907.091	3447
907.208	3587
907.324	3515
907.441	3370
907.557	3230
907.674	3237
907.79	3245
907.907	3302
908.023	3336
908.139	3363
908.256	3355
908.372	3382
908.488	3329
908.604	3302
908.72	3188
908.836	3317
908.952	3283
909.068	3367
909.184	3443
909.3	3393
909.415	3538
909.531	3500
909.647	3291
909.762	3291
909.878	3279
909.993	3351
910.108	3355
910.224	3378
910.339	3431
910.454	3348
910.57	3306
910.685	3260
910.8	3576
910.915	3507
911.03	3412
911.145	3275
911.259	3302
911.374	3321
911.489	3256
911.604	3245
911.718	3112
911.833	3119
911.947	3028
912.062	3028
912.176	3161
912.291	3184
912.405	3233
912.519	3435
912.633	3477
912.748	3344
912.862	3294
912.976	3165
913.09	3081
913.204	3131
913.318	3207
913.431	3336
913.545	3344
913.659	3378
913.772	3378
913.886	3241
914	3199
914.113	3363
914.226	3431
914.34	3351
914.453	3207
914.566	3424
914.68	3294
914.793	3310
914.906	3176
915.019	3104
915.132	3051
915.245	3184
915.358	3226
915.47	3241
915.583	3253
915.696	3283
915.809	3428
915.921	3428
916.034	3298
916.146	3287
916.259	3233
916.371	3405
916.483	3340
916.595	3298
916.708	3359
916.82	3351
916.932	3310
917.044	3351
917.156	3332
917.268	3245
917.38	3302
917.491	3298
917.603	3370
917.715	3416
917.826	3447
917.938	3367
918.049	3306
918.161	3450
918.272	3549
918.384	3545
918.495	3511
918.606	3348
918.717	3272
918.828	3367
918.939	3397
919.05	3325
919.161	3355
919.272	3184
919.383	3268
919.494	3496
919.604	3694
919.715	3477
919.826	3405
919.936	3443
920.047	3587
920.157	3568
920.267	3766
920.378	3622
920.488	3606
920.598	3774
920.708	3991
920.818	3781
920.928	3846
921.038	4048
921.148	4074
921.258	3717
921.368	3637
921.477	3580
921.587	3534
921.697	3462
921.806	3637
921.916	3534
922.025	3363
922.134	3370
922.244	3317
922.353	3424
922.462	3249
922.571	3233
922.68	3093
922.789	3100
922.898	3123
923.007	3093
923.116	3173
923.224	3188
923.333	3199
923.442	3089
923.55	3093
923.659	3119
923.767	3222
923.876	3097
923.984	3245
924.092	3100
924.201	3211
924.309	3268
924.417	3237
924.525	3176
924.633	3222
924.741	4025
924.849	3043
924.956	3253
925.064	3093
925.172	3036
925.279	3108
925.387	3176
925.494	3222
925.602	3348
925.709	3325
925.816	3199
925.924	3256
926.031	3401
926.138	3355
926.245	3382
926.352	3222
926.459	3412
926.566	3466
926.673	3268
926.779	3233
926.886	3245
926.993	3150
927.099	3169
927.206	3146
927.312	3131
927.419	3249
927.525	3195
927.631	3279
927.737	3154
927.843	3123
927.95	3062
928.056	3161
928.162	3195
928.267	3249
928.373	3880
928.479	3279
928.585	3089
928.69	3226
928.796	3253
928.901	3188
929.007	3051
929.112	3214
929.218	3188
929.323	3138
929.428	3169
929.533	3302
929.638	3089
929.743	3157
929.848	3283
929.953	3192
930.058	3138
930.163	2994
930.267	3028
930.372	3184
930.477	3039
930.581	3321
930.685	3203
930.79	3085
930.894	3127
930.998	3089
931.103	3279
931.207	2967
931.311	2910
931.415	2937
931.519	2788
931.623	2804
