Data from test_V78500241_1338.txt Node
Date: Fri Mar 25 16:24:28 CST 2022
User: usil
Spectrometer: V785-0024
Trigger mode: 0
Integration Time (sec): 4.000000E-1
Scans to average: 1
Nonlinearity correction enabled: false
Boxcar width: 0
Storing dark spectrum: false
XAxis mode: Wavelengths
Number of Pixels in Spectrum: 1024
>>>>>Begin Spectral Data<<<<<
801.071	2948
801.214	2998
801.356	2876
801.499	2880
801.641	2902
801.783	2899
801.926	3009
802.068	2990
802.211	3032
802.353	3013
802.496	2967
802.638	3032
802.78	3039
802.923	3089
803.065	2979
803.208	2914
803.35	2952
803.492	2929
803.635	2899
803.777	2785
803.919	2906
804.061	3218
804.204	2918
804.346	2895
804.488	2804
804.63	3017
804.773	2864
804.915	2918
805.057	3066
805.199	2914
805.341	2967
805.483	3009
805.626	2986
805.768	2925
805.91	3093
806.052	3131
806.194	3043
806.336	3207
806.478	3013
806.62	2971
806.762	2998
806.904	3032
807.046	3199
807.188	2922
807.33	2883
807.472	2990
807.614	2933
807.756	3001
807.898	2944
808.04	2887
808.182	2948
808.324	2948
808.465	2864
808.607	2876
808.749	2804
808.891	2872
809.033	2948
809.174	2971
809.316	2880
809.458	2910
809.6	2769
809.741	2804
809.883	2773
810.025	2876
810.166	2842
810.308	2876
810.45	2830
810.591	2746
810.733	2758
810.875	2826
811.016	2777
811.158	2720
811.299	2838
811.441	2952
811.582	2880
811.724	2807
811.865	2811
812.007	2922
812.148	2857
812.29	2811
812.431	2906
812.573	2910
812.714	2956
812.855	3039
812.997	3077
813.138	3119
813.279	3017
813.421	2948
813.562	2918
813.703	2906
813.845	2868
813.986	2788
814.127	2701
814.268	2834
814.41	2834
814.551	2781
814.692	2895
814.833	2773
814.974	2918
815.115	2941
815.256	2788
815.397	2785
815.539	2853
815.68	2773
815.821	2792
815.962	2929
816.103	2925
816.244	2887
816.385	2853
816.526	2975
816.666	2906
816.807	2743
816.948	2880
817.089	2910
817.23	2868
817.371	2777
817.512	2792
817.653	2853
817.793	2788
817.934	2895
818.075	2971
818.216	2994
818.356	2990
818.497	2883
818.638	2792
818.778	2811
818.919	2826
819.06	2746
819.2	2895
819.341	2842
819.481	2807
819.622	2914
819.762	3074
819.903	3070
820.043	2914
820.184	2887
820.324	2925
820.465	3051
820.605	3074
820.746	3043
820.886	2944
821.026	3116
821.167	3180
821.307	3264
821.447	3294
821.588	3241
821.728	3218
821.868	3195
822.008	3066
822.149	3203
822.289	3230
822.429	3116
822.569	3119
822.709	3176
822.849	3047
822.99	3116
823.13	3176
823.27	3237
823.41	3165
823.55	3173
823.69	3165
823.83	3218
823.97	3119
824.11	3047
824.25	3032
824.389	3070
824.529	3138
824.669	3074
824.809	3214
824.949	3272
825.089	3260
825.228	3161
825.368	3032
825.508	2982
825.648	3043
825.787	3036
825.927	3062
826.067	3001
826.206	3020
826.346	3089
826.485	3112
826.625	3165
826.765	3298
826.904	3268
827.044	3028
827.183	2986
827.323	2941
827.462	3032
827.601	2948
827.741	2948
827.88	2990
828.02	2914
828.159	3017
828.298	3074
828.437	3135
828.577	3074
828.716	3279
828.855	3131
828.994	3001
829.134	2948
829.273	2975
829.412	2861
829.551	2891
829.69	2937
829.829	3039
829.968	3161
830.107	3036
830.246	3058
830.385	2956
830.524	2929
830.663	2845
830.802	2758
830.941	2670
831.08	2682
831.219	2785
831.357	2815
831.496	3005
831.635	2754
831.774	2655
831.913	2701
832.051	2587
832.19	2613
832.329	2708
832.467	2556
832.606	2518
832.744	2602
832.883	2640
833.022	2610
833.16	2682
833.299	2693
833.437	2712
833.576	2746
833.714	2769
833.852	2739
833.991	2834
834.129	2864
834.267	2830
834.406	2838
834.544	2922
834.682	2937
834.821	2891
834.959	3043
835.097	2960
835.235	3070
835.373	2990
835.511	3039
835.65	2990
835.788	2998
835.926	2864
836.064	2830
836.202	2906
836.34	3112
836.478	3184
836.615	3074
836.753	3188
836.891	3253
837.029	3169
837.167	3146
837.305	3089
837.443	3070
837.58	2998
837.718	3150
837.856	3100
837.993	3055
838.131	3150
838.269	3142
838.406	3108
838.544	3081
838.681	2956
838.819	2937
838.956	2826
839.094	2861
839.231	2941
839.369	3036
839.506	3409
839.643	3230
839.781	3043
839.918	3013
840.055	3062
840.193	3085
840.33	3112
840.467	3123
840.604	3188
840.742	3477
840.879	3043
841.016	3100
841.153	3154
841.29	3355
841.427	3370
841.564	3275
841.701	3332
841.838	3268
841.975	3203
842.112	3256
842.249	3066
842.385	3062
842.522	3287
842.659	3116
842.796	3097
842.933	3142
843.069	3104
843.206	3077
843.343	3195
843.479	3131
843.616	3150
843.752	2929
843.889	2929
844.025	3119
844.162	2902
844.298	3123
844.435	2971
844.571	2933
844.708	3085
844.844	3199
844.98	3253
845.117	3218
845.253	3081
845.389	3032
845.525	3119
845.661	3173
845.798	3058
845.934	3169
846.07	3070
846.206	3233
846.342	3370
846.478	3275
846.614	3131
846.75	3119
846.886	3032
847.022	3279
847.158	3157
847.294	3173
847.429	3249
847.565	3245
847.701	3496
847.837	3085
847.972	3009
848.108	3211
848.244	3165
848.379	2994
848.515	2971
848.65	2990
848.786	3039
848.921	3013
849.057	3131
849.192	3169
849.328	3108
849.463	3157
849.598	3066
849.734	3085
849.869	3036
850.004	2975
850.14	3024
850.275	2937
850.41	2853
850.545	2906
850.68	2967
850.815	2979
850.95	3009
851.085	3233
851.22	3116
851.355	3051
851.49	2982
851.625	3028
851.76	3070
851.895	2933
852.03	2944
852.165	3043
852.299	3157
852.434	3188
852.569	3192
852.703	3207
852.838	3287
852.973	3336
853.107	3283
853.242	3195
853.376	3085
853.511	2994
853.645	3066
853.78	3249
853.914	3142
854.048	3097
854.183	3074
854.317	3173
854.451	3294
854.585	3154
854.72	3097
854.854	3237
854.988	3081
855.122	3135
855.256	3020
855.39	3146
855.524	3249
855.658	3165
855.792	3173
855.926	3230
856.06	3237
856.194	3294
856.327	3154
856.461	3100
856.595	3104
856.729	3081
856.862	3233
856.996	3180
857.13	3195
857.263	3207
857.397	3294
857.53	3154
857.664	3214
857.797	3241
857.931	3264
858.064	3203
858.197	3253
858.331	3131
858.464	3104
858.597	3043
858.731	3154
858.864	3207
858.997	3116
859.13	3150
859.263	3176
859.396	3230
859.529	3135
859.662	3104
859.795	3070
859.928	3173
860.061	3283
860.194	3298
860.327	3173
860.46	3108
860.592	3275
860.725	3287
860.858	3218
860.99	3146
861.123	3077
861.256	3070
861.388	3180
861.521	3751
861.653	3024
861.786	3001
861.918	3001
862.05	3062
862.183	3097
862.315	3176
862.447	3237
862.58	3112
862.712	2960
862.844	2872
862.976	3089
863.108	3017
863.24	3325
863.372	2876
863.504	2967
863.636	2952
863.768	3028
863.9	3009
864.032	2937
864.164	2937
864.296	3005
864.428	3112
864.559	3104
864.691	3085
864.823	3058
864.954	3085
865.086	3032
865.217	3024
865.349	2990
865.48	2971
865.612	3047
865.743	3161
865.875	2960
866.006	2960
866.137	3001
866.269	2963
866.4	2944
866.531	2971
866.662	2944
866.793	2922
866.924	2937
867.055	2998
867.186	2956
867.317	2864
867.448	2872
867.579	2853
867.71	2876
867.841	2838
867.972	2933
868.103	2925
868.233	2967
868.364	2887
868.495	2918
868.625	3055
868.756	3169
868.886	2986
869.017	3009
869.147	3195
869.278	3230
869.408	3058
869.539	3051
869.669	3097
869.799	3047
869.929	3150
870.06	3127
870.19	3306
870.32	3260
870.45	3268
870.58	3367
870.71	3431
870.84	3439
870.97	3317
871.1	3264
871.23	3496
871.36	3481
871.489	3367
871.619	3386
871.749	3412
871.879	3397
872.008	3488
872.138	3344
872.267	3287
872.397	3150
872.526	3119
872.656	3028
872.785	3123
872.915	3260
873.044	3340
873.173	3233
873.303	3237
873.432	3245
873.561	3272
873.69	3161
873.819	3180
873.948	3192
874.077	3108
874.206	3058
874.335	3070
874.464	3237
874.593	3386
874.722	3237
874.851	3382
874.979	3359
875.108	3332
875.237	3203
875.365	3211
875.494	3199
875.623	3287
875.751	3093
875.88	3142
876.008	3199
876.136	3253
876.265	3393
876.393	3534
876.521	3409
876.65	3374
876.778	3344
876.906	3287
877.034	3207
877.162	3260
877.29	3184
877.418	3260
877.546	3287
877.674	3241
877.802	3241
877.93	3218
878.058	3131
878.185	3100
878.313	3214
878.441	3249
878.568	3093
878.696	3180
878.824	3275
878.951	3291
879.079	3481
879.206	3652
879.333	3450
879.461	3321
879.588	3370
879.715	3507
879.842	3610
879.97	3412
880.097	3218
880.224	3184
880.351	3195
880.478	3253
880.605	3218
880.732	3195
880.859	3492
880.986	3329
881.112	3332
881.239	3161
881.366	3154
881.493	3028
881.619	3013
881.746	3058
881.872	3097
881.999	3085
882.125	3154
882.252	3245
882.378	3294
882.505	3443
882.631	3302
882.757	3131
882.883	3237
883.01	3226
883.136	3161
883.262	3119
883.388	3146
883.514	3310
883.64	3393
883.766	3283
883.892	3192
884.018	3298
884.143	3416
884.269	3523
884.395	3188
884.52	3180
884.646	3203
884.772	3123
884.897	3131
885.023	3275
885.148	3317
885.274	3420
885.399	3351
885.524	3279
885.65	3279
885.775	3317
885.9	3260
886.025	3431
886.15	3374
886.275	3310
886.4	3253
886.525	3332
886.65	3260
886.775	3321
886.9	3504
887.025	3641
887.149	3389
887.274	3241
887.399	3180
887.523	3176
887.648	3176
887.773	3214
887.897	3344
888.021	3405
888.146	3291
888.27	3477
888.395	3504
888.519	3443
888.643	3443
888.767	3469
888.891	3272
889.015	3211
889.139	3310
889.263	3253
889.387	3386
889.511	3542
889.635	3439
889.759	3268
889.883	3287
890.006	3424
890.13	3485
890.254	3283
890.377	3374
890.501	3245
890.624	3211
890.748	3313
890.871	3207
890.995	3112
891.118	3085
891.241	3245
891.364	3275
891.488	3340
891.611	3154
891.734	3230
891.857	3275
891.98	3230
892.103	3329
892.226	3272
892.349	3207
892.471	3135
892.594	3272
892.717	3294
892.839	3313
892.962	3310
893.085	3344
893.207	3268
893.33	3119
893.452	3199
893.575	3317
893.697	3218
893.819	3492
893.941	3507
894.064	3409
894.186	3237
894.308	3313
894.43	3405
894.552	3519
894.674	3454
894.796	3268
894.918	3321
895.04	3279
895.161	3439
895.283	3374
895.405	3317
895.526	3355
895.648	3447
895.769	3450
895.891	3424
896.012	3515
896.134	3473
896.255	3450
896.376	3405
896.498	3355
896.619	3416
896.74	3336
896.861	3367
896.982	3698
897.103	3873
897.224	3629
897.345	3500
897.466	3420
897.587	3507
897.708	3610
897.828	3572
897.949	3462
898.07	3321
898.19	3420
898.311	3618
898.431	3393
898.552	3519
898.672	3625
898.792	3599
898.913	3515
899.033	3416
899.153	3294
899.273	3245
899.393	3291
899.513	3302
899.633	3351
899.753	3344
899.873	3302
899.993	3409
900.113	3351
900.232	3363
900.352	3321
900.472	3298
900.591	3260
900.711	3275
900.83	3233
900.95	3405
901.069	3526
901.189	3344
901.308	3188
901.427	3127
901.546	3154
901.665	3302
901.784	3344
901.904	3233
902.023	3146
902.141	3020
902.26	2986
902.379	3146
902.498	3070
902.617	3043
902.735	3207
902.854	3226
902.973	3222
903.091	3089
903.21	3070
903.328	3146
903.446	3161
903.565	3119
903.683	3211
903.801	3112
903.919	3275
904.038	3275
904.156	3154
904.274	3313
904.392	3291
904.51	3325
904.627	3332
904.745	3435
904.863	3492
904.981	3283
905.098	3188
905.216	3226
905.334	3329
905.451	3279
905.569	3321
905.686	3443
905.803	3431
905.921	3279
906.038	3409
906.155	3386
906.272	3264
906.389	3329
906.506	3218
906.623	3287
906.74	3233
906.857	3169
906.974	3287
907.091	3405
907.208	3481
907.324	3481
907.441	3405
907.557	3237
907.674	3233
907.79	3207
907.907	3283
908.023	3420
908.139	3389
908.256	3355
908.372	3329
908.488	3374
908.604	3222
908.72	3211
908.836	3294
908.952	3249
909.068	3336
909.184	3469
909.3	3397
909.415	3500
909.531	3447
909.647	3272
909.762	3306
909.878	3291
909.993	3363
910.108	3359
910.224	3332
910.339	3431
910.454	3340
910.57	3294
910.685	3230
910.8	3606
910.915	3511
911.03	3412
911.145	3275
911.259	3256
911.374	3321
911.489	3237
911.604	3226
911.718	3131
911.833	3176
911.947	3058
912.062	3001
912.176	3154
912.291	3154
912.405	3233
912.519	3469
912.633	3500
912.748	3306
912.862	3279
912.976	3176
913.09	3089
913.204	3135
913.318	3233
913.431	3340
913.545	3332
913.659	3409
913.772	3351
913.886	3256
914	3199
914.113	3329
914.226	3424
914.34	3386
914.453	3195
914.566	3424
914.68	3256
914.793	3306
914.906	3161
915.019	3142
915.132	3085
915.245	3142
915.358	3203
915.47	3222
915.583	3230
915.696	3291
915.809	3401
915.921	3374
916.034	3268
916.146	3268
916.259	3222
916.371	3412
916.483	3363
916.595	3283
916.708	3367
916.82	3310
916.932	3344
917.044	3336
917.156	3363
917.268	3245
917.38	3291
917.491	3306
917.603	3313
917.715	3454
917.826	3466
917.938	3378
918.049	3253
918.161	3405
918.272	3576
918.384	3561
918.495	3481
918.606	3336
918.717	3249
918.828	3355
918.939	3382
919.05	3275
919.161	3363
919.272	3169
919.383	3283
919.494	3492
919.604	3686
919.715	3485
919.826	3416
919.936	3500
920.047	3603
920.157	3584
920.267	3774
920.378	3599
920.488	3549
920.598	3831
920.708	3934
920.818	3846
920.928	3785
921.038	4029
921.148	3994
921.258	3679
921.368	3663
921.477	3557
921.587	3557
921.697	3458
921.806	3629
921.916	3526
922.025	3355
922.134	3348
922.244	3291
922.353	3435
922.462	3279
922.571	3260
922.68	3108
922.789	3074
922.898	3154
923.007	3150
923.116	3230
923.224	3150
923.333	3188
923.442	3123
923.55	3123
923.659	3116
923.767	3188
923.876	3116
923.984	3272
924.092	3100
924.201	3233
924.309	3226
924.417	3256
924.525	3142
924.633	3249
924.741	4017
924.849	3039
924.956	3317
925.064	3070
925.172	3039
925.279	3108
925.387	3192
925.494	3195
925.602	3378
925.709	3351
925.816	3192
925.924	3325
926.031	3405
926.138	3359
926.245	3374
926.352	3230
926.459	3386
926.566	3435
926.673	3325
926.779	3272
926.886	3241
926.993	3161
927.099	3154
927.206	3097
927.312	3123
927.419	3180
927.525	3180
927.631	3275
927.737	3123
927.843	3119
927.95	3036
928.056	3123
928.162	3173
928.267	3245
928.373	3865
928.479	3321
928.585	3051
928.69	3237
928.796	3233
928.901	3184
929.007	3070
929.112	3211
929.218	3150
929.323	3154
929.428	3135
929.533	3325
929.638	3119
929.743	3180
929.848	3245
929.953	3237
930.058	3123
930.163	2979
930.267	3085
930.372	3211
930.477	2967
930.581	3287
930.685	3192
930.79	3036
930.894	3131
930.998	3104
931.103	3264
931.207	2941
931.311	2944
931.415	2948
931.519	2785
931.623	2823
