Data from test_V78500241_953.txt Node
Date: Fri Mar 25 16:21:48 CST 2022
User: usil
Spectrometer: V785-0024
Trigger mode: 0
Integration Time (sec): 4.000000E-1
Scans to average: 1
Nonlinearity correction enabled: false
Boxcar width: 0
Storing dark spectrum: false
XAxis mode: Wavelengths
Number of Pixels in Spectrum: 1024
>>>>>Begin Spectral Data<<<<<
801.071	2918
801.214	2963
801.356	2895
801.499	2891
801.641	2861
801.783	2906
801.926	3085
802.068	2986
802.211	2994
802.353	3036
802.496	2952
802.638	3039
802.78	3020
802.923	3077
803.065	2967
803.208	2922
803.35	2944
803.492	2944
803.635	2914
803.777	2758
803.919	2914
804.061	3203
804.204	2963
804.346	2963
804.488	2861
804.63	2994
804.773	2899
804.915	2902
805.057	3097
805.199	2929
805.341	2956
805.483	3097
805.626	2998
805.768	2963
805.91	3081
806.052	3119
806.194	3017
806.336	3226
806.478	3013
806.62	2941
806.762	2979
806.904	3081
807.046	3173
807.188	2998
807.33	2922
807.472	2994
807.614	2929
807.756	3001
807.898	2902
808.04	2868
808.182	2998
808.324	2967
808.465	2876
808.607	2849
808.749	2800
808.891	2823
809.033	2948
809.174	2990
809.316	2880
809.458	2933
809.6	2766
809.741	2773
809.883	2792
810.025	2857
810.166	2868
810.308	2826
810.45	2842
810.591	2781
810.733	2785
810.875	2838
811.016	2773
811.158	2769
811.299	2796
811.441	2906
811.582	2895
811.724	2796
811.865	2853
812.007	2895
812.148	2883
812.29	2872
812.431	2895
812.573	2941
812.714	2937
812.855	3074
812.997	3043
813.138	3127
813.279	3001
813.421	2967
813.562	2975
813.703	2849
813.845	2876
813.986	2788
814.127	2743
814.268	2823
814.41	2834
814.551	2807
814.692	2895
814.833	2823
814.974	2910
815.115	2944
815.256	2800
815.397	2792
815.539	2853
815.68	2769
815.821	2804
815.962	2963
816.103	2902
816.244	2872
816.385	2845
816.526	2998
816.666	2929
816.807	2724
816.948	2906
817.089	2914
817.23	2910
817.371	2811
817.512	2830
817.653	2834
817.793	2823
817.934	2857
818.075	2971
818.216	3024
818.356	3039
818.497	2857
818.638	2777
818.778	2830
818.919	2785
819.06	2762
819.2	2853
819.341	2796
819.481	2804
819.622	2929
819.762	3085
819.903	3051
820.043	2899
820.184	2922
820.324	2883
820.465	2990
820.605	3020
820.746	2998
820.886	2918
821.026	3058
821.167	3173
821.307	3245
821.447	3298
821.588	3256
821.728	3157
821.868	3203
822.008	3055
822.149	3188
822.289	3256
822.429	3100
822.569	3097
822.709	3169
822.849	3013
822.99	3055
823.13	3192
823.27	3173
823.41	3093
823.55	3146
823.69	3176
823.83	3165
823.97	3104
824.11	3009
824.25	2975
824.389	3020
824.529	3108
824.669	3058
824.809	3165
824.949	3249
825.089	3207
825.228	3138
825.368	2998
825.508	2925
825.648	2914
825.787	2990
825.927	3013
826.067	2944
826.206	2937
826.346	2975
826.485	3116
826.625	3142
826.765	3233
826.904	3218
827.044	3017
827.183	2910
827.323	2861
827.462	2994
827.601	2910
827.741	2925
827.88	2952
828.02	2842
828.159	2986
828.298	3020
828.437	3127
828.577	3017
828.716	3237
828.855	3112
828.994	2925
829.134	2891
829.273	2933
829.412	2861
829.551	2845
829.69	2849
829.829	2998
829.968	3100
830.107	3024
830.246	3024
830.385	2952
830.524	2872
830.663	2823
830.802	2754
830.941	2682
831.08	2655
831.219	2807
831.357	2804
831.496	2944
831.635	2762
831.774	2682
831.913	2705
832.051	2568
832.19	2602
832.329	2670
832.467	2590
832.606	2499
832.744	2587
832.883	2590
833.022	2617
833.16	2674
833.299	2682
833.437	2712
833.576	2762
833.714	2758
833.852	2724
833.991	2804
834.129	2891
834.267	2872
834.406	2819
834.544	2895
834.682	2899
834.821	2887
834.959	3089
835.097	2910
835.235	3097
835.373	2998
835.511	3028
835.65	3013
835.788	2994
835.926	2910
836.064	2861
836.202	2880
836.34	3157
836.478	3214
836.615	3100
836.753	3154
836.891	3233
837.029	3241
837.167	3135
837.305	3077
837.443	3047
837.58	3036
837.718	3188
837.856	3070
837.993	3058
838.131	3146
838.269	3169
838.406	3131
838.544	3131
838.681	2967
838.819	2956
838.956	2868
839.094	2857
839.231	2914
839.369	3066
839.506	3431
839.643	3253
839.781	3097
839.918	2971
840.055	3081
840.193	3089
840.33	3085
840.467	3135
840.604	3157
840.742	3424
840.879	3062
841.016	3039
841.153	3169
841.29	3374
841.427	3370
841.564	3306
841.701	3317
841.838	3245
841.975	3237
842.112	3260
842.249	3150
842.385	3116
842.522	3283
842.659	3169
842.796	3089
842.933	3131
843.069	3093
843.206	3062
843.343	3195
843.479	3142
843.616	3154
843.752	2956
843.889	2906
844.025	3089
844.162	2902
844.298	3104
844.435	2960
844.571	2922
844.708	3104
844.844	3241
844.98	3275
845.117	3203
845.253	3081
845.389	3066
845.525	3135
845.661	3146
845.798	3009
845.934	3154
846.07	3055
846.206	3233
846.342	3363
846.478	3233
846.614	3093
846.75	3089
846.886	3070
847.022	3291
847.158	3184
847.294	3214
847.429	3294
847.565	3279
847.701	3492
847.837	3036
847.972	3024
848.108	3211
848.244	3138
848.379	2994
848.515	2963
848.65	3009
848.786	2986
848.921	3051
849.057	3135
849.192	3150
849.328	3085
849.463	3119
849.598	3058
849.734	3058
849.869	3043
850.004	2929
850.14	2982
850.275	2948
850.41	2880
850.545	2925
850.68	2967
850.815	2979
850.95	2998
851.085	3203
851.22	3108
851.355	3058
851.49	3043
851.625	3051
851.76	3009
851.895	2975
852.03	2967
852.165	3043
852.299	3173
852.434	3207
852.569	3150
852.703	3195
852.838	3287
852.973	3367
853.107	3332
853.242	3165
853.376	3127
853.511	3005
853.645	3066
853.78	3256
853.914	3123
854.048	3150
854.183	3104
854.317	3214
854.451	3268
854.585	3165
854.72	3112
854.854	3249
854.988	3077
855.122	3131
855.256	3032
855.39	3154
855.524	3268
855.658	3192
855.792	3184
855.926	3211
856.06	3211
856.194	3294
856.327	3180
856.461	3100
856.595	3142
856.729	3097
856.862	3222
856.996	3207
857.13	3203
857.263	3241
857.397	3310
857.53	3146
857.664	3264
857.797	3249
857.931	3268
858.064	3169
858.197	3245
858.331	3150
858.464	3142
858.597	3024
858.731	3127
858.864	3112
858.997	3154
859.13	3195
859.263	3195
859.396	3199
859.529	3089
859.662	3100
859.795	3081
859.928	3131
860.061	3287
860.194	3264
860.327	3195
860.46	3154
860.592	3287
860.725	3256
860.858	3306
860.99	3108
861.123	3051
861.256	3062
861.388	3169
861.521	3876
861.653	3028
861.786	3020
861.918	3036
862.05	3055
862.183	3085
862.315	3173
862.447	3184
862.58	3116
862.712	2975
862.844	2864
862.976	3081
863.108	3051
863.24	3431
863.372	2914
863.504	2971
863.636	3013
863.768	3043
863.9	2979
864.032	2933
864.164	2982
864.296	3032
864.428	3138
864.559	3119
864.691	3077
864.823	3066
864.954	3032
865.086	3058
865.217	3005
865.349	2971
865.48	2982
865.612	3043
865.743	3207
865.875	3005
866.006	2975
866.137	3009
866.269	2967
866.4	2963
866.531	2967
866.662	2880
866.793	2910
866.924	2937
867.055	2998
867.186	2971
867.317	2922
867.448	2864
867.579	2887
867.71	2830
867.841	2857
867.972	2929
868.103	2933
868.233	2902
868.364	2933
868.495	2906
868.625	3112
868.756	3154
868.886	2975
869.017	2998
869.147	3184
869.278	3176
869.408	3058
869.539	3028
869.669	3085
869.799	3036
869.929	3127
870.06	3142
870.19	3313
870.32	3317
870.45	3313
870.58	3401
870.71	3477
870.84	3435
870.97	3329
871.1	3264
871.23	3485
871.36	3473
871.489	3351
871.619	3420
871.749	3443
871.879	3504
872.008	3466
872.138	3378
872.267	3294
872.397	3180
872.526	3135
872.656	3058
872.785	3112
872.915	3264
873.044	3302
873.173	3218
873.303	3249
873.432	3275
873.561	3249
873.69	3192
873.819	3188
873.948	3199
874.077	3123
874.206	3058
874.335	3093
874.464	3195
874.593	3401
874.722	3291
874.851	3431
874.979	3367
875.108	3336
875.237	3214
875.365	3188
875.494	3207
875.623	3272
875.751	3074
875.88	3135
876.008	3226
876.136	3256
876.265	3393
876.393	3549
876.521	3458
876.65	3428
876.778	3370
876.906	3268
877.034	3188
877.162	3279
877.29	3211
877.418	3268
877.546	3279
877.674	3241
877.802	3302
877.93	3218
878.058	3184
878.185	3173
878.313	3222
878.441	3226
878.568	3116
878.696	3192
878.824	3287
878.951	3313
879.079	3477
879.206	3641
879.333	3458
879.461	3374
879.588	3329
879.715	3523
879.842	3625
879.97	3363
880.097	3222
880.224	3169
880.351	3195
880.478	3233
880.605	3214
880.732	3176
880.859	3523
880.986	3325
881.112	3363
881.239	3253
881.366	3119
881.493	3081
881.619	3066
881.746	3074
881.872	3097
881.999	3074
882.125	3169
882.252	3256
882.378	3332
882.505	3447
882.631	3298
882.757	3192
882.883	3249
883.01	3233
883.136	3161
883.262	3119
883.388	3150
883.514	3310
883.64	3409
883.766	3294
883.892	3192
884.018	3249
884.143	3397
884.269	3485
884.395	3226
884.52	3180
884.646	3199
884.772	3157
884.897	3146
885.023	3241
885.148	3313
885.274	3428
885.399	3374
885.524	3283
885.65	3340
885.775	3329
885.9	3370
886.025	3443
886.15	3363
886.275	3351
886.4	3222
886.525	3344
886.65	3279
886.775	3294
886.9	3492
887.025	3625
887.149	3416
887.274	3287
887.399	3195
887.523	3241
887.648	3188
887.773	3211
887.897	3393
888.021	3412
888.146	3310
888.27	3435
888.395	3557
888.519	3428
888.643	3458
888.767	3458
888.891	3332
889.015	3256
889.139	3302
889.263	3249
889.387	3443
889.511	3511
889.635	3496
889.759	3298
889.883	3313
890.006	3389
890.13	3519
890.254	3264
890.377	3348
890.501	3211
890.624	3154
890.748	3310
890.871	3180
890.995	3119
891.118	3074
891.241	3264
891.364	3245
891.488	3340
891.611	3169
891.734	3275
891.857	3302
891.98	3268
892.103	3344
892.226	3291
892.349	3253
892.471	3127
892.594	3203
892.717	3264
892.839	3279
892.962	3237
893.085	3367
893.207	3272
893.33	3161
893.452	3230
893.575	3405
893.697	3287
893.819	3477
893.941	3473
894.064	3450
894.186	3272
894.308	3287
894.43	3409
894.552	3576
894.674	3450
894.796	3287
894.918	3298
895.04	3348
895.161	3439
895.283	3412
895.405	3332
895.526	3386
895.648	3416
895.769	3393
895.891	3477
896.012	3454
896.134	3462
896.255	3416
896.376	3401
896.498	3412
896.619	3447
896.74	3374
896.861	3409
896.982	3701
897.103	3857
897.224	3595
897.345	3488
897.466	3424
897.587	3500
897.708	3584
897.828	3530
897.949	3462
898.07	3340
898.19	3412
898.311	3618
898.431	3439
898.552	3545
898.672	3584
898.792	3595
898.913	3519
899.033	3454
899.153	3298
899.273	3214
899.393	3321
899.513	3294
899.633	3332
899.753	3367
899.873	3325
899.993	3393
900.113	3351
900.232	3424
900.352	3348
900.472	3283
900.591	3233
900.711	3306
900.83	3230
900.95	3447
901.069	3515
901.189	3409
901.308	3157
901.427	3173
901.546	3173
901.665	3287
901.784	3367
901.904	3230
902.023	3154
902.141	3013
902.26	2990
902.379	3097
902.498	3074
902.617	3070
902.735	3230
902.854	3237
902.973	3195
903.091	3051
903.21	3070
903.328	3188
903.446	3142
903.565	3131
903.683	3146
903.801	3131
903.919	3256
904.038	3325
904.156	3180
904.274	3329
904.392	3241
904.51	3302
904.627	3306
904.745	3424
904.863	3515
904.981	3260
905.098	3180
905.216	3256
905.334	3325
905.451	3310
905.569	3321
905.686	3389
905.803	3439
905.921	3348
906.038	3458
906.155	3355
906.272	3283
906.389	3336
906.506	3233
906.623	3241
906.74	3302
906.857	3253
906.974	3207
907.091	3443
907.208	3561
907.324	3420
907.441	3393
907.557	3222
907.674	3237
907.79	3283
907.907	3287
908.023	3355
908.139	3431
908.256	3393
908.372	3428
908.488	3340
908.604	3249
908.72	3241
908.836	3294
908.952	3317
909.068	3393
909.184	3496
909.3	3382
909.415	3488
909.531	3477
909.647	3291
909.762	3283
909.878	3272
909.993	3416
910.108	3294
910.224	3317
910.339	3420
910.454	3351
910.57	3291
910.685	3249
910.8	3591
910.915	3507
911.03	3450
911.145	3321
911.259	3313
911.374	3325
911.489	3264
911.604	3264
911.718	3150
911.833	3146
911.947	3058
912.062	2986
912.176	3173
912.291	3188
912.405	3233
912.519	3412
912.633	3485
912.748	3317
912.862	3344
912.976	3161
913.09	3089
913.204	3154
913.318	3226
913.431	3317
913.545	3355
913.659	3420
913.772	3344
913.886	3211
914	3214
914.113	3355
914.226	3435
914.34	3329
914.453	3260
914.566	3435
914.68	3291
914.793	3329
914.906	3176
915.019	3108
915.132	3058
915.245	3157
915.358	3218
915.47	3233
915.583	3268
915.696	3287
915.809	3420
915.921	3454
916.034	3272
916.146	3249
916.259	3203
916.371	3378
916.483	3348
916.595	3294
916.708	3321
916.82	3340
916.932	3317
917.044	3370
917.156	3351
917.268	3249
917.38	3306
917.491	3306
917.603	3397
917.715	3477
917.826	3458
917.938	3378
918.049	3294
918.161	3458
918.272	3549
918.384	3549
918.495	3481
918.606	3348
918.717	3283
918.828	3363
918.939	3409
919.05	3279
919.161	3386
919.272	3173
919.383	3275
919.494	3568
919.604	3675
919.715	3504
919.826	3393
919.936	3447
920.047	3603
920.157	3538
920.267	3755
920.378	3644
920.488	3572
920.598	3808
920.708	3949
920.818	3778
920.928	3838
921.038	3964
921.148	4025
921.258	3713
921.368	3629
921.477	3580
921.587	3542
921.697	3454
921.806	3622
921.916	3504
922.025	3374
922.134	3355
922.244	3325
922.353	3416
922.462	3268
922.571	3241
922.68	3142
922.789	3066
922.898	3127
923.007	3081
923.116	3230
923.224	3169
923.333	3211
923.442	3108
923.55	3104
923.659	3127
923.767	3222
923.876	3131
923.984	3214
924.092	3112
924.201	3230
924.309	3211
924.417	3245
924.525	3195
924.633	3222
924.741	4215
924.849	3024
924.956	3287
925.064	3119
925.172	3062
925.279	3131
925.387	3199
925.494	3180
925.602	3344
925.709	3336
925.816	3195
925.924	3279
926.031	3409
926.138	3340
926.245	3348
926.352	3218
926.459	3405
926.566	3485
926.673	3370
926.779	3241
926.886	3214
926.993	3157
927.099	3161
927.206	3112
927.312	3127
927.419	3226
927.525	3211
927.631	3233
927.737	3146
927.843	3154
927.95	3005
928.056	3123
928.162	3135
928.267	3241
928.373	3865
928.479	3332
928.585	3097
928.69	3195
928.796	3256
928.901	3127
929.007	3017
929.112	3195
929.218	3169
929.323	3165
929.428	3116
929.533	3291
929.638	3104
929.743	3127
929.848	3256
929.953	3222
930.058	3131
930.163	3017
930.267	3081
930.372	3161
930.477	3055
930.581	3294
930.685	3176
930.79	3055
930.894	3157
930.998	3100
931.103	3256
931.207	2994
931.311	2944
931.415	2933
931.519	2762
931.623	2819
