Data from test_V78500241_1495.txt Node
Date: Fri Mar 25 16:25:33 CST 2022
User: usil
Spectrometer: V785-0024
Trigger mode: 0
Integration Time (sec): 4.000000E-1
Scans to average: 1
Nonlinearity correction enabled: false
Boxcar width: 0
Storing dark spectrum: false
XAxis mode: Wavelengths
Number of Pixels in Spectrum: 1024
>>>>>Begin Spectral Data<<<<<
801.071	2982
801.214	3001
801.356	2918
801.499	2982
801.641	2925
801.783	2975
801.926	3127
802.068	3047
802.211	3070
802.353	3066
802.496	2986
802.638	3058
802.78	3085
802.923	3097
803.065	3051
803.208	2918
803.35	2948
803.492	2990
803.635	2971
803.777	2830
803.919	2891
804.061	3256
804.204	2990
804.346	2960
804.488	2887
804.63	3009
804.773	2899
804.915	2960
805.057	3157
805.199	2944
805.341	2990
805.483	3062
805.626	3100
805.768	2994
805.91	3097
806.052	3154
806.194	3070
806.336	3264
806.478	3024
806.62	3009
806.762	3020
806.904	3074
807.046	3211
807.188	2986
807.33	2925
807.472	3028
807.614	2941
807.756	3024
807.898	2963
808.04	2929
808.182	3009
808.324	2990
808.465	2899
808.607	2922
808.749	2819
808.891	2883
809.033	3013
809.174	3017
809.316	2902
809.458	2891
809.6	2796
809.741	2811
809.883	2804
810.025	2887
810.166	2883
810.308	2876
810.45	2891
810.591	2815
810.733	2788
810.875	2922
811.016	2834
811.158	2773
811.299	2834
811.441	2956
811.582	2948
811.724	2838
811.865	2864
812.007	2910
812.148	2876
812.29	2891
812.431	2880
812.573	2944
812.714	2994
812.855	3017
812.997	3062
813.138	3142
813.279	3062
813.421	3013
813.562	3001
813.703	2872
813.845	2933
813.986	2826
814.127	2758
814.268	2842
814.41	2868
814.551	2838
814.692	2906
814.833	2845
814.974	2925
815.115	2956
815.256	2883
815.397	2838
815.539	2864
815.68	2762
815.821	2853
815.962	2960
816.103	2944
816.244	2948
816.385	2883
816.526	3009
816.666	2944
816.807	2777
816.948	2922
817.089	2925
817.23	2887
817.371	2834
817.512	2823
817.653	2887
817.793	2807
817.934	2864
818.075	3017
818.216	3028
818.356	3009
818.497	2872
818.638	2849
818.778	2864
818.919	2819
819.06	2811
819.2	2883
819.341	2815
819.481	2781
819.622	2925
819.762	3131
819.903	3077
820.043	2979
820.184	2929
820.324	2929
820.465	3077
820.605	3009
820.746	3066
820.886	2933
821.026	3116
821.167	3207
821.307	3245
821.447	3302
821.588	3211
821.728	3195
821.868	3245
822.008	3097
822.149	3199
822.289	3249
822.429	3127
822.569	3108
822.709	3180
822.849	3020
822.99	3104
823.13	3180
823.27	3207
823.41	3135
823.55	3157
823.69	3169
823.83	3207
823.97	3123
824.11	3024
824.25	3036
824.389	3131
824.529	3112
824.669	3085
824.809	3180
824.949	3260
825.089	3211
825.228	3146
825.368	3028
825.508	2963
825.648	2979
825.787	3055
825.927	3032
826.067	2952
826.206	2994
826.346	3085
826.485	3150
826.625	3138
826.765	3321
826.904	3211
827.044	3020
827.183	2944
827.323	2891
827.462	2982
827.601	2979
827.741	2963
827.88	2956
828.02	2864
828.159	3024
828.298	3081
828.437	3089
828.577	3043
828.716	3233
828.855	3074
828.994	2941
829.134	2910
829.273	2994
829.412	2880
829.551	2838
829.69	2929
829.829	2990
829.968	3146
830.107	3009
830.246	3047
830.385	2952
830.524	2891
830.663	2853
830.802	2739
830.941	2686
831.08	2678
831.219	2781
831.357	2777
831.496	3020
831.635	2762
831.774	2655
831.913	2651
832.051	2537
832.19	2590
832.329	2674
832.467	2556
832.606	2533
832.744	2610
832.883	2610
833.022	2579
833.16	2655
833.299	2693
833.437	2693
833.576	2720
833.714	2739
833.852	2754
833.991	2781
834.129	2845
834.267	2826
834.406	2796
834.544	2887
834.682	2902
834.821	2895
834.959	3066
835.097	2918
835.235	3062
835.373	3036
835.511	3039
835.65	2971
835.788	2963
835.926	2891
836.064	2857
836.202	2906
836.34	3127
836.478	3176
836.615	3074
836.753	3146
836.891	3207
837.029	3150
837.167	3157
837.305	3100
837.443	3074
837.58	2986
837.718	3131
837.856	3077
837.993	3055
838.131	3116
838.269	3119
838.406	3150
838.544	3123
838.681	2960
838.819	2922
838.956	2845
839.094	2838
839.231	2933
839.369	3032
839.506	3374
839.643	3218
839.781	3005
839.918	2979
840.055	3039
840.193	3097
840.33	3081
840.467	3127
840.604	3150
840.742	3447
840.879	3043
841.016	3047
841.153	3154
841.29	3348
841.427	3336
841.564	3279
841.701	3306
841.838	3237
841.975	3230
842.112	3214
842.249	3085
842.385	3005
842.522	3268
842.659	3127
842.796	3058
842.933	3123
843.069	3051
843.206	3074
843.343	3199
843.479	3100
843.616	3173
843.752	2937
843.889	2925
844.025	3100
844.162	2891
844.298	3108
844.435	2960
844.571	2960
844.708	3093
844.844	3169
844.98	3264
845.117	3214
845.253	3089
845.389	3005
845.525	3138
845.661	3100
845.798	3047
845.934	3142
846.07	3066
846.206	3256
846.342	3336
846.478	3256
846.614	3085
846.75	3020
846.886	3024
847.022	3245
847.158	3176
847.294	3203
847.429	3279
847.565	3214
847.701	3473
847.837	3055
847.972	3013
848.108	3157
848.244	3154
848.379	3005
848.515	2948
848.65	2929
848.786	3017
848.921	3036
849.057	3093
849.192	3173
849.328	3051
849.463	3116
849.598	3062
849.734	3051
849.869	2963
850.004	2941
850.14	3017
850.275	2914
850.41	2876
850.545	2902
850.68	2952
850.815	2967
850.95	3009
851.085	3188
851.22	3097
851.355	3039
851.49	3013
851.625	3024
851.76	3020
851.895	2918
852.03	2902
852.165	3005
852.299	3138
852.434	3222
852.569	3169
852.703	3188
852.838	3211
852.973	3317
853.107	3336
853.242	3176
853.376	3089
853.511	2952
853.645	3043
853.78	3233
853.914	3093
854.048	3127
854.183	3142
854.317	3154
854.451	3287
854.585	3089
854.72	3062
854.854	3260
854.988	3039
855.122	3093
855.256	2979
855.39	3157
855.524	3233
855.658	3173
855.792	3176
855.926	3165
856.06	3249
856.194	3256
856.327	3188
856.461	3074
856.595	3085
856.729	3093
856.862	3222
856.996	3176
857.13	3214
857.263	3302
857.397	3302
857.53	3138
857.664	3157
857.797	3241
857.931	3294
858.064	3154
858.197	3230
858.331	3135
858.464	3108
858.597	3020
858.731	3119
858.864	3138
858.997	3116
859.13	3157
859.263	3226
859.396	3192
859.529	3116
859.662	3077
859.795	3081
859.928	3150
860.061	3283
860.194	3275
860.327	3135
860.46	3055
860.592	3233
860.725	3245
860.858	3241
860.99	3119
861.123	3055
861.256	3020
861.388	3154
861.521	3766
861.653	3039
861.786	3009
861.918	3009
862.05	3116
862.183	3089
862.315	3173
862.447	3184
862.58	3112
862.712	2979
862.844	2895
862.976	3028
863.108	3001
863.24	3298
863.372	2872
863.504	2990
863.636	2990
863.768	3047
863.9	2986
864.032	2906
864.164	2933
864.296	3024
864.428	3070
864.559	3119
864.691	3070
864.823	3058
864.954	3081
865.086	3043
865.217	2971
865.349	2944
865.48	3001
865.612	3020
865.743	3176
865.875	2982
866.006	2956
866.137	2994
866.269	2975
866.4	2990
866.531	2918
866.662	2918
866.793	2876
866.924	2910
867.055	2975
867.186	2914
867.317	2887
867.448	2845
867.579	2842
867.71	2868
867.841	2807
867.972	2914
868.103	2899
868.233	2880
868.364	2872
868.495	2872
868.625	3081
868.756	3188
868.886	2971
869.017	3020
869.147	3157
869.278	3195
869.408	3077
869.539	3017
869.669	3138
869.799	3024
869.929	3119
870.06	3097
870.19	3317
870.32	3306
870.45	3291
870.58	3405
870.71	3454
870.84	3454
870.97	3298
871.1	3249
871.23	3504
871.36	3466
871.489	3336
871.619	3386
871.749	3416
871.879	3443
872.008	3454
872.138	3416
872.267	3279
872.397	3154
872.526	3119
872.656	3039
872.785	3074
872.915	3275
873.044	3321
873.173	3264
873.303	3249
873.432	3260
873.561	3272
873.69	3146
873.819	3138
873.948	3188
874.077	3108
874.206	3039
874.335	3104
874.464	3211
874.593	3359
874.722	3226
874.851	3374
874.979	3351
875.108	3294
875.237	3203
875.365	3142
875.494	3150
875.623	3241
875.751	3093
875.88	3097
876.008	3199
876.136	3230
876.265	3351
876.393	3485
876.521	3412
876.65	3416
876.778	3344
876.906	3260
877.034	3199
877.162	3199
877.29	3207
877.418	3245
877.546	3222
877.674	3226
877.802	3230
877.93	3253
878.058	3142
878.185	3108
878.313	3199
878.441	3195
878.568	3085
878.696	3138
878.824	3233
878.951	3245
879.079	3416
879.206	3625
879.333	3386
879.461	3279
879.588	3355
879.715	3492
879.842	3591
879.97	3424
880.097	3146
880.224	3135
880.351	3222
880.478	3214
880.605	3180
880.732	3188
880.859	3492
880.986	3275
881.112	3340
881.239	3146
881.366	3112
881.493	3047
881.619	3032
881.746	3081
881.872	3104
881.999	3089
882.125	3165
882.252	3268
882.378	3287
882.505	3431
882.631	3287
882.757	3127
882.883	3211
883.01	3176
883.136	3146
883.262	3097
883.388	3104
883.514	3325
883.64	3313
883.766	3344
883.892	3173
884.018	3253
884.143	3424
884.269	3557
884.395	3165
884.52	3188
884.646	3184
884.772	3119
884.897	3097
885.023	3188
885.148	3306
885.274	3405
885.399	3382
885.524	3275
885.65	3256
885.775	3367
885.9	3275
886.025	3401
886.15	3336
886.275	3264
886.4	3214
886.525	3313
886.65	3256
886.775	3256
886.9	3488
887.025	3587
887.149	3431
887.274	3279
887.399	3192
887.523	3188
887.648	3192
887.773	3173
887.897	3389
888.021	3389
888.146	3325
888.27	3477
888.395	3557
888.519	3397
888.643	3454
888.767	3462
888.891	3283
889.015	3272
889.139	3306
889.263	3249
889.387	3393
889.511	3492
889.635	3481
889.759	3279
889.883	3291
890.006	3389
890.13	3469
890.254	3302
890.377	3332
890.501	3188
890.624	3199
890.748	3279
890.871	3184
890.995	3116
891.118	3058
891.241	3173
891.364	3230
891.488	3374
891.611	3169
891.734	3207
891.857	3287
891.98	3214
892.103	3302
892.226	3291
892.349	3199
892.471	3119
892.594	3203
892.717	3287
892.839	3275
892.962	3279
893.085	3382
893.207	3325
893.33	3138
893.452	3222
893.575	3355
893.697	3237
893.819	3450
893.941	3530
894.064	3424
894.186	3253
894.308	3272
894.43	3454
894.552	3557
894.674	3439
894.796	3272
894.918	3291
895.04	3298
895.161	3435
895.283	3367
895.405	3317
895.526	3348
895.648	3428
895.769	3420
895.891	3450
896.012	3473
896.134	3450
896.255	3412
896.376	3344
896.498	3378
896.619	3473
896.74	3363
896.861	3401
896.982	3709
897.103	3869
897.224	3587
897.345	3473
897.466	3431
897.587	3507
897.708	3599
897.828	3545
897.949	3443
898.07	3329
898.19	3412
898.311	3542
898.431	3466
898.552	3477
898.672	3610
898.792	3576
898.913	3534
899.033	3431
899.153	3275
899.273	3233
899.393	3233
899.513	3283
899.633	3325
899.753	3336
899.873	3302
899.993	3382
900.113	3294
900.232	3370
900.352	3348
900.472	3268
900.591	3222
900.711	3291
900.83	3253
900.95	3397
901.069	3504
901.189	3355
901.308	3176
901.427	3157
901.546	3173
901.665	3294
901.784	3298
901.904	3214
902.023	3150
902.141	3005
902.26	2990
902.379	3131
902.498	3085
902.617	3077
902.735	3199
902.854	3199
902.973	3161
903.091	3055
903.21	3047
903.328	3112
903.446	3100
903.565	3085
903.683	3184
903.801	3085
903.919	3287
904.038	3302
904.156	3214
904.274	3306
904.392	3272
904.51	3272
904.627	3310
904.745	3405
904.863	3477
904.981	3260
905.098	3157
905.216	3180
905.334	3272
905.451	3317
905.569	3306
905.686	3416
905.803	3481
905.921	3321
906.038	3435
906.155	3329
906.272	3283
906.389	3340
906.506	3184
906.623	3222
906.74	3272
906.857	3188
906.974	3253
907.091	3439
907.208	3584
907.324	3458
907.441	3378
907.557	3214
907.674	3241
907.79	3199
907.907	3287
908.023	3439
908.139	3393
908.256	3275
908.372	3370
908.488	3332
908.604	3249
908.72	3192
908.836	3264
908.952	3260
909.068	3336
909.184	3477
909.3	3382
909.415	3500
909.531	3447
909.647	3283
909.762	3321
909.878	3264
909.993	3332
910.108	3351
910.224	3329
910.339	3386
910.454	3321
910.57	3283
910.685	3272
910.8	3599
910.915	3557
911.03	3420
911.145	3233
911.259	3302
911.374	3283
911.489	3233
911.604	3249
911.718	3131
911.833	3176
911.947	2986
912.062	3017
912.176	3188
912.291	3203
912.405	3226
912.519	3428
912.633	3458
912.748	3310
912.862	3275
912.976	3192
913.09	3047
913.204	3112
913.318	3169
913.431	3310
913.545	3336
913.659	3412
913.772	3355
913.886	3218
914	3157
914.113	3363
914.226	3401
914.34	3367
914.453	3192
914.566	3359
914.68	3256
914.793	3298
914.906	3169
915.019	3123
915.132	3100
915.245	3142
915.358	3226
915.47	3214
915.583	3287
915.696	3253
915.809	3393
915.921	3409
916.034	3275
916.146	3230
916.259	3241
916.371	3351
916.483	3348
916.595	3317
916.708	3325
916.82	3332
916.932	3348
917.044	3332
917.156	3298
917.268	3241
917.38	3272
917.491	3298
917.603	3344
917.715	3443
917.826	3454
917.938	3370
918.049	3260
918.161	3435
918.272	3568
918.384	3561
918.495	3511
918.606	3389
918.717	3275
918.828	3389
918.939	3412
919.05	3287
919.161	3363
919.272	3192
919.383	3306
919.494	3500
919.604	3633
919.715	3488
919.826	3382
919.936	3469
920.047	3557
920.157	3523
920.267	3755
920.378	3603
920.488	3557
920.598	3793
920.708	3964
920.818	3819
920.928	3835
921.038	4025
921.148	3994
921.258	3694
921.368	3629
921.477	3557
921.587	3507
921.697	3431
921.806	3618
921.916	3526
922.025	3355
922.134	3363
922.244	3321
922.353	3454
922.462	3260
922.571	3214
922.68	3146
922.789	3089
922.898	3131
923.007	3089
923.116	3180
923.224	3157
923.333	3157
923.442	3142
923.55	3097
923.659	3116
923.767	3199
923.876	3112
923.984	3260
924.092	3104
924.201	3211
924.309	3199
924.417	3237
924.525	3199
924.633	3222
924.741	4010
924.849	3047
924.956	3233
925.064	3112
925.172	3032
925.279	3097
925.387	3199
925.494	3188
925.602	3329
925.709	3329
925.816	3195
925.924	3264
926.031	3412
926.138	3313
926.245	3374
926.352	3287
926.459	3409
926.566	3485
926.673	3329
926.779	3214
926.886	3245
926.993	3188
927.099	3146
927.206	3062
927.312	3123
927.419	3237
927.525	3226
927.631	3264
927.737	3119
927.843	3146
927.95	3001
928.056	3097
928.162	3169
928.267	3226
928.373	3770
928.479	3287
928.585	3085
928.69	3207
928.796	3241
928.901	3131
929.007	3036
929.112	3222
929.218	3165
929.323	3131
929.428	3131
929.533	3291
929.638	3116
929.743	3165
929.848	3230
929.953	3173
930.058	3119
930.163	2986
930.267	3051
930.372	3195
930.477	2986
930.581	3287
930.685	3192
930.79	3013
930.894	3100
930.998	3100
931.103	3245
931.207	2963
931.311	2952
931.415	2937
931.519	2785
931.623	2811
