Data from test_V78500241_1254.txt Node
Date: Fri Mar 25 16:23:53 CST 2022
User: usil
Spectrometer: V785-0024
Trigger mode: 0
Integration Time (sec): 4.000000E-1
Scans to average: 1
Nonlinearity correction enabled: false
Boxcar width: 0
Storing dark spectrum: false
XAxis mode: Wavelengths
Number of Pixels in Spectrum: 1024
>>>>>Begin Spectral Data<<<<<
801.071	2933
801.214	3001
801.356	2887
801.499	2895
801.641	2910
801.783	2925
801.926	3055
802.068	3009
802.211	3017
802.353	3013
802.496	2975
802.638	3009
802.78	3039
802.923	3074
803.065	2963
803.208	2868
803.35	2925
803.492	2937
803.635	2899
803.777	2777
803.919	2895
804.061	3195
804.204	2918
804.346	2899
804.488	2845
804.63	2979
804.773	2853
804.915	2872
805.057	3055
805.199	2914
805.341	3001
805.483	3062
805.626	2998
805.768	2952
805.91	3104
806.052	3097
806.194	3043
806.336	3214
806.478	3028
806.62	2933
806.762	2960
806.904	3051
807.046	3146
807.188	2967
807.33	2960
807.472	2971
807.614	2948
807.756	2986
807.898	2925
808.04	2914
808.182	3024
808.324	2933
808.465	2857
808.607	2883
808.749	2762
808.891	2823
809.033	2979
809.174	2975
809.316	2883
809.458	2895
809.6	2762
809.741	2716
809.883	2769
810.025	2880
810.166	2868
810.308	2826
810.45	2815
810.591	2746
810.733	2781
810.875	2815
811.016	2735
811.158	2754
811.299	2769
811.441	2925
811.582	2899
811.724	2845
811.865	2826
812.007	2902
812.148	2872
812.29	2842
812.431	2887
812.573	2941
812.714	2948
812.855	3058
812.997	3024
813.138	3089
813.279	3047
813.421	2952
813.562	2960
813.703	2838
813.845	2872
813.986	2769
814.127	2708
814.268	2815
814.41	2853
814.551	2823
814.692	2868
814.833	2811
814.974	2899
815.115	2937
815.256	2819
815.397	2838
815.539	2826
815.68	2750
815.821	2781
815.962	2933
816.103	2887
816.244	2830
816.385	2845
816.526	2925
816.666	2887
816.807	2724
816.948	2876
817.089	2864
817.23	2864
817.371	2781
817.512	2746
817.653	2819
817.793	2849
817.934	2845
818.075	2982
818.216	2990
818.356	2982
818.497	2857
818.638	2792
818.778	2785
818.919	2785
819.06	2766
819.2	2876
819.341	2773
819.481	2773
819.622	2971
819.762	3097
819.903	3047
820.043	2937
820.184	2906
820.324	2902
820.465	3017
820.605	3020
820.746	2971
820.886	2922
821.026	3077
821.167	3203
821.307	3272
821.447	3313
821.588	3256
821.728	3222
821.868	3233
822.008	3093
822.149	3218
822.289	3237
822.429	3138
822.569	3112
822.709	3180
822.849	3089
822.99	3112
823.13	3169
823.27	3237
823.41	3150
823.55	3188
823.69	3180
823.83	3230
823.97	3161
824.11	3013
824.25	3036
824.389	3074
824.529	3150
824.669	3112
824.809	3207
824.949	3291
825.089	3256
825.228	3268
825.368	3036
825.508	2971
825.648	3013
825.787	3047
825.927	3062
826.067	3024
826.206	2986
826.346	3081
826.485	3138
826.625	3180
826.765	3291
826.904	3249
827.044	3043
827.183	2982
827.323	2910
827.462	3009
827.601	2944
827.741	2963
827.88	2975
828.02	2887
828.159	2998
828.298	3055
828.437	3138
828.577	3070
828.716	3268
828.855	3112
828.994	2998
829.134	2948
829.273	2971
829.412	2906
829.551	2895
829.69	2922
829.829	3005
829.968	3157
830.107	3062
830.246	3066
830.385	2944
830.524	2902
830.663	2872
830.802	2788
830.941	2674
831.08	2720
831.219	2773
831.357	2788
831.496	2990
831.635	2758
831.774	2682
831.913	2708
832.051	2598
832.19	2632
832.329	2754
832.467	2579
832.606	2526
832.744	2655
832.883	2606
833.022	2625
833.16	2689
833.299	2705
833.437	2724
833.576	2743
833.714	2766
833.852	2746
833.991	2781
834.129	2883
834.267	2880
834.406	2838
834.544	2876
834.682	2902
834.821	2899
834.959	3097
835.097	2925
835.235	3077
835.373	3051
835.511	3066
835.65	2971
835.788	3009
835.926	2845
836.064	2823
836.202	2918
836.34	3127
836.478	3146
836.615	3100
836.753	3169
836.891	3199
837.029	3169
837.167	3157
837.305	3066
837.443	3074
837.58	2952
837.718	3142
837.856	3085
837.993	3055
838.131	3161
838.269	3123
838.406	3097
838.544	3127
838.681	2933
838.819	2948
838.956	2861
839.094	2842
839.231	2925
839.369	3055
839.506	3397
839.643	3245
839.781	3055
839.918	3020
840.055	3051
840.193	3089
840.33	3104
840.467	3112
840.604	3169
840.742	3409
840.879	3077
841.016	3077
841.153	3146
841.29	3386
841.427	3313
841.564	3279
841.701	3336
841.838	3222
841.975	3214
842.112	3230
842.249	3116
842.385	3100
842.522	3264
842.659	3085
842.796	3089
842.933	3097
843.069	3074
843.206	3032
843.343	3237
843.479	3138
843.616	3131
843.752	2906
843.889	2906
844.025	3131
844.162	2868
844.298	3085
844.435	2982
844.571	2941
844.708	3100
844.844	3233
844.98	3279
845.117	3222
845.253	3066
845.389	3055
845.525	3123
845.661	3157
845.798	3020
845.934	3135
846.07	3089
846.206	3233
846.342	3359
846.478	3260
846.614	3100
846.75	3066
846.886	3028
847.022	3211
847.158	3154
847.294	3195
847.429	3260
847.565	3233
847.701	3530
847.837	3036
847.972	2998
848.108	3192
848.244	3180
848.379	3020
848.515	2986
848.65	2948
848.786	2971
848.921	3028
849.057	3131
849.192	3173
849.328	3093
849.463	3123
849.598	3146
849.734	3013
849.869	3009
850.004	2937
850.14	2960
850.275	2944
850.41	2853
850.545	2933
850.68	2960
850.815	2941
850.95	3036
851.085	3272
851.22	3150
851.355	3028
851.49	3005
851.625	2998
851.76	3028
851.895	2956
852.03	2941
852.165	3043
852.299	3112
852.434	3184
852.569	3169
852.703	3192
852.838	3245
852.973	3325
853.107	3336
853.242	3195
853.376	3131
853.511	2979
853.645	3039
853.78	3253
853.914	3116
854.048	3146
854.183	3112
854.317	3157
854.451	3329
854.585	3165
854.72	3093
854.854	3226
854.988	3112
855.122	3055
855.256	2967
855.39	3131
855.524	3249
855.658	3173
855.792	3146
855.926	3233
856.06	3233
856.194	3302
856.327	3146
856.461	3089
856.595	3112
856.729	3142
856.862	3264
856.996	3184
857.13	3203
857.263	3264
857.397	3253
857.53	3108
857.664	3214
857.797	3249
857.931	3283
858.064	3169
858.197	3226
858.331	3150
858.464	3104
858.597	3043
858.731	3119
858.864	3176
858.997	3127
859.13	3195
859.263	3157
859.396	3203
859.529	3100
859.662	3074
859.795	3047
859.928	3157
860.061	3294
860.194	3306
860.327	3169
860.46	3097
860.592	3233
860.725	3275
860.858	3253
860.99	3108
861.123	3058
861.256	3039
861.388	3173
861.521	3705
861.653	3036
861.786	3009
861.918	3020
862.05	3062
862.183	3089
862.315	3188
862.447	3203
862.58	3173
862.712	2971
862.844	2918
862.976	3036
863.108	3047
863.24	3370
863.372	2876
863.504	2967
863.636	2960
863.768	3074
863.9	2994
864.032	2922
864.164	2944
864.296	3039
864.428	3089
864.559	3116
864.691	3066
864.823	3058
864.954	3051
865.086	3055
865.217	3036
865.349	2982
865.48	2975
865.612	3024
865.743	3165
865.875	3020
866.006	2922
866.137	3043
866.269	2963
866.4	2929
866.531	2948
866.662	2887
866.793	2910
866.924	2918
867.055	2941
867.186	2967
867.317	2906
867.448	2864
867.579	2883
867.71	2876
867.841	2868
867.972	2868
868.103	2929
868.233	2895
868.364	2895
868.495	2895
868.625	3066
868.756	3176
868.886	2994
869.017	3028
869.147	3157
869.278	3195
869.408	3055
869.539	3043
869.669	3112
869.799	3058
869.929	3123
870.06	3127
870.19	3359
870.32	3310
870.45	3310
870.58	3412
870.71	3447
870.84	3469
870.97	3325
871.1	3226
871.23	3511
871.36	3496
871.489	3359
871.619	3447
871.749	3409
871.879	3466
872.008	3492
872.138	3374
872.267	3279
872.397	3169
872.526	3127
872.656	3055
872.785	3089
872.915	3249
873.044	3317
873.173	3203
873.303	3275
873.432	3241
873.561	3222
873.69	3150
873.819	3123
873.948	3226
874.077	3100
874.206	3055
874.335	3112
874.464	3253
874.593	3336
874.722	3272
874.851	3374
874.979	3367
875.108	3332
875.237	3207
875.365	3203
875.494	3169
875.623	3249
875.751	3123
875.88	3116
876.008	3195
876.136	3260
876.265	3389
876.393	3572
876.521	3393
876.65	3431
876.778	3310
876.906	3268
877.034	3230
877.162	3253
877.29	3146
877.418	3279
877.546	3226
877.674	3237
877.802	3233
877.93	3230
878.058	3165
878.185	3104
878.313	3241
878.441	3218
878.568	3058
878.696	3154
878.824	3287
878.951	3306
879.079	3454
879.206	3618
879.333	3454
879.461	3313
879.588	3374
879.715	3507
879.842	3618
879.97	3351
880.097	3218
880.224	3142
880.351	3188
880.478	3245
880.605	3203
880.732	3188
880.859	3492
880.986	3313
881.112	3367
881.239	3211
881.366	3104
881.493	3081
881.619	3066
881.746	3085
881.872	3123
881.999	3123
882.125	3180
882.252	3233
882.378	3279
882.505	3416
882.631	3313
882.757	3173
882.883	3249
883.01	3199
883.136	3146
883.262	3104
883.388	3176
883.514	3340
883.64	3374
883.766	3340
883.892	3203
884.018	3233
884.143	3443
884.269	3523
884.395	3245
884.52	3146
884.646	3199
884.772	3123
884.897	3142
885.023	3222
885.148	3344
885.274	3435
885.399	3355
885.524	3268
885.65	3279
885.775	3294
885.9	3291
886.025	3458
886.15	3370
886.275	3298
886.4	3253
886.525	3340
886.65	3294
886.775	3241
886.9	3500
887.025	3660
887.149	3431
887.274	3233
887.399	3154
887.523	3253
887.648	3195
887.773	3214
887.897	3374
888.021	3370
888.146	3275
888.27	3443
888.395	3515
888.519	3401
888.643	3454
888.767	3466
888.891	3310
889.015	3260
889.139	3317
889.263	3279
889.387	3374
889.511	3496
889.635	3458
889.759	3336
889.883	3298
890.006	3393
890.13	3500
890.254	3351
890.377	3367
890.501	3207
890.624	3226
890.748	3294
890.871	3195
890.995	3119
891.118	3085
891.241	3192
891.364	3211
891.488	3272
891.611	3180
891.734	3226
891.857	3275
891.98	3230
892.103	3340
892.226	3272
892.349	3256
892.471	3085
892.594	3253
892.717	3310
892.839	3272
892.962	3283
893.085	3359
893.207	3306
893.33	3154
893.452	3184
893.575	3363
893.697	3241
893.819	3507
893.941	3500
894.064	3462
894.186	3256
894.308	3294
894.43	3458
894.552	3534
894.674	3469
894.796	3264
894.918	3283
895.04	3287
895.161	3393
895.283	3389
895.405	3298
895.526	3363
895.648	3450
895.769	3431
895.891	3447
896.012	3466
896.134	3485
896.255	3374
896.376	3363
896.498	3367
896.619	3412
896.74	3332
896.861	3382
896.982	3759
897.103	3880
897.224	3595
897.345	3530
897.466	3428
897.587	3492
897.708	3663
897.828	3549
897.949	3458
898.07	3344
898.19	3439
898.311	3599
898.431	3439
898.552	3507
898.672	3595
898.792	3580
898.913	3481
899.033	3389
899.153	3306
899.273	3275
899.393	3279
899.513	3317
899.633	3317
899.753	3355
899.873	3329
899.993	3363
900.113	3313
900.232	3412
900.352	3336
900.472	3291
900.591	3180
900.711	3310
900.83	3195
900.95	3416
901.069	3469
901.189	3325
901.308	3192
901.427	3157
901.546	3222
901.665	3272
901.784	3329
901.904	3195
902.023	3127
902.141	3036
902.26	3005
902.379	3165
902.498	3043
902.617	3062
902.735	3192
902.854	3207
902.973	3211
903.091	3066
903.21	3062
903.328	3150
903.446	3116
903.565	3108
903.683	3264
903.801	3108
903.919	3222
904.038	3272
904.156	3142
904.274	3275
904.392	3260
904.51	3268
904.627	3317
904.745	3447
904.863	3447
904.981	3256
905.098	3173
905.216	3260
905.334	3283
905.451	3310
905.569	3287
905.686	3409
905.803	3439
905.921	3268
906.038	3428
906.155	3386
906.272	3272
906.389	3291
906.506	3279
906.623	3241
906.74	3268
906.857	3135
906.974	3272
907.091	3431
907.208	3568
907.324	3473
907.441	3378
907.557	3256
907.674	3195
907.79	3207
907.907	3310
908.023	3351
908.139	3355
908.256	3313
908.372	3374
908.488	3367
908.604	3233
908.72	3245
908.836	3291
908.952	3279
909.068	3370
909.184	3466
909.3	3424
909.415	3439
909.531	3496
909.647	3241
909.762	3291
909.878	3279
909.993	3374
910.108	3355
910.224	3344
910.339	3386
910.454	3317
910.57	3321
910.685	3249
910.8	3614
910.915	3526
911.03	3405
911.145	3245
911.259	3264
911.374	3302
911.489	3237
911.604	3256
911.718	3135
911.833	3097
911.947	3032
912.062	2963
912.176	3127
912.291	3169
912.405	3199
912.519	3435
912.633	3504
912.748	3321
912.862	3241
912.976	3176
913.09	3043
913.204	3157
913.318	3207
913.431	3317
913.545	3306
913.659	3412
913.772	3336
913.886	3253
914	3192
914.113	3370
914.226	3412
914.34	3317
914.453	3203
914.566	3416
914.68	3291
914.793	3294
914.906	3138
915.019	3108
915.132	3085
915.245	3180
915.358	3192
915.47	3214
915.583	3256
915.696	3287
915.809	3412
915.921	3389
916.034	3233
916.146	3241
916.259	3230
916.371	3374
916.483	3332
916.595	3302
916.708	3325
916.82	3317
916.932	3317
917.044	3332
917.156	3344
917.268	3256
917.38	3340
917.491	3294
917.603	3336
917.715	3431
917.826	3454
917.938	3386
918.049	3283
918.161	3401
918.272	3576
918.384	3553
918.495	3496
918.606	3313
918.717	3291
918.828	3393
918.939	3424
919.05	3302
919.161	3367
919.272	3169
919.383	3313
919.494	3515
919.604	3720
919.715	3462
919.826	3424
919.936	3447
920.047	3549
920.157	3557
920.267	3751
920.378	3603
920.488	3610
920.598	3736
920.708	3949
920.818	3819
920.928	3835
921.038	4013
921.148	3987
921.258	3709
921.368	3584
921.477	3557
921.587	3564
921.697	3488
921.806	3595
921.916	3481
922.025	3329
922.134	3382
922.244	3317
922.353	3416
922.462	3283
922.571	3222
922.68	3116
922.789	3043
922.898	3146
923.007	3119
923.116	3233
923.224	3214
923.333	3169
923.442	3104
923.55	3085
923.659	3123
923.767	3218
923.876	3100
923.984	3260
924.092	3112
924.201	3207
924.309	3184
924.417	3272
924.525	3135
924.633	3226
924.741	4032
924.849	3074
924.956	3253
925.064	3097
925.172	3047
925.279	3085
925.387	3199
925.494	3245
925.602	3298
925.709	3313
925.816	3245
925.924	3287
926.031	3393
926.138	3340
926.245	3367
926.352	3222
926.459	3412
926.566	3507
926.673	3302
926.779	3268
926.886	3237
926.993	3135
927.099	3131
927.206	3108
927.312	3119
927.419	3245
927.525	3192
927.631	3264
927.737	3173
927.843	3097
927.95	3036
928.056	3161
928.162	3199
928.267	3230
928.373	3888
928.479	3302
928.585	3051
928.69	3211
928.796	3253
928.901	3161
929.007	2994
929.112	3222
929.218	3180
929.323	3131
929.428	3138
929.533	3363
929.638	3108
929.743	3173
929.848	3237
929.953	3214
930.058	3146
930.163	2990
930.267	3028
930.372	3195
930.477	3039
930.581	3313
930.685	3165
930.79	3047
930.894	3116
930.998	3119
931.103	3272
931.207	2944
931.311	2922
931.415	2922
931.519	2762
931.623	2800
