Data from test_V78500241_893.txt Node
Date: Fri Mar 25 16:21:23 CST 2022
User: usil
Spectrometer: V785-0024
Trigger mode: 0
Integration Time (sec): 4.000000E-1
Scans to average: 1
Nonlinearity correction enabled: false
Boxcar width: 0
Storing dark spectrum: false
XAxis mode: Wavelengths
Number of Pixels in Spectrum: 1024
>>>>>Begin Spectral Data<<<<<
801.071	2902
801.214	2948
801.356	2857
801.499	2895
801.641	2880
801.783	2899
801.926	3051
802.068	2952
802.211	3009
802.353	3032
802.496	2960
802.638	2994
802.78	3036
802.923	3062
803.065	3020
803.208	2872
803.35	2902
803.492	2887
803.635	2952
803.777	2750
803.919	2823
804.061	3207
804.204	2937
804.346	2925
804.488	2887
804.63	2971
804.773	2849
804.915	2914
805.057	3074
805.199	2944
805.341	2994
805.483	3020
805.626	2975
805.768	2975
805.91	3085
806.052	3146
806.194	3051
806.336	3218
806.478	3036
806.62	2937
806.762	2971
806.904	3051
807.046	3154
807.188	3005
807.33	2941
807.472	2971
807.614	2914
807.756	2963
807.898	2948
808.04	2902
808.182	2975
808.324	2925
808.465	2868
808.607	2845
808.749	2785
808.891	2842
809.033	2990
809.174	2960
809.316	2857
809.458	2876
809.6	2766
809.741	2773
809.883	2773
810.025	2861
810.166	2823
810.308	2811
810.45	2819
810.591	2769
810.733	2766
810.875	2823
811.016	2785
811.158	2781
811.299	2785
811.441	2967
811.582	2895
811.724	2849
811.865	2819
812.007	2876
812.148	2857
812.29	2845
812.431	2902
812.573	2975
812.714	2925
812.855	3024
812.997	3070
813.138	3074
813.279	3036
813.421	2937
813.562	2956
813.703	2834
813.845	2891
813.986	2766
814.127	2731
814.268	2834
814.41	2868
814.551	2815
814.692	2872
814.833	2792
814.974	2883
815.115	2944
815.256	2830
815.397	2815
815.539	2872
815.68	2773
815.821	2807
815.962	2948
816.103	2937
816.244	2830
816.385	2864
816.526	3005
816.666	2914
816.807	2762
816.948	2918
817.089	2925
817.23	2845
817.371	2773
817.512	2804
817.653	2830
817.793	2788
817.934	2880
818.075	2933
818.216	2960
818.356	2971
818.497	2883
818.638	2788
818.778	2826
818.919	2746
819.06	2766
819.2	2902
819.341	2811
819.481	2777
819.622	2902
819.762	3085
819.903	3055
820.043	2918
820.184	2906
820.324	2906
820.465	3020
820.605	3036
820.746	3051
820.886	2960
821.026	3116
821.167	3207
821.307	3253
821.447	3310
821.588	3214
821.728	3218
821.868	3184
822.008	3097
822.149	3199
822.289	3192
822.429	3089
822.569	3093
822.709	3157
822.849	3017
822.99	3093
823.13	3173
823.27	3214
823.41	3077
823.55	3108
823.69	3142
823.83	3214
823.97	3097
824.11	2990
824.25	2990
824.389	3058
824.529	3093
824.669	3058
824.809	3161
824.949	3241
825.089	3218
825.228	3154
825.368	2986
825.508	3005
825.648	2971
825.787	3005
825.927	3036
826.067	2956
826.206	2948
826.346	3039
826.485	3062
826.625	3074
826.765	3241
826.904	3245
827.044	2994
827.183	2918
827.323	2849
827.462	2918
827.601	2887
827.741	2941
827.88	2960
828.02	2823
828.159	3001
828.298	3047
828.437	3131
828.577	3039
828.716	3237
828.855	3047
828.994	2906
829.134	2883
829.273	2922
829.412	2857
829.551	2849
829.69	2868
829.829	2963
829.968	3127
830.107	3036
830.246	2990
830.385	2906
830.524	2883
830.663	2830
830.802	2743
830.941	2655
831.08	2640
831.219	2731
831.357	2785
831.496	2933
831.635	2727
831.774	2655
831.913	2667
832.051	2541
832.19	2545
832.329	2674
832.467	2507
832.606	2484
832.744	2579
832.883	2549
833.022	2579
833.16	2629
833.299	2678
833.437	2667
833.576	2667
833.714	2727
833.852	2746
833.991	2766
834.129	2838
834.267	2826
834.406	2777
834.544	2853
834.682	2853
834.821	2872
834.959	3062
835.097	2902
835.235	3043
835.373	2975
835.511	3017
835.65	2937
835.788	2948
835.926	2792
836.064	2777
836.202	2815
836.34	3058
836.478	3138
836.615	3047
836.753	3146
836.891	3245
837.029	3119
837.167	3104
837.305	3093
837.443	3005
837.58	2960
837.718	3138
837.856	3085
837.993	2998
838.131	3093
838.269	3097
838.406	3062
838.544	3055
838.681	2929
838.819	2899
838.956	2815
839.094	2823
839.231	2910
839.369	3009
839.506	3344
839.643	3222
839.781	2990
839.918	2971
840.055	3043
840.193	3024
840.33	3058
840.467	3081
840.604	3104
840.742	3386
840.879	3062
841.016	3032
841.153	3085
841.29	3325
841.427	3306
841.564	3249
841.701	3298
841.838	3211
841.975	3192
842.112	3195
842.249	3077
842.385	3055
842.522	3245
842.659	3089
842.796	3066
842.933	3131
843.069	3017
843.206	3032
843.343	3184
843.479	3116
843.616	3104
843.752	2864
843.889	2849
844.025	3039
844.162	2891
844.298	3047
844.435	2925
844.571	2902
844.708	3066
844.844	3192
844.98	3230
845.117	3161
845.253	3024
845.389	2994
845.525	3104
845.661	3058
845.798	3001
845.934	3108
846.07	3066
846.206	3207
846.342	3302
846.478	3233
846.614	3047
846.75	3043
846.886	3005
847.022	3249
847.158	3108
847.294	3199
847.429	3226
847.565	3192
847.701	3469
847.837	3009
847.972	2979
848.108	3161
848.244	3161
848.379	2990
848.515	2963
848.65	2906
848.786	2948
848.921	2982
849.057	3066
849.192	3146
849.328	3081
849.463	3089
849.598	3085
849.734	3009
849.869	2986
850.004	2891
850.14	2994
850.275	2857
850.41	2830
850.545	2880
850.68	2899
850.815	2963
850.95	2975
851.085	3188
851.22	3093
851.355	3005
851.49	2994
851.625	2960
851.76	2948
851.895	2872
852.03	2857
852.165	3028
852.299	3089
852.434	3180
852.569	3176
852.703	3157
852.838	3218
852.973	3302
853.107	3321
853.242	3154
853.376	3100
853.511	3020
853.645	3024
853.78	3226
853.914	3112
854.048	3135
854.183	3039
854.317	3116
854.451	3283
854.585	3157
854.72	3058
854.854	3241
854.988	3051
855.122	3077
855.256	2979
855.39	3131
855.524	3184
855.658	3173
855.792	3150
855.926	3173
856.06	3192
856.194	3279
856.327	3146
856.461	3116
856.595	3093
856.729	3089
856.862	3207
856.996	3104
857.13	3195
857.263	3218
857.397	3256
857.53	3104
857.664	3161
857.797	3230
857.931	3245
858.064	3150
858.197	3214
858.331	3093
858.464	3097
858.597	2990
858.731	3123
858.864	3123
858.997	3055
859.13	3157
859.263	3165
859.396	3195
859.529	3081
859.662	3051
859.795	3036
859.928	3150
860.061	3245
860.194	3275
860.327	3138
860.46	3093
860.592	3211
860.725	3256
860.858	3233
860.99	3138
861.123	3024
861.256	3051
861.388	3138
861.521	3869
861.653	2982
861.786	2944
861.918	3001
862.05	3058
862.183	3119
862.315	3142
862.447	3165
862.58	3055
862.712	2914
862.844	2868
862.976	3005
863.108	2971
863.24	3306
863.372	2914
863.504	2941
863.636	2925
863.768	3009
863.9	2960
864.032	2922
864.164	2914
864.296	2982
864.428	3097
864.559	3070
864.691	3032
864.823	3047
864.954	2971
865.086	3028
865.217	2952
865.349	2918
865.48	2937
865.612	2994
865.743	3146
865.875	2952
866.006	2960
866.137	2941
866.269	2948
866.4	2925
866.531	2876
866.662	2887
866.793	2876
866.924	2883
867.055	2967
867.186	2914
867.317	2906
867.448	2826
867.579	2823
867.71	2807
867.841	2815
867.972	2891
868.103	2872
868.233	2899
868.364	2853
868.495	2883
868.625	3081
868.756	3138
868.886	2948
869.017	3043
869.147	3116
869.278	3135
869.408	3020
869.539	2994
869.669	3066
869.799	3032
869.929	3131
870.06	3058
870.19	3321
870.32	3211
870.45	3302
870.58	3348
870.71	3424
870.84	3420
870.97	3283
871.1	3214
871.23	3458
871.36	3500
871.489	3393
871.619	3386
871.749	3397
871.879	3405
872.008	3462
872.138	3367
872.267	3310
872.397	3138
872.526	3123
872.656	3017
872.785	3055
872.915	3268
873.044	3298
873.173	3214
873.303	3283
873.432	3211
873.561	3256
873.69	3157
873.819	3127
873.948	3157
874.077	3077
874.206	3070
874.335	3100
874.464	3214
874.593	3340
874.722	3233
874.851	3397
874.979	3374
875.108	3344
875.237	3218
875.365	3184
875.494	3192
875.623	3268
875.751	3104
875.88	3154
876.008	3214
876.136	3256
876.265	3409
876.393	3576
876.521	3473
876.65	3416
876.778	3370
876.906	3298
877.034	3237
877.162	3272
877.29	3268
877.418	3287
877.546	3260
877.674	3249
877.802	3279
877.93	3283
878.058	3203
878.185	3112
878.313	3207
878.441	3203
878.568	3100
878.696	3161
878.824	3272
878.951	3283
879.079	3477
879.206	3667
879.333	3454
879.461	3378
879.588	3393
879.715	3496
879.842	3644
879.97	3405
880.097	3211
880.224	3188
880.351	3211
880.478	3249
880.605	3264
880.732	3184
880.859	3511
880.986	3325
881.112	3374
881.239	3253
881.366	3131
881.493	3085
881.619	3077
881.746	3089
881.872	3116
881.999	3135
882.125	3207
882.252	3256
882.378	3355
882.505	3443
882.631	3355
882.757	3214
882.883	3264
883.01	3294
883.136	3203
883.262	3116
883.388	3146
883.514	3382
883.64	3405
883.766	3298
883.892	3211
884.018	3230
884.143	3488
884.269	3606
884.395	3256
884.52	3195
884.646	3184
884.772	3127
884.897	3157
885.023	3256
885.148	3351
885.274	3416
885.399	3412
885.524	3306
885.65	3294
885.775	3374
885.9	3294
886.025	3469
886.15	3393
886.275	3298
886.4	3214
886.525	3355
886.65	3302
886.775	3306
886.9	3515
887.025	3614
887.149	3428
887.274	3256
887.399	3233
887.523	3237
887.648	3184
887.773	3211
887.897	3409
888.021	3428
888.146	3302
888.27	3439
888.395	3549
888.519	3447
888.643	3454
888.767	3511
888.891	3329
889.015	3275
889.139	3302
889.263	3275
889.387	3424
889.511	3515
889.635	3466
889.759	3332
889.883	3329
890.006	3367
890.13	3530
890.254	3317
890.377	3359
890.501	3230
890.624	3176
890.748	3329
890.871	3226
890.995	3165
891.118	3062
891.241	3241
891.364	3272
891.488	3363
891.611	3218
891.734	3237
891.857	3291
891.98	3260
892.103	3348
892.226	3325
892.349	3264
892.471	3097
892.594	3275
892.717	3291
892.839	3256
892.962	3317
893.085	3378
893.207	3370
893.33	3192
893.452	3264
893.575	3416
893.697	3260
893.819	3500
893.941	3568
894.064	3458
894.186	3321
894.308	3302
894.43	3469
894.552	3568
894.674	3534
894.796	3317
894.918	3317
895.04	3348
895.161	3435
895.283	3386
895.405	3367
895.526	3389
895.648	3481
895.769	3488
895.891	3485
896.012	3466
896.134	3504
896.255	3416
896.376	3416
896.498	3401
896.619	3477
896.74	3386
896.861	3454
896.982	3713
897.103	3876
897.224	3637
897.345	3485
897.466	3447
897.587	3500
897.708	3622
897.828	3564
897.949	3466
898.07	3359
898.19	3447
898.311	3629
898.431	3481
898.552	3561
898.672	3606
898.792	3603
898.913	3572
899.033	3420
899.153	3329
899.273	3298
899.393	3348
899.513	3325
899.633	3370
899.753	3386
899.873	3325
899.993	3393
900.113	3370
900.232	3412
900.352	3348
900.472	3325
900.591	3245
900.711	3351
900.83	3287
900.95	3477
901.069	3542
901.189	3351
901.308	3218
901.427	3150
901.546	3237
901.665	3294
901.784	3397
901.904	3222
902.023	3199
902.141	3066
902.26	2994
902.379	3157
902.498	3119
902.617	3112
902.735	3237
902.854	3214
902.973	3203
903.091	3100
903.21	3062
903.328	3161
903.446	3119
903.565	3116
903.683	3237
903.801	3150
903.919	3256
904.038	3310
904.156	3188
904.274	3283
904.392	3268
904.51	3325
904.627	3340
904.745	3466
904.863	3519
904.981	3272
905.098	3184
905.216	3218
905.334	3325
905.451	3325
905.569	3340
905.686	3515
905.803	3481
905.921	3306
906.038	3450
906.155	3370
906.272	3317
906.389	3393
906.506	3256
906.623	3291
906.74	3294
906.857	3203
906.974	3272
907.091	3439
907.208	3595
907.324	3477
907.441	3374
907.557	3291
907.674	3275
907.79	3249
907.907	3340
908.023	3351
908.139	3393
908.256	3370
908.372	3393
908.488	3374
908.604	3313
908.72	3241
908.836	3306
908.952	3332
909.068	3348
909.184	3488
909.3	3439
909.415	3519
909.531	3500
909.647	3298
909.762	3298
909.878	3313
909.993	3382
910.108	3386
910.224	3382
910.339	3420
910.454	3306
910.57	3268
910.685	3272
910.8	3606
910.915	3542
911.03	3469
911.145	3325
911.259	3287
911.374	3313
911.489	3253
911.604	3253
911.718	3157
911.833	3157
911.947	3047
912.062	3020
912.176	3192
912.291	3218
912.405	3203
912.519	3447
912.633	3507
912.748	3393
912.862	3298
912.976	3230
913.09	3093
913.204	3192
913.318	3214
913.431	3359
913.545	3344
913.659	3443
913.772	3382
913.886	3256
914	3214
914.113	3401
914.226	3428
914.34	3405
914.453	3241
914.566	3428
914.68	3294
914.793	3378
914.906	3184
915.019	3154
915.132	3116
915.245	3176
915.358	3275
915.47	3226
915.583	3310
915.696	3329
915.809	3435
915.921	3469
916.034	3291
916.146	3253
916.259	3249
916.371	3443
916.483	3355
916.595	3310
916.708	3370
916.82	3378
916.932	3336
917.044	3363
917.156	3340
917.268	3275
917.38	3359
917.491	3367
917.603	3363
917.715	3485
917.826	3466
917.938	3412
918.049	3325
918.161	3462
918.272	3603
918.384	3599
918.495	3545
918.606	3359
918.717	3287
918.828	3405
918.939	3393
919.05	3332
919.161	3405
919.272	3192
919.383	3325
919.494	3500
919.604	3663
919.715	3477
919.826	3409
919.936	3507
920.047	3591
920.157	3538
920.267	3793
920.378	3629
920.488	3568
920.598	3743
920.708	3964
920.818	3838
920.928	3838
921.038	4013
921.148	4036
921.258	3720
921.368	3660
921.477	3614
921.587	3576
921.697	3473
921.806	3667
921.916	3530
922.025	3401
922.134	3405
922.244	3294
922.353	3462
922.462	3310
922.571	3245
922.68	3127
922.789	3093
922.898	3176
923.007	3100
923.116	3222
923.224	3195
923.333	3233
923.442	3100
923.55	3089
923.659	3180
923.767	3211
923.876	3150
923.984	3230
924.092	3154
924.201	3222
924.309	3245
924.417	3268
924.525	3222
924.633	3241
924.741	4219
924.849	3081
924.956	3291
925.064	3123
925.172	3089
925.279	3123
925.387	3245
925.494	3203
925.602	3378
925.709	3348
925.816	3173
925.924	3283
926.031	3420
926.138	3329
926.245	3355
926.352	3298
926.459	3409
926.566	3454
926.673	3298
926.779	3253
926.886	3302
926.993	3157
927.099	3138
927.206	3146
927.312	3119
927.419	3230
927.525	3256
927.631	3302
927.737	3157
927.843	3123
927.95	3039
928.056	3142
928.162	3173
928.267	3237
928.373	3876
928.479	3329
928.585	3077
928.69	3222
928.796	3298
928.901	3203
929.007	3070
929.112	3226
929.218	3188
929.323	3150
929.428	3169
929.533	3317
929.638	3112
929.743	3207
929.848	3260
929.953	3214
930.058	3154
930.163	3047
930.267	3089
930.372	3218
930.477	3070
930.581	3302
930.685	3184
930.79	3074
930.894	3138
930.998	3138
931.103	3275
931.207	2979
931.311	2960
931.415	2929
931.519	2811
931.623	2838
