Data from test_V78500241_1451.txt Node
Date: Fri Mar 25 16:25:15 CST 2022
User: usil
Spectrometer: V785-0024
Trigger mode: 0
Integration Time (sec): 4.000000E-1
Scans to average: 1
Nonlinearity correction enabled: false
Boxcar width: 0
Storing dark spectrum: false
XAxis mode: Wavelengths
Number of Pixels in Spectrum: 1024
>>>>>Begin Spectral Data<<<<<
801.071	2952
801.214	2941
801.356	2883
801.499	2906
801.641	2880
801.783	2918
801.926	3051
802.068	2971
802.211	2994
802.353	3051
802.496	2975
802.638	3005
802.78	3036
802.923	3081
803.065	3036
803.208	2902
803.35	2922
803.492	2914
803.635	2910
803.777	2750
803.919	2880
804.061	3180
804.204	2956
804.346	2883
804.488	2823
804.63	2990
804.773	2895
804.915	2883
805.057	3089
805.199	2941
805.341	3001
805.483	3051
805.626	3024
805.768	2956
805.91	3104
806.052	3108
806.194	3024
806.336	3226
806.478	2990
806.62	2963
806.762	3001
806.904	3100
807.046	3150
807.188	3013
807.33	2902
807.472	2960
807.614	2929
807.756	2967
807.898	2922
808.04	2941
808.182	2986
808.324	2960
808.465	2868
808.607	2883
808.749	2796
808.891	2853
809.033	2998
809.174	2986
809.316	2899
809.458	2906
809.6	2804
809.741	2758
809.883	2773
810.025	2864
810.166	2853
810.308	2861
810.45	2864
810.591	2796
810.733	2762
810.875	2792
811.016	2792
811.158	2750
811.299	2838
811.441	2925
811.582	2925
811.724	2826
811.865	2857
812.007	2899
812.148	2876
812.29	2853
812.431	2891
812.573	2902
812.714	2956
812.855	3043
812.997	3062
813.138	3138
813.279	3009
813.421	2948
813.562	2948
813.703	2853
813.845	2922
813.986	2788
814.127	2735
814.268	2830
814.41	2823
814.551	2781
814.692	2880
814.833	2823
814.974	2899
815.115	2941
815.256	2834
815.397	2815
815.539	2819
815.68	2781
815.821	2800
815.962	2948
816.103	2891
816.244	2849
816.385	2861
816.526	2952
816.666	2899
816.807	2762
816.948	2918
817.089	2891
817.23	2807
817.371	2769
817.512	2781
817.653	2815
817.793	2823
817.934	2842
818.075	2979
818.216	2986
818.356	3013
818.497	2876
818.638	2792
818.778	2823
818.919	2785
819.06	2746
819.2	2891
819.341	2811
819.481	2807
819.622	2918
819.762	3066
819.903	3013
820.043	2925
820.184	2868
820.324	2868
820.465	3017
820.605	3032
820.746	3013
820.886	2918
821.026	3074
821.167	3119
821.307	3195
821.447	3260
821.588	3256
821.728	3211
821.868	3173
822.008	3104
822.149	3222
822.289	3237
822.429	3093
822.569	3062
822.709	3184
822.849	3001
822.99	3043
823.13	3173
823.27	3226
823.41	3089
823.55	3142
823.69	3142
823.83	3173
823.97	3055
824.11	2994
824.25	2975
824.389	3047
824.529	3146
824.669	3074
824.809	3150
824.949	3233
825.089	3192
825.228	3165
825.368	2990
825.508	2960
825.648	2963
825.787	2998
825.927	3081
826.067	2941
826.206	2952
826.346	3039
826.485	3077
826.625	3081
826.765	3260
826.904	3203
827.044	3009
827.183	2956
827.323	2861
827.462	2994
827.601	2960
827.741	2960
827.88	2963
828.02	2868
828.159	2982
828.298	3051
828.437	3157
828.577	3097
828.716	3249
828.855	3108
828.994	2933
829.134	2899
829.273	2944
829.412	2883
829.551	2887
829.69	2880
829.829	2990
829.968	3142
830.107	3036
830.246	3055
830.385	2933
830.524	2937
830.663	2880
830.802	2739
830.941	2705
831.08	2701
831.219	2807
831.357	2796
831.496	2979
831.635	2735
831.774	2667
831.913	2720
832.051	2613
832.19	2655
832.329	2727
832.467	2564
832.606	2526
832.744	2629
832.883	2602
833.022	2629
833.16	2693
833.299	2746
833.437	2743
833.576	2731
833.714	2781
833.852	2746
833.991	2781
834.129	2864
834.267	2853
834.406	2826
834.544	2883
834.682	2925
834.821	2922
834.959	3146
835.097	2918
835.235	3081
835.373	3032
835.511	3051
835.65	3001
835.788	3028
835.926	2887
836.064	2883
836.202	2902
836.34	3138
836.478	3203
836.615	3058
836.753	3180
836.891	3214
837.029	3165
837.167	3165
837.305	3085
837.443	3074
837.58	2986
837.718	3176
837.856	3108
837.993	3081
838.131	3176
838.269	3142
838.406	3119
838.544	3104
838.681	2971
838.819	2948
838.956	2861
839.094	2891
839.231	2948
839.369	3051
839.506	3420
839.643	3321
839.781	3089
839.918	3009
840.055	3081
840.193	3085
840.33	3119
840.467	3150
840.604	3195
840.742	3466
840.879	3097
841.016	3104
841.153	3169
841.29	3340
841.427	3336
841.564	3279
841.701	3310
841.838	3260
841.975	3222
842.112	3253
842.249	3135
842.385	3097
842.522	3272
842.659	3157
842.796	3104
842.933	3116
843.069	3051
843.206	3062
843.343	3233
843.479	3112
843.616	3131
843.752	2925
843.889	2918
844.025	3127
844.162	2880
844.298	3070
844.435	2979
844.571	2952
844.708	3100
844.844	3230
844.98	3245
845.117	3230
845.253	3062
845.389	3039
845.525	3135
845.661	3157
845.798	3116
845.934	3203
846.07	3055
846.206	3233
846.342	3302
846.478	3253
846.614	3116
846.75	3108
846.886	3058
847.022	3294
847.158	3195
847.294	3226
847.429	3268
847.565	3214
847.701	3515
847.837	3081
847.972	2986
848.108	3161
848.244	3154
848.379	3047
848.515	2960
848.65	2990
848.786	2960
848.921	3036
849.057	3135
849.192	3138
849.328	3108
849.463	3154
849.598	3066
849.734	3062
849.869	3005
850.004	2956
850.14	2956
850.275	2922
850.41	2849
850.545	2910
850.68	2948
850.815	2975
850.95	3028
851.085	3199
851.22	3119
851.355	3043
851.49	3020
851.625	3028
851.76	3028
851.895	2982
852.03	2944
852.165	3032
852.299	3142
852.434	3184
852.569	3169
852.703	3230
852.838	3264
852.973	3367
853.107	3378
853.242	3184
853.376	3100
853.511	3013
853.645	3058
853.78	3237
853.914	3146
854.048	3131
854.183	3104
854.317	3192
854.451	3325
854.585	3154
854.72	3100
854.854	3256
854.988	3085
855.122	3157
855.256	3001
855.39	3165
855.524	3275
855.658	3199
855.792	3119
855.926	3211
856.06	3233
856.194	3321
856.327	3207
856.461	3116
856.595	3085
856.729	3108
856.862	3226
856.996	3199
857.13	3222
857.263	3264
857.397	3287
857.53	3146
857.664	3222
857.797	3294
857.931	3283
858.064	3211
858.197	3237
858.331	3161
858.464	3146
858.597	3043
858.731	3108
858.864	3150
858.997	3123
859.13	3157
859.263	3165
859.396	3230
859.529	3135
859.662	3112
859.795	3062
859.928	3154
860.061	3287
860.194	3325
860.327	3127
860.46	3131
860.592	3241
860.725	3256
860.858	3302
860.99	3150
861.123	3066
861.256	3074
861.388	3135
861.521	3911
861.653	3089
861.786	3058
861.918	3009
862.05	3089
862.183	3123
862.315	3214
862.447	3222
862.58	3085
862.712	2963
862.844	2922
862.976	3051
863.108	3032
863.24	3332
863.372	2914
863.504	3005
863.636	2975
863.768	3062
863.9	3047
864.032	2937
864.164	2944
864.296	3074
864.428	3119
864.559	3135
864.691	3104
864.823	3100
864.954	3043
865.086	3074
865.217	3013
865.349	2975
865.48	3009
865.612	3009
865.743	3199
865.875	3020
866.006	2922
866.137	2986
866.269	2967
866.4	2963
866.531	2944
866.662	2914
866.793	2922
866.924	2929
867.055	2979
867.186	2960
867.317	2887
867.448	2887
867.579	2895
867.71	2902
867.841	2845
867.972	2918
868.103	2948
868.233	2918
868.364	2895
868.495	2914
868.625	3104
868.756	3195
868.886	2990
869.017	3036
869.147	3203
869.278	3211
869.408	3089
869.539	3043
869.669	3131
869.799	3047
869.929	3154
870.06	3123
870.19	3336
870.32	3325
870.45	3283
870.58	3397
870.71	3462
870.84	3469
870.97	3272
871.1	3272
871.23	3526
871.36	3458
871.489	3382
871.619	3447
871.749	3435
871.879	3435
872.008	3545
872.138	3382
872.267	3260
872.397	3154
872.526	3104
872.656	3047
872.785	3119
872.915	3275
873.044	3367
873.173	3230
873.303	3279
873.432	3260
873.561	3253
873.69	3176
873.819	3131
873.948	3188
874.077	3119
874.206	3077
874.335	3131
874.464	3256
874.593	3355
874.722	3260
874.851	3420
874.979	3389
875.108	3325
875.237	3184
875.365	3165
875.494	3188
875.623	3298
875.751	3112
875.88	3146
876.008	3207
876.136	3245
876.265	3397
876.393	3523
876.521	3439
876.65	3409
876.778	3370
876.906	3287
877.034	3176
877.162	3241
877.29	3195
877.418	3260
877.546	3260
877.674	3287
877.802	3287
877.93	3268
878.058	3150
878.185	3123
878.313	3222
878.441	3226
878.568	3100
878.696	3150
878.824	3298
878.951	3283
879.079	3443
879.206	3606
879.333	3473
879.461	3348
879.588	3397
879.715	3485
879.842	3599
879.97	3355
880.097	3180
880.224	3169
880.351	3226
880.478	3237
880.605	3180
880.732	3222
880.859	3553
880.986	3340
881.112	3348
881.239	3184
881.366	3150
881.493	3062
881.619	3036
881.746	3085
881.872	3119
881.999	3104
882.125	3146
882.252	3272
882.378	3313
882.505	3416
882.631	3325
882.757	3119
882.883	3272
883.01	3241
883.136	3211
883.262	3131
883.388	3154
883.514	3310
883.64	3386
883.766	3336
883.892	3199
884.018	3287
884.143	3424
884.269	3538
884.395	3230
884.52	3203
884.646	3207
884.772	3169
884.897	3093
885.023	3207
885.148	3332
885.274	3409
885.399	3378
885.524	3310
885.65	3283
885.775	3355
885.9	3279
886.025	3439
886.15	3370
886.275	3302
886.4	3291
886.525	3332
886.65	3283
886.775	3310
886.9	3496
887.025	3656
887.149	3443
887.274	3249
887.399	3184
887.523	3195
887.648	3207
887.773	3230
887.897	3409
888.021	3412
888.146	3325
888.27	3443
888.395	3542
888.519	3477
888.643	3443
888.767	3481
888.891	3313
889.015	3264
889.139	3302
889.263	3249
889.387	3405
889.511	3515
889.635	3473
889.759	3260
889.883	3310
890.006	3405
890.13	3477
890.254	3310
890.377	3313
890.501	3241
890.624	3173
890.748	3325
890.871	3203
890.995	3127
891.118	3077
891.241	3180
891.364	3241
891.488	3313
891.611	3222
891.734	3241
891.857	3256
891.98	3268
892.103	3374
892.226	3283
892.349	3188
892.471	3138
892.594	3256
892.717	3291
892.839	3317
892.962	3313
893.085	3351
893.207	3310
893.33	3157
893.452	3184
893.575	3374
893.697	3218
893.819	3519
893.941	3511
894.064	3458
894.186	3279
894.308	3317
894.43	3481
894.552	3557
894.674	3439
894.796	3272
894.918	3313
895.04	3313
895.161	3435
895.283	3424
895.405	3355
895.526	3405
895.648	3443
895.769	3447
895.891	3424
896.012	3504
896.134	3462
896.255	3412
896.376	3416
896.498	3348
896.619	3435
896.74	3351
896.861	3370
896.982	3682
897.103	3831
897.224	3599
897.345	3500
897.466	3428
897.587	3519
897.708	3603
897.828	3530
897.949	3450
898.07	3332
898.19	3420
898.311	3629
898.431	3462
898.552	3538
898.672	3591
898.792	3633
898.913	3549
899.033	3416
899.153	3321
899.273	3241
899.393	3264
899.513	3344
899.633	3306
899.753	3332
899.873	3302
899.993	3409
900.113	3336
900.232	3401
900.352	3363
900.472	3264
900.591	3218
900.711	3336
900.83	3298
900.95	3439
901.069	3473
901.189	3359
901.308	3150
901.427	3131
901.546	3241
901.665	3279
901.784	3317
901.904	3245
902.023	3184
902.141	3001
902.26	3017
902.379	3138
902.498	3112
902.617	3097
902.735	3241
902.854	3268
902.973	3214
903.091	3055
903.21	3062
903.328	3123
903.446	3123
903.565	3131
903.683	3222
903.801	3154
903.919	3226
904.038	3287
904.156	3157
904.274	3306
904.392	3268
904.51	3325
904.627	3340
904.745	3405
904.863	3488
904.981	3294
905.098	3146
905.216	3233
905.334	3321
905.451	3287
905.569	3374
905.686	3428
905.803	3416
905.921	3283
906.038	3439
906.155	3389
906.272	3302
906.389	3313
906.506	3230
906.623	3264
906.74	3317
906.857	3207
906.974	3275
907.091	3431
907.208	3591
907.324	3477
907.441	3359
907.557	3268
907.674	3272
907.79	3214
907.907	3256
908.023	3397
908.139	3393
908.256	3340
908.372	3386
908.488	3325
908.604	3245
908.72	3245
908.836	3306
908.952	3264
909.068	3355
909.184	3450
909.3	3409
909.415	3500
909.531	3481
909.647	3302
909.762	3310
909.878	3268
909.993	3348
910.108	3344
910.224	3378
910.339	3397
910.454	3355
910.57	3294
910.685	3256
910.8	3629
910.915	3515
911.03	3431
911.145	3283
911.259	3298
911.374	3340
911.489	3256
911.604	3207
911.718	3131
911.833	3157
911.947	3020
912.062	2994
912.176	3176
912.291	3211
912.405	3211
912.519	3412
912.633	3477
912.748	3351
912.862	3279
912.976	3165
913.09	3066
913.204	3135
913.318	3214
913.431	3336
913.545	3344
913.659	3405
913.772	3359
913.886	3218
914	3195
914.113	3355
914.226	3428
914.34	3382
914.453	3207
914.566	3389
914.68	3268
914.793	3329
914.906	3154
915.019	3100
915.132	3066
915.245	3192
915.358	3211
915.47	3237
915.583	3264
915.696	3306
915.809	3393
915.921	3462
916.034	3237
916.146	3245
916.259	3237
916.371	3393
916.483	3389
916.595	3272
916.708	3340
916.82	3348
916.932	3359
917.044	3348
917.156	3321
917.268	3272
917.38	3313
917.491	3268
917.603	3355
917.715	3420
917.826	3485
917.938	3370
918.049	3272
918.161	3412
918.272	3584
918.384	3568
918.495	3473
918.606	3336
918.717	3291
918.828	3386
918.939	3389
919.05	3306
919.161	3351
919.272	3188
919.383	3283
919.494	3534
919.604	3667
919.715	3526
919.826	3378
919.936	3431
920.047	3595
920.157	3576
920.267	3755
920.378	3622
920.488	3603
920.598	3755
920.708	3998
920.818	3797
920.928	3865
921.038	4048
921.148	3991
921.258	3732
921.368	3629
921.477	3549
921.587	3523
921.697	3462
921.806	3637
921.916	3545
922.025	3386
922.134	3332
922.244	3294
922.353	3431
922.462	3325
922.571	3237
922.68	3100
922.789	3062
922.898	3154
923.007	3055
923.116	3211
923.224	3146
923.333	3146
923.442	3081
923.55	3085
923.659	3112
923.767	3272
923.876	3104
923.984	3249
924.092	3108
924.201	3199
924.309	3218
924.417	3264
924.525	3180
924.633	3249
924.741	4177
924.849	3047
924.956	3275
925.064	3066
925.172	3062
925.279	3112
925.387	3184
925.494	3192
925.602	3370
925.709	3351
925.816	3199
925.924	3283
926.031	3401
926.138	3332
926.245	3370
926.352	3264
926.459	3367
926.566	3469
926.673	3306
926.779	3291
926.886	3226
926.993	3150
927.099	3150
927.206	3077
927.312	3104
927.419	3264
927.525	3218
927.631	3256
927.737	3157
927.843	3146
927.95	3028
928.056	3097
928.162	3192
928.267	3222
928.373	3751
928.479	3313
928.585	3070
928.69	3207
928.796	3283
928.901	3184
929.007	3032
929.112	3233
929.218	3199
929.323	3150
929.428	3180
929.533	3302
929.638	3127
929.743	3161
929.848	3256
929.953	3233
930.058	3138
930.163	3005
930.267	3070
930.372	3237
930.477	3001
930.581	3336
930.685	3157
930.79	3077
930.894	3070
930.998	3085
931.103	3287
931.207	2967
931.311	2986
931.415	2925
931.519	2800
931.623	2826
