Data from test_V78500241_264.txt Node
Date: Fri Mar 25 16:17:01 CST 2022
User: usil
Spectrometer: V785-0024
Trigger mode: 0
Integration Time (sec): 4.000000E-1
Scans to average: 1
Nonlinearity correction enabled: false
Boxcar width: 0
Storing dark spectrum: false
XAxis mode: Wavelengths
Number of Pixels in Spectrum: 1024
>>>>>Begin Spectral Data<<<<<
801.071	2902
801.214	2975
801.356	2883
801.499	2910
801.641	2842
801.783	2960
801.926	3055
802.068	3001
802.211	3020
802.353	3043
802.496	2998
802.638	3036
802.78	3047
802.923	3055
803.065	3009
803.208	2902
803.35	2948
803.492	2948
803.635	2960
803.777	2788
803.919	2868
804.061	3203
804.204	2948
804.346	2914
804.488	2849
804.63	3020
804.773	2895
804.915	2914
805.057	3081
805.199	2937
805.341	2979
805.483	3036
805.626	3028
805.768	3005
805.91	3062
806.052	3138
806.194	3036
806.336	3233
806.478	3024
806.62	2948
806.762	2979
806.904	3112
807.046	3176
807.188	2986
807.33	2918
807.472	2979
807.614	2891
807.756	3001
807.898	2941
808.04	2883
808.182	2922
808.324	2975
808.465	2891
808.607	2914
808.749	2781
808.891	2834
809.033	2929
809.174	2982
809.316	2918
809.458	2952
809.6	2777
809.741	2758
809.883	2758
810.025	2864
810.166	2864
810.308	2849
810.45	2857
810.591	2762
810.733	2758
810.875	2819
811.016	2785
811.158	2766
811.299	2773
811.441	2910
811.582	2887
811.724	2857
811.865	2811
812.007	2918
812.148	2899
812.29	2872
812.431	2868
812.573	2948
812.714	2963
812.855	3047
812.997	3074
813.138	3108
813.279	2956
813.421	2982
813.562	2960
813.703	2864
813.845	2906
813.986	2769
814.127	2716
814.268	2830
814.41	2838
814.551	2823
814.692	2849
814.833	2811
814.974	2902
815.115	2948
815.256	2815
815.397	2804
815.539	2895
815.68	2769
815.821	2826
815.962	2956
816.103	2925
816.244	2857
816.385	2868
816.526	2948
816.666	2887
816.807	2762
816.948	2910
817.089	2906
817.23	2842
817.371	2762
817.512	2792
817.653	2830
817.793	2849
817.934	2868
818.075	2982
818.216	2990
818.356	3039
818.497	2906
818.638	2773
818.778	2792
818.919	2861
819.06	2785
819.2	2891
819.341	2830
819.481	2845
819.622	2922
819.762	3070
819.903	3017
820.043	2960
820.184	2876
820.324	2918
820.465	3036
820.605	2994
820.746	3036
820.886	2937
821.026	3108
821.167	3180
821.307	3291
821.447	3310
821.588	3268
821.728	3218
821.868	3192
822.008	3108
822.149	3214
822.289	3245
822.429	3108
822.569	3131
822.709	3230
822.849	3074
822.99	3077
823.13	3188
823.27	3230
823.41	3138
823.55	3138
823.69	3188
823.83	3199
823.97	3154
824.11	3032
824.25	3039
824.389	3077
824.529	3161
824.669	3100
824.809	3241
824.949	3298
825.089	3230
825.228	3207
825.368	3077
825.508	2998
825.648	3005
825.787	3028
825.927	3070
826.067	3005
826.206	3017
826.346	3089
826.485	3085
826.625	3180
826.765	3302
826.904	3237
827.044	3020
827.183	3009
827.323	2948
827.462	3062
827.601	2941
827.741	2975
827.88	2990
828.02	2887
828.159	3036
828.298	3100
828.437	3131
828.577	3093
828.716	3302
828.855	3119
828.994	2975
829.134	2914
829.273	2971
829.412	2910
829.551	2937
829.69	2948
829.829	3024
829.968	3176
830.107	3077
830.246	3058
830.385	2960
830.524	2929
830.663	2845
830.802	2762
830.941	2693
831.08	2701
831.219	2834
831.357	2811
831.496	3009
831.635	2754
831.774	2708
831.913	2712
832.051	2629
832.19	2583
832.329	2735
832.467	2579
832.606	2533
832.744	2613
832.883	2610
833.022	2613
833.16	2693
833.299	2739
833.437	2735
833.576	2743
833.714	2754
833.852	2773
833.991	2792
834.129	2887
834.267	2880
834.406	2842
834.544	2922
834.682	2891
834.821	2891
834.959	3104
835.097	2963
835.235	3097
835.373	3036
835.511	3062
835.65	3028
835.788	2998
835.926	2845
836.064	2845
836.202	2891
836.34	3142
836.478	3203
836.615	3047
836.753	3150
836.891	3245
837.029	3169
837.167	3138
837.305	3127
837.443	3097
837.58	2998
837.718	3165
837.856	3100
837.993	3043
838.131	3142
838.269	3135
838.406	3127
838.544	3093
838.681	2963
838.819	2952
838.956	2826
839.094	2880
839.231	2952
839.369	3047
839.506	3374
839.643	3260
839.781	3081
839.918	3028
840.055	3093
840.193	3097
840.33	3089
840.467	3142
840.604	3154
840.742	3428
840.879	3074
841.016	3100
841.153	3150
841.29	3351
841.427	3310
841.564	3279
841.701	3332
841.838	3256
841.975	3184
842.112	3279
842.249	3085
842.385	3074
842.522	3245
842.659	3062
842.796	3077
842.933	3112
843.069	3104
843.206	3127
843.343	3211
843.479	3135
843.616	3142
843.752	2925
843.889	2914
844.025	3108
844.162	2937
844.298	3104
844.435	3013
844.571	2937
844.708	3112
844.844	3233
844.98	3291
845.117	3245
845.253	3077
845.389	3024
845.525	3127
845.661	3123
845.798	3081
845.934	3131
846.07	3104
846.206	3214
846.342	3367
846.478	3260
846.614	3142
846.75	3097
846.886	3089
847.022	3279
847.158	3207
847.294	3214
847.429	3268
847.565	3249
847.701	3523
847.837	3066
847.972	3017
848.108	3211
848.244	3157
848.379	3001
848.515	2971
848.65	2956
848.786	2998
848.921	3032
849.057	3157
849.192	3180
849.328	3104
849.463	3112
849.598	3089
849.734	3058
849.869	3024
850.004	2967
850.14	2963
850.275	2963
850.41	2861
850.545	2925
850.68	2994
850.815	2994
850.95	2994
851.085	3188
851.22	3138
851.355	3058
851.49	3039
851.625	3032
851.76	3070
851.895	2956
852.03	2925
852.165	3036
852.299	3135
852.434	3180
852.569	3184
852.703	3214
852.838	3268
852.973	3370
853.107	3363
853.242	3176
853.376	3104
853.511	2986
853.645	3066
853.78	3253
853.914	3192
854.048	3123
854.183	3116
854.317	3192
854.451	3336
854.585	3142
854.72	3135
854.854	3241
854.988	3055
855.122	3104
855.256	3017
855.39	3131
855.524	3272
855.658	3218
855.792	3195
855.926	3192
856.06	3256
856.194	3298
856.327	3165
856.461	3100
856.595	3127
856.729	3100
856.862	3226
856.996	3150
857.13	3260
857.263	3245
857.397	3348
857.53	3138
857.664	3203
857.797	3245
857.931	3279
858.064	3211
858.197	3272
858.331	3173
858.464	3116
858.597	3028
858.731	3127
858.864	3146
858.997	3150
859.13	3173
859.263	3192
859.396	3253
859.529	3119
859.662	3097
859.795	3081
859.928	3188
860.061	3325
860.194	3340
860.327	3165
860.46	3116
860.592	3268
860.725	3283
860.858	3268
860.99	3135
861.123	3062
861.256	3085
861.388	3173
861.521	3842
861.653	3089
861.786	3032
861.918	2979
862.05	3085
862.183	3127
862.315	3184
862.447	3214
862.58	3108
862.712	2994
862.844	2899
862.976	3074
863.108	3013
863.24	3359
863.372	2891
863.504	3020
863.636	2982
863.768	3062
863.9	2982
864.032	2910
864.164	2967
864.296	3036
864.428	3116
864.559	3135
864.691	3112
864.823	3070
864.954	3062
865.086	3085
865.217	3017
865.349	2971
865.48	3024
865.612	3043
865.743	3192
865.875	2971
866.006	2994
866.137	3051
866.269	2982
866.4	2941
866.531	2933
866.662	2952
866.793	2929
866.924	2925
867.055	2967
867.186	2975
867.317	2922
867.448	2895
867.579	2872
867.71	2902
867.841	2819
867.972	2918
868.103	2918
868.233	2887
868.364	2902
868.495	2899
868.625	3112
868.756	3176
868.886	3001
869.017	3074
869.147	3203
869.278	3192
869.408	3081
869.539	3077
869.669	3127
869.799	3055
869.929	3176
870.06	3127
870.19	3313
870.32	3313
870.45	3313
870.58	3389
870.71	3466
870.84	3492
870.97	3298
871.1	3298
871.23	3504
871.36	3485
871.489	3370
871.619	3416
871.749	3424
871.879	3450
872.008	3496
872.138	3363
872.267	3291
872.397	3154
872.526	3104
872.656	3039
872.785	3157
872.915	3233
873.044	3344
873.173	3241
873.303	3302
873.432	3256
873.561	3256
873.69	3154
873.819	3180
873.948	3214
874.077	3131
874.206	3070
874.335	3119
874.464	3253
874.593	3367
874.722	3249
874.851	3397
874.979	3363
875.108	3336
875.237	3241
875.365	3169
875.494	3161
875.623	3294
875.751	3127
875.88	3093
876.008	3211
876.136	3249
876.265	3386
876.393	3538
876.521	3443
876.65	3424
876.778	3405
876.906	3279
877.034	3199
877.162	3283
877.29	3169
877.418	3291
877.546	3272
877.674	3268
877.802	3237
877.93	3241
878.058	3154
878.185	3127
878.313	3222
878.441	3253
878.568	3112
878.696	3192
878.824	3237
878.951	3294
879.079	3462
879.206	3633
879.333	3462
879.461	3351
879.588	3382
879.715	3500
879.842	3568
879.97	3405
880.097	3195
880.224	3169
880.351	3237
880.478	3237
880.605	3173
880.732	3211
880.859	3492
880.986	3321
881.112	3294
881.239	3207
881.366	3138
881.493	3066
881.619	3051
881.746	3097
881.872	3123
881.999	3104
882.125	3154
882.252	3264
882.378	3340
882.505	3458
882.631	3272
882.757	3184
882.883	3253
883.01	3253
883.136	3192
883.262	3100
883.388	3131
883.514	3348
883.64	3363
883.766	3279
883.892	3176
884.018	3279
884.143	3374
884.269	3576
884.395	3233
884.52	3203
884.646	3207
884.772	3157
884.897	3116
885.023	3256
885.148	3351
885.274	3458
885.399	3405
885.524	3325
885.65	3294
885.775	3306
885.9	3291
886.025	3458
886.15	3355
886.275	3329
886.4	3249
886.525	3313
886.65	3283
886.775	3291
886.9	3534
887.025	3618
887.149	3443
887.274	3283
887.399	3214
887.523	3245
887.648	3195
887.773	3222
887.897	3370
888.021	3412
888.146	3260
888.27	3431
888.395	3519
888.519	3443
888.643	3458
888.767	3488
888.891	3332
889.015	3272
889.139	3325
889.263	3272
889.387	3458
889.511	3538
889.635	3469
889.759	3321
889.883	3287
890.006	3374
890.13	3511
890.254	3287
890.377	3370
890.501	3233
890.624	3207
890.748	3359
890.871	3211
890.995	3077
891.118	3085
891.241	3184
891.364	3245
891.488	3321
891.611	3211
891.734	3272
891.857	3287
891.98	3268
892.103	3363
892.226	3287
892.349	3272
892.471	3127
892.594	3249
892.717	3310
892.839	3291
892.962	3294
893.085	3370
893.207	3302
893.33	3157
893.452	3199
893.575	3389
893.697	3268
893.819	3462
893.941	3526
894.064	3458
894.186	3275
894.308	3275
894.43	3458
894.552	3542
894.674	3466
894.796	3317
894.918	3340
895.04	3298
895.161	3401
895.283	3397
895.405	3355
895.526	3348
895.648	3431
895.769	3450
895.891	3462
896.012	3488
896.134	3481
896.255	3409
896.376	3431
896.498	3340
896.619	3454
896.74	3439
896.861	3420
896.982	3679
897.103	3850
897.224	3633
897.345	3515
897.466	3454
897.587	3507
897.708	3637
897.828	3553
897.949	3462
898.07	3355
898.19	3428
898.311	3614
898.431	3466
898.552	3542
898.672	3644
898.792	3622
898.913	3523
899.033	3397
899.153	3310
899.273	3211
899.393	3325
899.513	3336
899.633	3336
899.753	3348
899.873	3313
899.993	3412
900.113	3336
900.232	3382
900.352	3363
900.472	3310
900.591	3230
900.711	3287
900.83	3245
900.95	3386
901.069	3496
901.189	3344
901.308	3184
901.427	3142
901.546	3203
901.665	3332
901.784	3336
901.904	3237
902.023	3184
902.141	3039
902.26	3024
902.379	3176
902.498	3074
902.617	3047
902.735	3233
902.854	3226
902.973	3173
903.091	3047
903.21	3055
903.328	3157
903.446	3116
903.565	3093
903.683	3195
903.801	3169
903.919	3230
904.038	3272
904.156	3180
904.274	3268
904.392	3272
904.51	3317
904.627	3351
904.745	3416
904.863	3500
904.981	3291
905.098	3195
905.216	3199
905.334	3325
905.451	3317
905.569	3310
905.686	3412
905.803	3450
905.921	3317
906.038	3458
906.155	3340
906.272	3294
906.389	3344
906.506	3230
906.623	3226
906.74	3298
906.857	3214
906.974	3249
907.091	3466
907.208	3572
907.324	3488
907.441	3447
907.557	3241
907.674	3237
907.79	3199
907.907	3249
908.023	3416
908.139	3428
908.256	3321
908.372	3386
908.488	3313
908.604	3249
908.72	3222
908.836	3294
908.952	3291
909.068	3348
909.184	3500
909.3	3386
909.415	3530
909.531	3496
909.647	3321
909.762	3329
909.878	3298
909.993	3382
910.108	3351
910.224	3348
910.339	3420
910.454	3348
910.57	3313
910.685	3287
910.8	3561
910.915	3515
911.03	3488
911.145	3260
911.259	3355
911.374	3294
911.489	3264
911.604	3237
911.718	3146
911.833	3157
911.947	3039
912.062	3028
912.176	3192
912.291	3176
912.405	3199
912.519	3382
912.633	3450
912.748	3351
912.862	3249
912.976	3195
913.09	3058
913.204	3165
913.318	3272
913.431	3344
913.545	3382
913.659	3439
913.772	3370
913.886	3226
914	3226
914.113	3397
914.226	3409
914.34	3378
914.453	3222
914.566	3416
914.68	3317
914.793	3313
914.906	3188
915.019	3131
915.132	3108
915.245	3176
915.358	3218
915.47	3256
915.583	3268
915.696	3310
915.809	3409
915.921	3424
916.034	3260
916.146	3325
916.259	3214
916.371	3359
916.483	3348
916.595	3279
916.708	3344
916.82	3370
916.932	3355
917.044	3348
917.156	3355
917.268	3283
917.38	3336
917.491	3317
917.603	3382
917.715	3477
917.826	3481
917.938	3344
918.049	3302
918.161	3450
918.272	3564
918.384	3576
918.495	3507
918.606	3298
918.717	3264
918.828	3409
918.939	3420
919.05	3340
919.161	3393
919.272	3192
919.383	3317
919.494	3485
919.604	3720
919.715	3507
919.826	3389
919.936	3492
920.047	3572
920.157	3557
920.267	3770
920.378	3629
920.488	3622
920.598	3819
920.708	3975
920.818	3842
920.928	3873
921.038	4059
921.148	4029
921.258	3743
921.368	3625
921.477	3591
921.587	3576
921.697	3450
921.806	3648
921.916	3545
922.025	3367
922.134	3363
922.244	3351
922.353	3454
922.462	3241
922.571	3199
922.68	3108
922.789	3097
922.898	3146
923.007	3127
923.116	3207
923.224	3161
923.333	3214
923.442	3085
923.55	3089
923.659	3161
923.767	3211
923.876	3112
923.984	3249
924.092	3104
924.201	3188
924.309	3207
924.417	3287
924.525	3195
924.633	3222
924.741	4200
924.849	3085
924.956	3294
925.064	3097
925.172	3005
925.279	3150
925.387	3184
925.494	3226
925.602	3374
925.709	3310
925.816	3150
925.924	3279
926.031	3397
926.138	3306
926.245	3416
926.352	3294
926.459	3409
926.566	3530
926.673	3302
926.779	3275
926.886	3260
926.993	3123
927.099	3146
927.206	3123
927.312	3119
927.419	3218
927.525	3214
927.631	3249
927.737	3173
927.843	3157
927.95	3036
928.056	3138
928.162	3180
928.267	3264
928.373	3842
928.479	3332
928.585	3058
928.69	3253
928.796	3313
928.901	3184
929.007	3058
929.112	3207
929.218	3192
929.323	3161
929.428	3150
929.533	3313
929.638	3142
929.743	3199
929.848	3268
929.953	3184
930.058	3138
930.163	3009
930.267	3055
930.372	3165
930.477	3043
930.581	3302
930.685	3195
930.79	3058
930.894	3097
930.998	3123
931.103	3279
931.207	2979
931.311	2941
931.415	2933
931.519	2769
931.623	2823
