Data from test_V78500241_1020.txt Node
Date: Fri Mar 25 16:22:16 CST 2022
User: usil
Spectrometer: V785-0024
Trigger mode: 0
Integration Time (sec): 4.000000E-1
Scans to average: 1
Nonlinearity correction enabled: false
Boxcar width: 0
Storing dark spectrum: false
XAxis mode: Wavelengths
Number of Pixels in Spectrum: 1024
>>>>>Begin Spectral Data<<<<<
801.071	2891
801.214	2941
801.356	2883
801.499	2922
801.641	2857
801.783	2880
801.926	3039
802.068	2963
802.211	3005
802.353	3032
802.496	2902
802.638	2998
802.78	3001
802.923	3081
803.065	3009
803.208	2887
803.35	2872
803.492	2944
803.635	2918
803.777	2762
803.919	2842
804.061	3222
804.204	2902
804.346	2864
804.488	2838
804.63	2967
804.773	2834
804.915	2902
805.057	3062
805.199	2922
805.341	2963
805.483	3009
805.626	2975
805.768	2971
805.91	3081
806.052	3108
806.194	3032
806.336	3233
806.478	2963
806.62	2918
806.762	2975
806.904	3036
807.046	3138
807.188	2960
807.33	2864
807.472	2971
807.614	2864
807.756	2979
807.898	2899
808.04	2902
808.182	2963
808.324	2918
808.465	2914
808.607	2868
808.749	2788
808.891	2838
809.033	3020
809.174	2937
809.316	2906
809.458	2883
809.6	2766
809.741	2750
809.883	2746
810.025	2849
810.166	2834
810.308	2826
810.45	2838
810.591	2811
810.733	2773
810.875	2834
811.016	2788
811.158	2769
811.299	2735
811.441	2941
811.582	2864
811.724	2807
811.865	2838
812.007	2902
812.148	2861
812.29	2880
812.431	2883
812.573	2925
812.714	2922
812.855	3028
812.997	3085
813.138	3104
813.279	3028
813.421	2963
813.562	2990
813.703	2883
813.845	2929
813.986	2788
814.127	2731
814.268	2830
814.41	2834
814.551	2807
814.692	2887
814.833	2804
814.974	2918
815.115	2933
815.256	2838
815.397	2781
815.539	2826
815.68	2785
815.821	2792
815.962	2918
816.103	2914
816.244	2842
816.385	2880
816.526	2929
816.666	2902
816.807	2746
816.948	2861
817.089	2944
817.23	2815
817.371	2773
817.512	2823
817.653	2819
817.793	2826
817.934	2849
818.075	2948
818.216	2922
818.356	3043
818.497	2887
818.638	2785
818.778	2781
818.919	2754
819.06	2750
819.2	2880
819.341	2826
819.481	2815
819.622	2902
819.762	3085
819.903	3017
820.043	2914
820.184	2872
820.324	2868
820.465	3001
820.605	2982
820.746	2998
820.886	2929
821.026	3062
821.167	3150
821.307	3245
821.447	3287
821.588	3253
821.728	3173
821.868	3169
822.008	3055
822.149	3192
822.289	3214
822.429	3066
822.569	3081
822.709	3142
822.849	3032
822.99	3081
823.13	3119
823.27	3173
823.41	3142
823.55	3150
823.69	3108
823.83	3150
823.97	3100
824.11	3005
824.25	3001
824.389	3009
824.529	3100
824.669	3081
824.809	3211
824.949	3226
825.089	3245
825.228	3150
825.368	3047
825.508	2933
825.648	2975
825.787	3005
825.927	3028
826.067	2948
826.206	2986
826.346	3043
826.485	3108
826.625	3119
826.765	3272
826.904	3237
827.044	3017
827.183	2922
827.323	2902
827.462	3005
827.601	2948
827.741	2948
827.88	2956
828.02	2864
828.159	3055
828.298	3055
828.437	3146
828.577	3081
828.716	3253
828.855	3085
828.994	2952
829.134	2868
829.273	2967
829.412	2914
829.551	2944
829.69	2902
829.829	3024
829.968	3173
830.107	3055
830.246	3058
830.385	2979
830.524	2914
830.663	2880
830.802	2739
830.941	2674
831.08	2678
831.219	2792
831.357	2804
831.496	2971
831.635	2758
831.774	2697
831.913	2678
832.051	2598
832.19	2610
832.329	2701
832.467	2571
832.606	2533
832.744	2598
832.883	2648
833.022	2613
833.16	2689
833.299	2701
833.437	2705
833.576	2773
833.714	2766
833.852	2758
833.991	2781
834.129	2876
834.267	2906
834.406	2807
834.544	2899
834.682	2918
834.821	2914
834.959	3112
835.097	2982
835.235	3085
835.373	3020
835.511	3005
835.65	3005
835.788	3009
835.926	2819
836.064	2849
836.202	2887
836.34	3138
836.478	3180
836.615	3055
836.753	3169
836.891	3214
837.029	3188
837.167	3180
837.305	3058
837.443	3070
837.58	2994
837.718	3161
837.856	3074
837.993	3070
838.131	3165
838.269	3119
838.406	3131
838.544	3077
838.681	2971
838.819	2929
838.956	2849
839.094	2861
839.231	2952
839.369	3066
839.506	3412
839.643	3226
839.781	3051
839.918	3028
840.055	3116
840.193	3039
840.33	3089
840.467	3116
840.604	3161
840.742	3420
840.879	3081
841.016	3062
841.153	3161
841.29	3374
841.427	3329
841.564	3283
841.701	3367
841.838	3211
841.975	3237
842.112	3241
842.249	3108
842.385	3077
842.522	3253
842.659	3131
842.796	3089
842.933	3123
843.069	3104
843.206	3074
843.343	3203
843.479	3154
843.616	3169
843.752	2922
843.889	2891
844.025	3104
844.162	2937
844.298	3097
844.435	2990
844.571	2910
844.708	3116
844.844	3264
844.98	3279
845.117	3218
845.253	3085
845.389	3024
845.525	3146
845.661	3131
845.798	3066
845.934	3157
846.07	3093
846.206	3249
846.342	3332
846.478	3264
846.614	3097
846.75	3085
846.886	3066
847.022	3226
847.158	3165
847.294	3214
847.429	3260
847.565	3249
847.701	3515
847.837	3093
847.972	3051
848.108	3157
848.244	3165
848.379	3005
848.515	2982
848.65	2963
848.786	2975
848.921	3020
849.057	3112
849.192	3146
849.328	3138
849.463	3138
849.598	3077
849.734	3074
849.869	3001
850.004	2937
850.14	2986
850.275	2952
850.41	2857
850.545	2887
850.68	2967
850.815	2979
850.95	2994
851.085	3249
851.22	3131
851.355	3070
851.49	3028
851.625	3036
851.76	3020
851.895	2948
852.03	2986
852.165	3051
852.299	3131
852.434	3218
852.569	3173
852.703	3233
852.838	3272
852.973	3351
853.107	3389
853.242	3165
853.376	3112
853.511	3013
853.645	3032
853.78	3237
853.914	3154
854.048	3135
854.183	3074
854.317	3173
854.451	3348
854.585	3157
854.72	3077
854.854	3237
854.988	3097
855.122	3116
855.256	3001
855.39	3131
855.524	3226
855.658	3188
855.792	3142
855.926	3233
856.06	3275
856.194	3283
856.327	3173
856.461	3112
856.595	3119
856.729	3097
856.862	3233
856.996	3222
857.13	3207
857.263	3214
857.397	3287
857.53	3154
857.664	3207
857.797	3233
857.931	3291
858.064	3184
858.197	3237
858.331	3150
858.464	3150
858.597	2998
858.731	3116
858.864	3146
858.997	3135
859.13	3135
859.263	3176
859.396	3230
859.529	3131
859.662	3051
859.795	3074
859.928	3142
860.061	3283
860.194	3298
860.327	3173
860.46	3165
860.592	3237
860.725	3245
860.858	3272
860.99	3138
861.123	3066
861.256	3051
861.388	3146
861.521	3854
861.653	3001
861.786	3028
861.918	3020
862.05	3070
862.183	3077
862.315	3146
862.447	3169
862.58	3104
862.712	2963
862.844	2883
862.976	3009
863.108	3062
863.24	3443
863.372	2872
863.504	2979
863.636	2956
863.768	3051
863.9	2967
864.032	2910
864.164	2956
864.296	3077
864.428	3089
864.559	3062
864.691	3074
864.823	3085
864.954	3081
865.086	3070
865.217	2979
865.349	3009
865.48	3017
865.612	3020
865.743	3173
865.875	3005
866.006	2967
866.137	3013
866.269	2948
866.4	2933
866.531	2944
866.662	2914
866.793	2933
866.924	2944
867.055	2990
867.186	2937
867.317	2914
867.448	2887
867.579	2868
867.71	2899
867.841	2838
867.972	2952
868.103	2891
868.233	2895
868.364	2914
868.495	2910
868.625	3100
868.756	3157
868.886	2975
869.017	3070
869.147	3195
869.278	3165
869.408	3089
869.539	3032
869.669	3135
869.799	3032
869.929	3142
870.06	3100
870.19	3336
870.32	3275
870.45	3310
870.58	3401
870.71	3450
870.84	3469
870.97	3283
871.1	3264
871.23	3477
871.36	3469
871.489	3351
871.619	3450
871.749	3405
871.879	3454
872.008	3530
872.138	3336
872.267	3272
872.397	3176
872.526	3112
872.656	3036
872.785	3142
872.915	3279
873.044	3340
873.173	3283
873.303	3275
873.432	3283
873.561	3237
873.69	3176
873.819	3150
873.948	3218
874.077	3127
874.206	3074
874.335	3089
874.464	3241
874.593	3340
874.722	3275
874.851	3412
874.979	3363
875.108	3351
875.237	3161
875.365	3161
875.494	3150
875.623	3272
875.751	3127
875.88	3131
876.008	3218
876.136	3245
876.265	3405
876.393	3557
876.521	3458
876.65	3439
876.778	3344
876.906	3249
877.034	3245
877.162	3214
877.29	3230
877.418	3233
877.546	3260
877.674	3283
877.802	3256
877.93	3241
878.058	3161
878.185	3104
878.313	3222
878.441	3268
878.568	3127
878.696	3165
878.824	3237
878.951	3275
879.079	3439
879.206	3618
879.333	3477
879.461	3332
879.588	3344
879.715	3530
879.842	3599
879.97	3382
880.097	3165
880.224	3131
880.351	3161
880.478	3245
880.605	3203
880.732	3188
880.859	3519
880.986	3279
881.112	3363
881.239	3173
881.366	3104
881.493	3032
881.619	2986
881.746	3043
881.872	3077
881.999	3089
882.125	3165
882.252	3230
882.378	3313
882.505	3500
882.631	3272
882.757	3146
882.883	3241
883.01	3245
883.136	3195
883.262	3093
883.388	3131
883.514	3332
883.64	3409
883.766	3306
883.892	3203
884.018	3222
884.143	3450
884.269	3557
884.395	3253
884.52	3176
884.646	3218
884.772	3142
884.897	3104
885.023	3222
885.148	3336
885.274	3393
885.399	3370
885.524	3279
885.65	3283
885.775	3291
885.9	3287
886.025	3431
886.15	3332
886.275	3294
886.4	3249
886.525	3313
886.65	3294
886.775	3321
886.9	3496
887.025	3652
887.149	3386
887.274	3275
887.399	3184
887.523	3218
887.648	3218
887.773	3214
887.897	3359
888.021	3367
888.146	3321
888.27	3466
888.395	3561
888.519	3454
888.643	3409
888.767	3492
888.891	3306
889.015	3268
889.139	3283
889.263	3256
889.387	3435
889.511	3526
889.635	3447
889.759	3272
889.883	3294
890.006	3351
890.13	3519
890.254	3268
890.377	3382
890.501	3230
890.624	3188
890.748	3302
890.871	3199
890.995	3119
891.118	3093
891.241	3237
891.364	3222
891.488	3332
891.611	3154
891.734	3272
891.857	3321
891.98	3275
892.103	3332
892.226	3272
892.349	3199
892.471	3112
892.594	3237
892.717	3325
892.839	3283
892.962	3317
893.085	3351
893.207	3329
893.33	3176
893.452	3253
893.575	3325
893.697	3253
893.819	3492
893.941	3500
894.064	3454
894.186	3275
894.308	3291
894.43	3443
894.552	3542
894.674	3473
894.796	3268
894.918	3336
895.04	3310
895.161	3496
895.283	3397
895.405	3279
895.526	3340
895.648	3439
895.769	3435
895.891	3485
896.012	3428
896.134	3481
896.255	3447
896.376	3386
896.498	3370
896.619	3447
896.74	3374
896.861	3405
896.982	3682
897.103	3842
897.224	3580
897.345	3523
897.466	3454
897.587	3519
897.708	3622
897.828	3545
897.949	3416
898.07	3325
898.19	3416
898.311	3580
898.431	3454
898.552	3450
898.672	3625
898.792	3549
898.913	3519
899.033	3412
899.153	3268
899.273	3211
899.393	3294
899.513	3336
899.633	3329
899.753	3329
899.873	3291
899.993	3401
900.113	3332
900.232	3370
900.352	3317
900.472	3256
900.591	3211
900.711	3294
900.83	3268
900.95	3401
901.069	3473
901.189	3363
901.308	3173
901.427	3154
901.546	3222
901.665	3302
901.784	3329
901.904	3184
902.023	3161
902.141	3017
902.26	2994
902.379	3157
902.498	3066
902.617	3066
902.735	3180
902.854	3253
902.973	3169
903.091	3100
903.21	3058
903.328	3131
903.446	3131
903.565	3089
903.683	3211
903.801	3123
903.919	3233
904.038	3253
904.156	3161
904.274	3283
904.392	3260
904.51	3275
904.627	3298
904.745	3477
904.863	3492
904.981	3272
905.098	3142
905.216	3241
905.334	3302
905.451	3291
905.569	3260
905.686	3401
905.803	3462
905.921	3283
906.038	3412
906.155	3325
906.272	3272
906.389	3367
906.506	3222
906.623	3241
906.74	3310
906.857	3195
906.974	3253
907.091	3424
907.208	3587
907.324	3485
907.441	3363
907.557	3222
907.674	3253
907.79	3214
907.907	3313
908.023	3416
908.139	3359
908.256	3332
908.372	3351
908.488	3344
908.604	3249
908.72	3249
908.836	3279
908.952	3306
909.068	3332
909.184	3477
909.3	3405
909.415	3511
909.531	3469
909.647	3230
909.762	3317
909.878	3279
909.993	3393
910.108	3340
910.224	3370
910.339	3458
910.454	3344
910.57	3302
910.685	3207
910.8	3595
910.915	3511
911.03	3431
911.145	3237
911.259	3256
911.374	3321
911.489	3249
911.604	3199
911.718	3108
911.833	3138
911.947	3051
912.062	3020
912.176	3131
912.291	3173
912.405	3211
912.519	3466
912.633	3447
912.748	3325
912.862	3233
912.976	3188
913.09	3036
913.204	3142
913.318	3226
913.431	3275
913.545	3363
913.659	3424
913.772	3336
913.886	3237
914	3203
914.113	3351
914.226	3378
914.34	3325
914.453	3233
914.566	3386
914.68	3294
914.793	3317
914.906	3127
915.019	3131
915.132	3081
915.245	3169
915.358	3207
915.47	3260
915.583	3233
915.696	3313
915.809	3412
915.921	3382
916.034	3249
916.146	3272
916.259	3218
916.371	3351
916.483	3340
916.595	3253
916.708	3340
916.82	3340
916.932	3389
917.044	3351
917.156	3359
917.268	3233
917.38	3294
917.491	3291
917.603	3382
917.715	3439
917.826	3431
917.938	3397
918.049	3291
918.161	3473
918.272	3591
918.384	3564
918.495	3469
918.606	3344
918.717	3260
918.828	3386
918.939	3405
919.05	3294
919.161	3367
919.272	3211
919.383	3310
919.494	3473
919.604	3698
919.715	3420
919.826	3424
919.936	3469
920.047	3576
920.157	3534
920.267	3740
920.378	3629
920.488	3561
920.598	3785
920.708	3930
920.818	3819
920.928	3850
921.038	4040
921.148	3972
921.258	3709
921.368	3644
921.477	3587
921.587	3523
921.697	3443
921.806	3629
921.916	3523
922.025	3389
922.134	3363
922.244	3291
922.353	3439
922.462	3275
922.571	3222
922.68	3089
922.789	3085
922.898	3104
923.007	3100
923.116	3241
923.224	3184
923.333	3188
923.442	3089
923.55	3085
923.659	3146
923.767	3199
923.876	3119
923.984	3249
924.092	3100
924.201	3203
924.309	3233
924.417	3218
924.525	3195
924.633	3230
924.741	4188
924.849	3036
924.956	3279
925.064	3100
925.172	3020
925.279	3093
925.387	3192
925.494	3188
925.602	3370
925.709	3294
925.816	3165
925.924	3287
926.031	3420
926.138	3310
926.245	3397
926.352	3253
926.459	3386
926.566	3496
926.673	3291
926.779	3294
926.886	3264
926.993	3100
927.099	3127
927.206	3150
927.312	3100
927.419	3180
927.525	3165
927.631	3283
927.737	3131
927.843	3116
927.95	3020
928.056	3157
928.162	3195
928.267	3294
928.373	3873
928.479	3340
928.585	3077
928.69	3218
928.796	3283
928.901	3161
929.007	3001
929.112	3249
929.218	3169
929.323	3150
929.428	3150
929.533	3321
929.638	3116
929.743	3165
929.848	3237
929.953	3211
930.058	3123
930.163	2982
930.267	3058
930.372	3165
930.477	3036
930.581	3310
930.685	3161
930.79	3032
930.894	3138
930.998	3112
931.103	3264
931.207	2967
931.311	2948
931.415	2914
931.519	2769
931.623	2815
