Data from test_V78500241_1940.txt Node
Date: Fri Mar 25 16:28:38 CST 2022
User: usil
Spectrometer: V785-0024
Trigger mode: 0
Integration Time (sec): 4.000000E-1
Scans to average: 1
Nonlinearity correction enabled: false
Boxcar width: 0
Storing dark spectrum: false
XAxis mode: Wavelengths
Number of Pixels in Spectrum: 1024
>>>>>Begin Spectral Data<<<<<
801.071	2918
801.214	2925
801.356	2834
801.499	2902
801.641	2823
801.783	2902
801.926	3070
802.068	2971
802.211	2971
802.353	3017
802.496	2963
802.638	3001
802.78	3043
802.923	3077
803.065	2982
803.208	2895
803.35	2918
803.492	2922
803.635	2914
803.777	2739
803.919	2861
804.061	3180
804.204	2941
804.346	2918
804.488	2861
804.63	2990
804.773	2864
804.915	2899
805.057	3055
805.199	2937
805.341	2956
805.483	3077
805.626	3001
805.768	2982
805.91	3089
806.052	3119
806.194	3047
806.336	3256
806.478	2994
806.62	2937
806.762	2956
806.904	3077
807.046	3165
807.188	2998
807.33	2880
807.472	2994
807.614	2918
807.756	2963
807.898	2952
808.04	2895
808.182	2986
808.324	2944
808.465	2849
808.607	2857
808.749	2800
808.891	2861
809.033	2956
809.174	2986
809.316	2899
809.458	2876
809.6	2762
809.741	2781
809.883	2750
810.025	2823
810.166	2834
810.308	2868
810.45	2811
810.591	2769
810.733	2758
810.875	2819
811.016	2792
811.158	2750
811.299	2819
811.441	2902
811.582	2895
811.724	2796
811.865	2857
812.007	2895
812.148	2895
812.29	2857
812.431	2887
812.573	2922
812.714	2956
812.855	3039
812.997	3051
813.138	3123
813.279	3001
813.421	3017
813.562	2960
813.703	2864
813.845	2887
813.986	2762
814.127	2735
814.268	2838
814.41	2868
814.551	2811
814.692	2876
814.833	2811
814.974	2895
815.115	2941
815.256	2868
815.397	2849
815.539	2864
815.68	2785
815.821	2758
815.962	2960
816.103	2899
816.244	2853
816.385	2823
816.526	2979
816.666	2937
816.807	2777
816.948	2906
817.089	2906
817.23	2861
817.371	2746
817.512	2838
817.653	2804
817.793	2834
817.934	2868
818.075	2979
818.216	2960
818.356	3070
818.497	2895
818.638	2807
818.778	2777
818.919	2811
819.06	2754
819.2	2880
819.341	2826
819.481	2815
819.622	2933
819.762	3135
819.903	3043
820.043	2910
820.184	2876
820.324	2899
820.465	2952
820.605	3032
820.746	3001
820.886	2906
821.026	3074
821.167	3146
821.307	3256
821.447	3275
821.588	3192
821.728	3207
821.868	3169
822.008	3100
822.149	3203
822.289	3214
822.429	3108
822.569	3108
822.709	3161
822.849	3043
822.99	3058
823.13	3195
823.27	3207
823.41	3097
823.55	3157
823.69	3135
823.83	3173
823.97	3089
824.11	3032
824.25	2990
824.389	3089
824.529	3127
824.669	3081
824.809	3157
824.949	3260
825.089	3192
825.228	3138
825.368	3032
825.508	2967
825.648	2986
825.787	3017
825.927	3005
826.067	2982
826.206	2960
826.346	3055
826.485	3051
826.625	3112
826.765	3237
826.904	3230
827.044	3009
827.183	2883
827.323	2838
827.462	2982
827.601	2910
827.741	2887
827.88	2960
828.02	2861
828.159	2986
828.298	3020
828.437	3093
828.577	3047
828.716	3283
828.855	3074
828.994	2925
829.134	2883
829.273	2914
829.412	2876
829.551	2876
829.69	2857
829.829	3024
829.968	3138
830.107	3039
830.246	3024
830.385	2922
830.524	2887
830.663	2807
830.802	2735
830.941	2670
831.08	2632
831.219	2750
831.357	2750
831.496	2933
831.635	2720
831.774	2632
831.913	2659
832.051	2560
832.19	2568
832.329	2659
832.467	2537
832.606	2499
832.744	2587
832.883	2587
833.022	2583
833.16	2640
833.299	2663
833.437	2678
833.576	2716
833.714	2697
833.852	2708
833.991	2750
834.129	2804
834.267	2819
834.406	2766
834.544	2853
834.682	2872
834.821	2918
834.959	3070
835.097	2876
835.235	3070
835.373	2990
835.511	3020
835.65	2971
835.788	2956
835.926	2845
836.064	2815
836.202	2845
836.34	3077
836.478	3131
836.615	3051
836.753	3123
836.891	3211
837.029	3138
837.167	3074
837.305	3074
837.443	3036
837.58	2967
837.718	3138
837.856	3043
837.993	3032
838.131	3135
838.269	3085
838.406	3093
838.544	3077
838.681	2918
838.819	2918
838.956	2792
839.094	2796
839.231	2922
839.369	3020
839.506	3412
839.643	3192
839.781	3001
839.918	2982
840.055	3051
840.193	3024
840.33	3024
840.467	3100
840.604	3093
840.742	3401
840.879	3028
841.016	3043
841.153	3116
841.29	3336
841.427	3275
841.564	3264
841.701	3313
841.838	3199
841.975	3207
842.112	3218
842.249	3089
842.385	3089
842.522	3249
842.659	3085
842.796	3055
842.933	3097
843.069	3032
843.206	2994
843.343	3180
843.479	3108
843.616	3127
843.752	2853
843.889	2853
844.025	3116
844.162	2857
844.298	3058
844.435	2933
844.571	2922
844.708	3058
844.844	3161
844.98	3199
845.117	3188
845.253	3036
845.389	3013
845.525	3100
845.661	3108
845.798	3013
845.934	3119
846.07	3047
846.206	3226
846.342	3294
846.478	3195
846.614	3108
846.75	3024
846.886	3028
847.022	3192
847.158	3108
847.294	3165
847.429	3241
847.565	3218
847.701	3496
847.837	2982
847.972	2986
848.108	3157
848.244	3161
848.379	2986
848.515	2918
848.65	2941
848.786	2963
848.921	2975
849.057	3089
849.192	3157
849.328	3043
849.463	3135
849.598	3043
849.734	3005
849.869	2963
850.004	2937
850.14	2960
850.275	2906
850.41	2838
850.545	2895
850.68	2952
850.815	2933
850.95	2971
851.085	3192
851.22	3131
851.355	3017
851.49	2948
851.625	2994
851.76	3028
851.895	2960
852.03	2883
852.165	3039
852.299	3123
852.434	3188
852.569	3127
852.703	3161
852.838	3230
852.973	3325
853.107	3332
853.242	3119
853.376	3116
853.511	2971
853.645	3077
853.78	3211
853.914	3127
854.048	3123
854.183	3100
854.317	3146
854.451	3306
854.585	3123
854.72	3077
854.854	3188
854.988	3093
855.122	3047
855.256	2998
855.39	3108
855.524	3233
855.658	3161
855.792	3135
855.926	3207
856.06	3207
856.194	3241
856.327	3135
856.461	3066
856.595	3077
856.729	3116
856.862	3184
856.996	3165
857.13	3180
857.263	3180
857.397	3279
857.53	3112
857.664	3154
857.797	3260
857.931	3245
858.064	3154
858.197	3207
858.331	3142
858.464	3104
858.597	2982
858.731	3127
858.864	3097
858.997	3123
859.13	3157
859.263	3150
859.396	3180
859.529	3077
859.662	3081
859.795	3058
859.928	3112
860.061	3275
860.194	3313
860.327	3142
860.46	3127
860.592	3207
860.725	3256
860.858	3310
860.99	3070
861.123	3051
861.256	3062
861.388	3119
861.521	3876
861.653	3013
861.786	2986
861.918	3001
862.05	3043
862.183	3058
862.315	3150
862.447	3176
862.58	3093
862.712	2906
862.844	2849
862.976	2986
863.108	2986
863.24	3340
863.372	2902
863.504	2952
863.636	2933
863.768	3043
863.9	2982
864.032	2941
864.164	2918
864.296	3005
864.428	3074
864.559	3097
864.691	3119
864.823	3070
864.954	3013
865.086	3028
865.217	3020
865.349	2918
865.48	3001
865.612	3001
865.743	3142
865.875	2986
866.006	2929
866.137	2933
866.269	2944
866.4	2956
866.531	2902
866.662	2876
866.793	2861
866.924	2925
867.055	2952
867.186	2895
867.317	2895
867.448	2868
867.579	2861
867.71	2830
867.841	2811
867.972	2918
868.103	2906
868.233	2891
868.364	2868
868.495	2922
868.625	3074
868.756	3161
868.886	3001
869.017	3032
869.147	3161
869.278	3161
869.408	3017
869.539	3024
869.669	3112
869.799	3032
869.929	3161
870.06	3074
870.19	3310
870.32	3287
870.45	3310
870.58	3370
870.71	3424
870.84	3447
870.97	3287
871.1	3256
871.23	3504
871.36	3466
871.489	3344
871.619	3386
871.749	3393
871.879	3420
872.008	3469
872.138	3351
872.267	3275
872.397	3097
872.526	3070
872.656	3036
872.785	3131
872.915	3218
873.044	3317
873.173	3218
873.303	3199
873.432	3218
873.561	3218
873.69	3150
873.819	3119
873.948	3188
874.077	3081
874.206	3032
874.335	3100
874.464	3173
874.593	3355
874.722	3211
874.851	3370
874.979	3386
875.108	3310
875.237	3154
875.365	3138
875.494	3138
875.623	3245
875.751	3066
875.88	3112
876.008	3173
876.136	3237
876.265	3336
876.393	3481
876.521	3389
876.65	3393
876.778	3321
876.906	3256
877.034	3211
877.162	3218
877.29	3184
877.418	3222
877.546	3207
877.674	3207
877.802	3218
877.93	3230
878.058	3119
878.185	3089
878.313	3211
878.441	3157
878.568	3062
878.696	3154
878.824	3268
878.951	3268
879.079	3431
879.206	3599
879.333	3473
879.461	3351
879.588	3359
879.715	3519
879.842	3557
879.97	3332
880.097	3157
880.224	3131
880.351	3165
880.478	3214
880.605	3169
880.732	3157
880.859	3477
880.986	3321
881.112	3294
881.239	3173
881.366	3104
881.493	3047
881.619	3028
881.746	3066
881.872	3081
881.999	3074
882.125	3165
882.252	3253
882.378	3287
882.505	3420
882.631	3253
882.757	3180
882.883	3188
883.01	3211
883.136	3146
883.262	3062
883.388	3074
883.514	3306
883.64	3332
883.766	3348
883.892	3207
884.018	3237
884.143	3454
884.269	3523
884.395	3211
884.52	3146
884.646	3154
884.772	3135
884.897	3119
885.023	3218
885.148	3321
885.274	3405
885.399	3405
885.524	3275
885.65	3264
885.775	3302
885.9	3275
886.025	3416
886.15	3386
886.275	3321
886.4	3233
886.525	3291
886.65	3226
886.775	3275
886.9	3496
887.025	3587
887.149	3393
887.274	3260
887.399	3173
887.523	3199
887.648	3154
887.773	3199
887.897	3359
888.021	3412
888.146	3340
888.27	3428
888.395	3542
888.519	3431
888.643	3416
888.767	3454
888.891	3332
889.015	3260
889.139	3294
889.263	3237
889.387	3378
889.511	3500
889.635	3420
889.759	3279
889.883	3336
890.006	3363
890.13	3492
890.254	3260
890.377	3374
890.501	3188
890.624	3184
890.748	3313
890.871	3207
890.995	3066
891.118	3077
891.241	3169
891.364	3222
891.488	3329
891.611	3157
891.734	3245
891.857	3256
891.98	3233
892.103	3344
892.226	3241
892.349	3214
892.471	3062
892.594	3245
892.717	3313
892.839	3241
892.962	3321
893.085	3340
893.207	3287
893.33	3146
893.452	3199
893.575	3329
893.697	3260
893.819	3416
893.941	3473
894.064	3504
894.186	3256
894.308	3245
894.43	3389
894.552	3549
894.674	3447
894.796	3264
894.918	3329
895.04	3302
895.161	3454
895.283	3389
895.405	3272
895.526	3393
895.648	3367
895.769	3428
895.891	3462
896.012	3473
896.134	3473
896.255	3397
896.376	3374
896.498	3393
896.619	3428
896.74	3348
896.861	3393
896.982	3648
897.103	3812
897.224	3606
897.345	3515
897.466	3431
897.587	3496
897.708	3606
897.828	3534
897.949	3462
898.07	3340
898.19	3382
898.311	3610
898.431	3447
898.552	3511
898.672	3572
898.792	3564
898.913	3530
899.033	3393
899.153	3256
899.273	3233
899.393	3298
899.513	3294
899.633	3313
899.753	3340
899.873	3310
899.993	3340
900.113	3359
900.232	3382
900.352	3332
900.472	3268
900.591	3237
900.711	3253
900.83	3249
900.95	3416
901.069	3488
901.189	3336
901.308	3146
901.427	3123
901.546	3199
901.665	3294
901.784	3359
901.904	3184
902.023	3131
902.141	3009
902.26	2975
902.379	3112
902.498	3074
902.617	3070
902.735	3222
902.854	3233
902.973	3192
903.091	3043
903.21	3077
903.328	3135
903.446	3089
903.565	3089
903.683	3211
903.801	3089
903.919	3283
904.038	3256
904.156	3157
904.274	3272
904.392	3272
904.51	3241
904.627	3348
904.745	3454
904.863	3519
904.981	3218
905.098	3150
905.216	3218
905.334	3264
905.451	3313
905.569	3329
905.686	3397
905.803	3409
905.921	3264
906.038	3431
906.155	3340
906.272	3291
906.389	3321
906.506	3264
906.623	3260
906.74	3294
906.857	3154
906.974	3249
907.091	3439
907.208	3564
907.324	3473
907.441	3374
907.557	3275
907.674	3268
907.79	3165
907.907	3329
908.023	3401
908.139	3332
908.256	3332
908.372	3317
908.488	3344
908.604	3279
908.72	3245
908.836	3260
908.952	3256
909.068	3302
909.184	3454
909.3	3351
909.415	3504
909.531	3481
909.647	3287
909.762	3279
909.878	3260
909.993	3370
910.108	3329
910.224	3351
910.339	3416
910.454	3321
910.57	3325
910.685	3253
910.8	3606
910.915	3553
911.03	3435
911.145	3272
911.259	3275
911.374	3306
911.489	3207
911.604	3233
911.718	3154
911.833	3138
911.947	2979
912.062	3005
912.176	3142
912.291	3176
912.405	3180
912.519	3428
912.633	3488
912.748	3329
912.862	3264
912.976	3138
913.09	3047
913.204	3161
913.318	3214
913.431	3298
913.545	3351
913.659	3409
913.772	3306
913.886	3260
914	3218
914.113	3344
914.226	3439
914.34	3386
914.453	3203
914.566	3454
914.68	3279
914.793	3287
914.906	3150
915.019	3093
915.132	3058
915.245	3165
915.358	3195
915.47	3226
915.583	3226
915.696	3283
915.809	3405
915.921	3405
916.034	3241
916.146	3268
916.259	3253
916.371	3370
916.483	3370
916.595	3283
916.708	3321
916.82	3363
916.932	3340
917.044	3336
917.156	3351
917.268	3306
917.38	3294
917.491	3279
917.603	3374
917.715	3477
917.826	3492
917.938	3355
918.049	3253
918.161	3420
918.272	3606
918.384	3545
918.495	3466
918.606	3367
918.717	3306
918.828	3359
918.939	3431
919.05	3313
919.161	3351
919.272	3176
919.383	3272
919.494	3504
919.604	3656
919.715	3454
919.826	3447
919.936	3473
920.047	3610
920.157	3580
920.267	3743
920.378	3610
920.488	3564
920.598	3804
920.708	3911
920.818	3842
920.928	3800
921.038	4071
921.148	4010
921.258	3679
921.368	3603
921.477	3572
921.587	3511
921.697	3466
921.806	3663
921.916	3515
922.025	3344
922.134	3359
922.244	3291
922.353	3424
922.462	3264
922.571	3241
922.68	3081
922.789	3085
922.898	3135
923.007	3108
923.116	3203
923.224	3184
923.333	3169
923.442	3112
923.55	3074
923.659	3157
923.767	3188
923.876	3142
923.984	3226
924.092	3089
924.201	3161
924.309	3211
924.417	3313
924.525	3135
924.633	3214
924.741	4169
924.849	3085
924.956	3272
925.064	3097
925.172	3047
925.279	3116
925.387	3165
925.494	3230
925.602	3317
925.709	3310
925.816	3176
925.924	3272
926.031	3344
926.138	3317
926.245	3355
926.352	3245
926.459	3370
926.566	3428
926.673	3310
926.779	3264
926.886	3199
926.993	3161
927.099	3097
927.206	3070
927.312	3100
927.419	3218
927.525	3218
927.631	3287
927.737	3146
927.843	3119
927.95	3047
928.056	3138
928.162	3169
928.267	3253
928.373	3880
928.479	3306
928.585	3032
928.69	3176
928.796	3245
928.901	3180
929.007	3036
929.112	3173
929.218	3192
929.323	3116
929.428	3157
929.533	3294
929.638	3138
929.743	3161
929.848	3260
929.953	3192
930.058	3116
930.163	3013
930.267	3039
930.372	3192
930.477	3020
930.581	3321
930.685	3207
930.79	3066
930.894	3138
930.998	3116
931.103	3253
931.207	2971
931.311	2979
931.415	2925
931.519	2766
931.623	2781
