Data from test_V78500241_1662.txt Node
Date: Fri Mar 25 16:26:43 CST 2022
User: usil
Spectrometer: V785-0024
Trigger mode: 0
Integration Time (sec): 4.000000E-1
Scans to average: 1
Nonlinearity correction enabled: false
Boxcar width: 0
Storing dark spectrum: false
XAxis mode: Wavelengths
Number of Pixels in Spectrum: 1024
>>>>>Begin Spectral Data<<<<<
801.071	2941
801.214	2952
801.356	2906
801.499	2914
801.641	2845
801.783	2933
801.926	3081
802.068	2963
802.211	2990
802.353	3055
802.496	2994
802.638	3009
802.78	3047
802.923	3104
803.065	3013
803.208	2864
803.35	2922
803.492	2948
803.635	2937
803.777	2785
803.919	2845
804.061	3188
804.204	2944
804.346	2925
804.488	2857
804.63	2990
804.773	2872
804.915	2899
805.057	3055
805.199	2933
805.341	2990
805.483	3043
805.626	2990
805.768	2960
805.91	3097
806.052	3131
806.194	3047
806.336	3256
806.478	3055
806.62	2967
806.762	3005
806.904	3062
807.046	3157
807.188	2990
807.33	2918
807.472	2990
807.614	2933
807.756	3017
807.898	2925
808.04	2895
808.182	3001
808.324	2960
808.465	2937
808.607	2902
808.749	2743
808.891	2853
809.033	2994
809.174	2982
809.316	2895
809.458	2910
809.6	2800
809.741	2777
809.883	2731
810.025	2864
810.166	2834
810.308	2872
810.45	2861
810.591	2800
810.733	2792
810.875	2853
811.016	2766
811.158	2758
811.299	2819
811.441	2948
811.582	2906
811.724	2823
811.865	2826
812.007	2883
812.148	2876
812.29	2853
812.431	2868
812.573	2941
812.714	2998
812.855	3047
812.997	3055
813.138	3123
813.279	3032
813.421	3013
813.562	2960
813.703	2830
813.845	2891
813.986	2773
814.127	2769
814.268	2857
814.41	2861
814.551	2796
814.692	2887
814.833	2830
814.974	2895
815.115	2948
815.256	2807
815.397	2857
815.539	2891
815.68	2788
815.821	2804
815.962	2944
816.103	2956
816.244	2887
816.385	2853
816.526	2941
816.666	2895
816.807	2781
816.948	2906
817.089	2948
817.23	2861
817.371	2834
817.512	2811
817.653	2842
817.793	2785
817.934	2891
818.075	3013
818.216	2982
818.356	3017
818.497	2876
818.638	2781
818.778	2769
818.919	2811
819.06	2773
819.2	2914
819.341	2769
819.481	2826
819.622	2918
819.762	3131
819.903	3032
820.043	2899
820.184	2876
820.324	2891
820.465	2975
820.605	2998
820.746	3055
820.886	2948
821.026	3085
821.167	3173
821.307	3253
821.447	3283
821.588	3245
821.728	3211
821.868	3165
822.008	3074
822.149	3169
822.289	3214
822.429	3104
822.569	3058
822.709	3161
822.849	3009
822.99	3070
823.13	3146
823.27	3218
823.41	3112
823.55	3157
823.69	3199
823.83	3165
823.97	3123
824.11	2982
824.25	3020
824.389	3070
824.529	3081
824.669	3070
824.809	3184
824.949	3241
825.089	3195
825.228	3142
825.368	3017
825.508	2967
825.648	2986
825.787	3032
825.927	2982
826.067	2956
826.206	2948
826.346	3043
826.485	3039
826.625	3100
826.765	3256
826.904	3199
827.044	2975
827.183	2952
827.323	2876
827.462	2979
827.601	2895
827.741	2967
827.88	2960
828.02	2861
828.159	2998
828.298	3032
828.437	3112
828.577	3024
828.716	3218
828.855	3074
828.994	2906
829.134	2895
829.273	2902
829.412	2868
829.551	2857
829.69	2895
829.829	2967
829.968	3093
830.107	3009
830.246	3055
830.385	2929
830.524	2895
830.663	2826
830.802	2731
830.941	2648
831.08	2632
831.219	2724
831.357	2724
831.496	2963
831.635	2701
831.774	2636
831.913	2670
832.051	2564
832.19	2594
832.329	2686
832.467	2522
832.606	2469
832.744	2568
832.883	2598
833.022	2568
833.16	2629
833.299	2674
833.437	2701
833.576	2724
833.714	2705
833.852	2712
833.991	2769
834.129	2845
834.267	2868
834.406	2773
834.544	2868
834.682	2906
834.821	2849
834.959	3047
835.097	2891
835.235	3036
835.373	2982
835.511	3028
835.65	2990
835.788	2933
835.926	2823
836.064	2792
836.202	2811
836.34	3058
836.478	3138
836.615	3051
836.753	3116
836.891	3211
837.029	3127
837.167	3123
837.305	3051
837.443	3028
837.58	2967
837.718	3131
837.856	3055
837.993	3028
838.131	3089
838.269	3074
838.406	3112
838.544	3100
838.681	2906
838.819	2880
838.956	2853
839.094	2838
839.231	2902
839.369	3005
839.506	3367
839.643	3199
839.781	3001
839.918	2963
840.055	3058
840.193	3047
840.33	3081
840.467	3074
840.604	3165
840.742	3431
840.879	3039
841.016	3081
841.153	3123
841.29	3336
841.427	3287
841.564	3226
841.701	3294
841.838	3199
841.975	3142
842.112	3176
842.249	3108
842.385	3024
842.522	3226
842.659	3093
842.796	3047
842.933	3074
843.069	3047
843.206	3032
843.343	3207
843.479	3104
843.616	3138
843.752	2895
843.889	2842
844.025	3055
844.162	2857
844.298	3112
844.435	2933
844.571	2914
844.708	3039
844.844	3173
844.98	3214
845.117	3176
845.253	3051
845.389	3005
845.525	3127
845.661	3100
845.798	3039
845.934	3116
846.07	3058
846.206	3233
846.342	3302
846.478	3207
846.614	3058
846.75	3062
846.886	3009
847.022	3291
847.158	3135
847.294	3203
847.429	3245
847.565	3211
847.701	3473
847.837	3051
847.972	2982
848.108	3150
848.244	3116
848.379	2990
848.515	2960
848.65	2937
848.786	2956
848.921	2994
849.057	3127
849.192	3157
849.328	3081
849.463	3142
849.598	3097
849.734	3055
849.869	2929
850.004	2902
850.14	2967
850.275	2941
850.41	2834
850.545	2887
850.68	2906
850.815	2975
850.95	2990
851.085	3157
851.22	3108
851.355	3028
851.49	2979
851.625	2971
851.76	3009
851.895	2918
852.03	2922
852.165	3066
852.299	3077
852.434	3184
852.569	3176
852.703	3176
852.838	3241
852.973	3313
853.107	3302
853.242	3142
853.376	3074
853.511	2948
853.645	3058
853.78	3249
853.914	3097
854.048	3074
854.183	3093
854.317	3112
854.451	3332
854.585	3138
854.72	3097
854.854	3192
854.988	3024
855.122	3047
855.256	2948
855.39	3100
855.524	3264
855.658	3218
855.792	3131
855.926	3161
856.06	3222
856.194	3272
856.327	3173
856.461	3070
856.595	3074
856.729	3077
856.862	3211
856.996	3135
857.13	3218
857.263	3203
857.397	3260
857.53	3123
857.664	3157
857.797	3226
857.931	3230
858.064	3157
858.197	3237
858.331	3138
858.464	3074
858.597	3005
858.731	3131
858.864	3146
858.997	3070
859.13	3154
859.263	3169
859.396	3184
859.529	3085
859.662	3058
859.795	3039
859.928	3127
860.061	3253
860.194	3294
860.327	3123
860.46	3100
860.592	3253
860.725	3298
860.858	3230
860.99	3093
861.123	3039
861.256	3043
861.388	3116
861.521	3869
861.653	3020
861.786	2982
861.918	2982
862.05	3097
862.183	3070
862.315	3138
862.447	3176
862.58	3089
862.712	2952
862.844	2853
862.976	3020
863.108	3020
863.24	3393
863.372	2861
863.504	2979
863.636	2899
863.768	3009
863.9	2982
864.032	2918
864.164	2948
864.296	3024
864.428	3089
864.559	3089
864.691	3074
864.823	3039
864.954	3013
865.086	3081
865.217	2990
865.349	2956
865.48	2960
865.612	3013
865.743	3173
865.875	2990
866.006	2956
866.137	2963
866.269	2944
866.4	2937
866.531	2899
866.662	2853
866.793	2864
866.924	2887
867.055	2941
867.186	2918
867.317	2891
867.448	2853
867.579	2800
867.71	2842
867.841	2826
867.972	2883
868.103	2925
868.233	2895
868.364	2857
868.495	2914
868.625	3093
868.756	3184
868.886	2963
869.017	2998
869.147	3154
869.278	3169
869.408	3047
869.539	3047
869.669	3093
869.799	3032
869.929	3089
870.06	3062
870.19	3321
870.32	3260
870.45	3298
870.58	3374
870.71	3481
870.84	3405
870.97	3249
871.1	3249
871.23	3485
871.36	3447
871.489	3344
871.619	3405
871.749	3389
871.879	3401
872.008	3481
872.138	3321
872.267	3272
872.397	3131
872.526	3104
872.656	2979
872.785	3108
872.915	3211
873.044	3313
873.173	3245
873.303	3253
873.432	3195
873.561	3222
873.69	3173
873.819	3108
873.948	3195
874.077	3104
874.206	3055
874.335	3047
874.464	3203
874.593	3336
874.722	3268
874.851	3405
874.979	3348
875.108	3298
875.237	3195
875.365	3157
875.494	3188
875.623	3226
875.751	3039
875.88	3104
876.008	3157
876.136	3195
876.265	3332
876.393	3500
876.521	3401
876.65	3397
876.778	3370
876.906	3272
877.034	3131
877.162	3241
877.29	3199
877.418	3207
877.546	3249
877.674	3203
877.802	3230
877.93	3230
878.058	3135
878.185	3123
878.313	3180
878.441	3184
878.568	3066
878.696	3138
878.824	3241
878.951	3294
879.079	3450
879.206	3584
879.333	3435
879.461	3302
879.588	3359
879.715	3420
879.842	3584
879.97	3359
880.097	3146
880.224	3127
880.351	3146
880.478	3222
880.605	3195
880.732	3199
880.859	3500
880.986	3272
881.112	3291
881.239	3180
881.366	3051
881.493	3009
881.619	3005
881.746	3051
881.872	3077
881.999	3112
882.125	3116
882.252	3233
882.378	3283
882.505	3443
882.631	3306
882.757	3135
882.883	3211
883.01	3192
883.136	3165
883.262	3100
883.388	3108
883.514	3321
883.64	3397
883.766	3272
883.892	3161
884.018	3222
884.143	3420
884.269	3553
884.395	3195
884.52	3146
884.646	3165
884.772	3135
884.897	3104
885.023	3203
885.148	3348
885.274	3351
885.399	3336
885.524	3272
885.65	3218
885.775	3264
885.9	3275
886.025	3424
886.15	3321
886.275	3279
886.4	3211
886.525	3279
886.65	3260
886.775	3264
886.9	3477
887.025	3660
887.149	3405
887.274	3287
887.399	3150
887.523	3180
887.648	3184
887.773	3188
887.897	3370
888.021	3397
888.146	3306
888.27	3416
888.395	3572
888.519	3450
888.643	3409
888.767	3458
888.891	3279
889.015	3253
889.139	3291
889.263	3260
889.387	3416
889.511	3507
889.635	3439
889.759	3279
889.883	3325
890.006	3389
890.13	3496
890.254	3264
890.377	3348
890.501	3188
890.624	3188
890.748	3279
890.871	3180
890.995	3108
891.118	3032
891.241	3214
891.364	3237
891.488	3336
891.611	3184
891.734	3230
891.857	3249
891.98	3245
892.103	3332
892.226	3287
892.349	3241
892.471	3093
892.594	3253
892.717	3302
892.839	3249
892.962	3310
893.085	3344
893.207	3291
893.33	3169
893.452	3222
893.575	3348
893.697	3237
893.819	3481
893.941	3507
894.064	3450
894.186	3245
894.308	3268
894.43	3477
894.552	3549
894.674	3469
894.796	3287
894.918	3294
895.04	3321
895.161	3405
895.283	3367
895.405	3302
895.526	3355
895.648	3435
895.769	3393
895.891	3450
896.012	3443
896.134	3454
896.255	3416
896.376	3386
896.498	3351
896.619	3420
896.74	3344
896.861	3409
896.982	3709
897.103	3838
897.224	3584
897.345	3545
897.466	3424
897.587	3473
897.708	3625
897.828	3561
897.949	3412
898.07	3298
898.19	3420
898.311	3606
898.431	3458
898.552	3523
898.672	3591
898.792	3538
898.913	3519
899.033	3447
899.153	3279
899.273	3188
899.393	3283
899.513	3329
899.633	3329
899.753	3359
899.873	3294
899.993	3351
900.113	3332
900.232	3397
900.352	3317
900.472	3272
900.591	3192
900.711	3245
900.83	3214
900.95	3447
901.069	3454
901.189	3386
901.308	3169
901.427	3123
901.546	3165
901.665	3253
901.784	3344
901.904	3218
902.023	3176
902.141	3047
902.26	2956
902.379	3131
902.498	3081
902.617	3039
902.735	3195
902.854	3207
902.973	3203
903.091	3024
903.21	3043
903.328	3180
903.446	3116
903.565	3089
903.683	3199
903.801	3131
903.919	3272
904.038	3279
904.156	3146
904.274	3264
904.392	3291
904.51	3275
904.627	3355
904.745	3401
904.863	3477
904.981	3245
905.098	3161
905.216	3230
905.334	3294
905.451	3355
905.569	3344
905.686	3424
905.803	3435
905.921	3283
906.038	3428
906.155	3363
906.272	3253
906.389	3344
906.506	3233
906.623	3249
906.74	3245
906.857	3192
906.974	3264
907.091	3462
907.208	3538
907.324	3462
907.441	3378
907.557	3226
907.674	3256
907.79	3199
907.907	3279
908.023	3336
908.139	3405
908.256	3321
908.372	3378
908.488	3382
908.604	3264
908.72	3264
908.836	3279
908.952	3298
909.068	3348
909.184	3477
909.3	3405
909.415	3485
909.531	3466
909.647	3214
909.762	3291
909.878	3256
909.993	3355
910.108	3317
910.224	3374
910.339	3420
910.454	3332
910.57	3363
910.685	3283
910.8	3625
910.915	3553
911.03	3412
911.145	3268
911.259	3268
911.374	3344
911.489	3211
911.604	3253
911.718	3135
911.833	3131
911.947	3009
912.062	2975
912.176	3146
912.291	3173
912.405	3230
912.519	3439
912.633	3466
912.748	3340
912.862	3264
912.976	3161
913.09	3058
913.204	3138
913.318	3222
913.431	3302
913.545	3302
913.659	3401
913.772	3336
913.886	3241
914	3184
914.113	3340
914.226	3397
914.34	3355
914.453	3199
914.566	3412
914.68	3294
914.793	3291
914.906	3165
915.019	3112
915.132	3039
915.245	3176
915.358	3184
915.47	3230
915.583	3237
915.696	3313
915.809	3378
915.921	3389
916.034	3237
916.146	3241
916.259	3218
916.371	3374
916.483	3332
916.595	3260
916.708	3332
916.82	3310
916.932	3294
917.044	3386
917.156	3336
917.268	3272
917.38	3287
917.491	3310
917.603	3359
917.715	3443
917.826	3435
917.938	3405
918.049	3260
918.161	3424
918.272	3599
918.384	3576
918.495	3488
918.606	3321
918.717	3260
918.828	3367
918.939	3405
919.05	3306
919.161	3367
919.272	3157
919.383	3275
919.494	3507
919.604	3713
919.715	3458
919.826	3412
919.936	3488
920.047	3584
920.157	3534
920.267	3774
920.378	3614
920.488	3557
920.598	3755
920.708	3945
920.818	3831
920.928	3831
921.038	3998
921.148	4002
921.258	3701
921.368	3675
921.477	3564
921.587	3538
921.697	3447
921.806	3641
921.916	3515
922.025	3340
922.134	3363
922.244	3298
922.353	3420
922.462	3268
922.571	3226
922.68	3081
922.789	3104
922.898	3138
923.007	3100
923.116	3195
923.224	3150
923.333	3192
923.442	3116
923.55	3108
923.659	3138
923.767	3192
923.876	3157
923.984	3256
924.092	3108
924.201	3180
924.309	3207
924.417	3260
924.525	3150
924.633	3222
924.741	4207
924.849	3077
924.956	3249
925.064	3093
925.172	3028
925.279	3112
925.387	3157
925.494	3180
925.602	3363
925.709	3336
925.816	3188
925.924	3249
926.031	3386
926.138	3321
926.245	3351
926.352	3237
926.459	3378
926.566	3447
926.673	3325
926.779	3275
926.886	3218
926.993	3150
927.099	3135
927.206	3108
927.312	3146
927.419	3222
927.525	3211
927.631	3264
927.737	3138
927.843	3127
927.95	3032
928.056	3112
928.162	3207
928.267	3237
928.373	3766
928.479	3279
928.585	3093
928.69	3245
928.796	3249
928.901	3112
929.007	3043
929.112	3192
929.218	3192
929.323	3123
929.428	3161
929.533	3294
929.638	3100
929.743	3180
929.848	3275
929.953	3199
930.058	3138
930.163	3047
930.267	3017
930.372	3207
930.477	3047
930.581	3260
930.685	3157
930.79	3039
930.894	3108
930.998	3055
931.103	3237
931.207	2960
931.311	2944
931.415	2937
931.519	2773
931.623	2807
