Data from test_V78500241_617.txt Node
Date: Fri Mar 25 16:19:28 CST 2022
User: usil
Spectrometer: V785-0024
Trigger mode: 0
Integration Time (sec): 4.000000E-1
Scans to average: 1
Nonlinearity correction enabled: false
Boxcar width: 0
Storing dark spectrum: false
XAxis mode: Wavelengths
Number of Pixels in Spectrum: 1024
>>>>>Begin Spectral Data<<<<<
801.071	2883
801.214	2960
801.356	2861
801.499	2891
801.641	2883
801.783	2906
801.926	3055
802.068	2944
802.211	3032
802.353	3039
802.496	2910
802.638	3009
802.78	3024
802.923	3097
803.065	3017
803.208	2910
803.35	2902
803.492	2944
803.635	2922
803.777	2788
803.919	2849
804.061	3199
804.204	2925
804.346	2902
804.488	2845
804.63	3024
804.773	2902
804.915	2933
805.057	3081
805.199	2918
805.341	2971
805.483	3009
805.626	3013
805.768	2956
805.91	3093
806.052	3138
806.194	3028
806.336	3230
806.478	3009
806.62	2975
806.762	2986
806.904	3032
807.046	3188
807.188	3013
807.33	2941
807.472	2982
807.614	2876
807.756	2960
807.898	2933
808.04	2891
808.182	2967
808.324	2952
808.465	2834
808.607	2891
808.749	2769
808.891	2842
809.033	2963
809.174	2933
809.316	2872
809.458	2876
809.6	2788
809.741	2743
809.883	2720
810.025	2838
810.166	2883
810.308	2842
810.45	2880
810.591	2750
810.733	2807
810.875	2826
811.016	2773
811.158	2781
811.299	2815
811.441	2895
811.582	2883
811.724	2849
811.865	2849
812.007	2895
812.148	2872
812.29	2880
812.431	2891
812.573	2918
812.714	2937
812.855	3028
812.997	3032
813.138	3104
813.279	3013
813.421	2994
813.562	2963
813.703	2861
813.845	2857
813.986	2785
814.127	2746
814.268	2800
814.41	2838
814.551	2811
814.692	2857
814.833	2807
814.974	2883
815.115	2941
815.256	2811
815.397	2815
815.539	2861
815.68	2807
815.821	2807
815.962	2952
816.103	2960
816.244	2872
816.385	2876
816.526	2975
816.666	2918
816.807	2762
816.948	2826
817.089	2929
817.23	2895
817.371	2807
817.512	2792
817.653	2830
817.793	2792
817.934	2899
818.075	2975
818.216	2998
818.356	3024
818.497	2864
818.638	2800
818.778	2849
818.919	2773
819.06	2743
819.2	2887
819.341	2819
819.481	2804
819.622	2944
819.762	3070
819.903	3028
820.043	2891
820.184	2906
820.324	2887
820.465	3047
820.605	2994
820.746	2998
820.886	2956
821.026	3089
821.167	3154
821.307	3237
821.447	3245
821.588	3233
821.728	3192
821.868	3176
822.008	3070
822.149	3222
822.289	3222
822.429	3055
822.569	3058
822.709	3142
822.849	3047
822.99	3070
823.13	3150
823.27	3207
823.41	3112
823.55	3142
823.69	3161
823.83	3226
823.97	3051
824.11	3032
824.25	2994
824.389	3043
824.529	3097
824.669	3074
824.809	3184
824.949	3241
825.089	3214
825.228	3180
825.368	2952
825.508	2990
825.648	2982
825.787	3001
825.927	2956
826.067	2963
826.206	2971
826.346	3028
826.485	3058
826.625	3135
826.765	3283
826.904	3195
827.044	2982
827.183	2944
827.323	2842
827.462	2975
827.601	2933
827.741	2895
827.88	2944
828.02	2796
828.159	2944
828.298	3051
828.437	3085
828.577	3032
828.716	3256
828.855	3051
828.994	2914
829.134	2876
829.273	2922
829.412	2849
829.551	2819
829.69	2895
829.829	2967
829.968	3074
830.107	3009
830.246	3017
830.385	2899
830.524	2880
830.663	2811
830.802	2727
830.941	2625
831.08	2651
831.219	2762
831.357	2758
831.496	2948
831.635	2746
831.774	2659
831.913	2640
832.051	2541
832.19	2594
832.329	2667
832.467	2533
832.606	2465
832.744	2598
832.883	2583
833.022	2560
833.16	2644
833.299	2689
833.437	2701
833.576	2682
833.714	2674
833.852	2716
833.991	2758
834.129	2842
834.267	2823
834.406	2804
834.544	2849
834.682	2842
834.821	2872
834.959	3070
835.097	2891
835.235	3055
835.373	2986
835.511	3036
835.65	2944
835.788	2925
835.926	2792
836.064	2815
836.202	2823
836.34	3077
836.478	3184
836.615	3070
836.753	3157
836.891	3207
837.029	3146
837.167	3066
837.305	3036
837.443	3036
837.58	2979
837.718	3146
837.856	3074
837.993	3051
838.131	3093
838.269	3123
838.406	3085
838.544	3070
838.681	2906
838.819	2872
838.956	2815
839.094	2842
839.231	2933
839.369	3047
839.506	3359
839.643	3188
839.781	3028
839.918	2948
840.055	3039
840.193	3005
840.33	3062
840.467	3100
840.604	3112
840.742	3382
840.879	3055
841.016	3066
841.153	3100
841.29	3321
841.427	3298
841.564	3237
841.701	3329
841.838	3218
841.975	3169
842.112	3222
842.249	3058
842.385	3055
842.522	3195
842.659	3100
842.796	3047
842.933	3077
843.069	3047
843.206	3058
843.343	3169
843.479	3070
843.616	3116
843.752	2876
843.889	2838
844.025	3077
844.162	2849
844.298	3077
844.435	2948
844.571	2914
844.708	3032
844.844	3173
844.98	3222
845.117	3184
845.253	3051
845.389	3017
845.525	3093
845.661	3119
845.798	2982
845.934	3119
846.07	3013
846.206	3233
846.342	3325
846.478	3249
846.614	3081
846.75	3051
846.886	3077
847.022	3226
847.158	3138
847.294	3199
847.429	3264
847.565	3188
847.701	3469
847.837	3024
847.972	2998
848.108	3146
848.244	3131
848.379	2994
848.515	2914
848.65	2929
848.786	2963
848.921	2994
849.057	3074
849.192	3154
849.328	3058
849.463	3093
849.598	3070
849.734	3028
849.869	3009
850.004	2933
850.14	2941
850.275	2902
850.41	2845
850.545	2849
850.68	2937
850.815	2929
850.95	2982
851.085	3203
851.22	3119
851.355	3024
851.49	2963
851.625	2994
851.76	3005
851.895	2906
852.03	2899
852.165	3009
852.299	3119
852.434	3176
852.569	3119
852.703	3176
852.838	3233
852.973	3310
853.107	3317
853.242	3142
853.376	3058
853.511	3024
853.645	3051
853.78	3260
853.914	3077
854.048	3108
854.183	3070
854.317	3131
854.451	3279
854.585	3104
854.72	3081
854.854	3222
854.988	3058
855.122	3081
855.256	2960
855.39	3093
855.524	3233
855.658	3184
855.792	3195
855.926	3169
856.06	3241
856.194	3226
856.327	3169
856.461	3077
856.595	3058
856.729	3077
856.862	3199
856.996	3169
857.13	3207
857.263	3214
857.397	3233
857.53	3131
857.664	3188
857.797	3214
857.931	3230
858.064	3188
858.197	3233
858.331	3157
858.464	3039
858.597	2982
858.731	3135
858.864	3093
858.997	3062
859.13	3154
859.263	3192
859.396	3226
859.529	3119
859.662	3024
859.795	3039
859.928	3142
860.061	3287
860.194	3302
860.327	3161
860.46	3093
860.592	3226
860.725	3222
860.858	3230
860.99	3070
861.123	3047
861.256	3062
861.388	3104
861.521	3686
861.653	3017
861.786	2975
861.918	2994
862.05	3055
862.183	3055
862.315	3154
862.447	3192
862.58	3081
862.712	2906
862.844	2883
862.976	3047
863.108	2986
863.24	3389
863.372	2922
863.504	2941
863.636	2910
863.768	3028
863.9	2982
864.032	2902
864.164	2910
864.296	3009
864.428	3097
864.559	3119
864.691	3135
864.823	3036
864.954	3074
865.086	3032
865.217	2963
865.349	2933
865.48	2963
865.612	3039
865.743	3169
865.875	3001
866.006	2929
866.137	2944
866.269	2937
866.4	2948
866.531	2918
866.662	2883
866.793	2887
866.924	2933
867.055	3001
867.186	2933
867.317	2861
867.448	2834
867.579	2792
867.71	2807
867.841	2823
867.972	2895
868.103	2910
868.233	2872
868.364	2842
868.495	2895
868.625	3093
868.756	3176
868.886	2948
869.017	3017
869.147	3123
869.278	3135
869.408	3009
869.539	3024
869.669	3093
869.799	3017
869.929	3131
870.06	3074
870.19	3393
870.32	3294
870.45	3264
870.58	3363
870.71	3443
870.84	3466
870.97	3291
871.1	3233
871.23	3469
871.36	3416
871.489	3329
871.619	3397
871.749	3397
871.879	3435
872.008	3450
872.138	3374
872.267	3260
872.397	3161
872.526	3135
872.656	3028
872.785	3066
872.915	3241
873.044	3291
873.173	3218
873.303	3241
873.432	3203
873.561	3203
873.69	3180
873.819	3135
873.948	3165
874.077	3097
874.206	3020
874.335	3070
874.464	3169
874.593	3279
874.722	3226
874.851	3359
874.979	3351
875.108	3302
875.237	3192
875.365	3146
875.494	3169
875.623	3203
875.751	3055
875.88	3062
876.008	3203
876.136	3195
876.265	3374
876.393	3496
876.521	3386
876.65	3389
876.778	3310
876.906	3218
877.034	3199
877.162	3214
877.29	3218
877.418	3237
877.546	3245
877.674	3268
877.802	3230
877.93	3214
878.058	3135
878.185	3085
878.313	3195
878.441	3211
878.568	3081
878.696	3188
878.824	3226
878.951	3313
879.079	3481
879.206	3614
879.333	3431
879.461	3317
879.588	3351
879.715	3496
879.842	3549
879.97	3355
880.097	3169
880.224	3112
880.351	3165
880.478	3218
880.605	3184
880.732	3199
880.859	3485
880.986	3275
881.112	3329
881.239	3211
881.366	3127
881.493	3020
881.619	3009
881.746	3104
881.872	3093
881.999	3116
882.125	3123
882.252	3245
882.378	3287
882.505	3435
882.631	3313
882.757	3173
882.883	3192
883.01	3195
883.136	3176
883.262	3104
883.388	3142
883.514	3283
883.64	3401
883.766	3279
883.892	3173
884.018	3272
884.143	3443
884.269	3507
884.395	3199
884.52	3146
884.646	3127
884.772	3104
884.897	3089
885.023	3192
885.148	3321
885.274	3431
885.399	3412
885.524	3245
885.65	3253
885.775	3310
885.9	3264
886.025	3409
886.15	3332
886.275	3317
886.4	3211
886.525	3336
886.65	3245
886.775	3283
886.9	3447
887.025	3648
887.149	3363
887.274	3279
887.399	3165
887.523	3207
887.648	3184
887.773	3176
887.897	3344
888.021	3382
888.146	3275
888.27	3405
888.395	3599
888.519	3454
888.643	3435
888.767	3443
888.891	3348
889.015	3249
889.139	3287
889.263	3207
889.387	3367
889.511	3538
889.635	3439
889.759	3260
889.883	3256
890.006	3397
890.13	3485
890.254	3291
890.377	3313
890.501	3173
890.624	3173
890.748	3317
890.871	3192
890.995	3131
891.118	3131
891.241	3211
891.364	3226
891.488	3283
891.611	3138
891.734	3230
891.857	3313
891.98	3249
892.103	3332
892.226	3298
892.349	3253
892.471	3138
892.594	3256
892.717	3302
892.839	3245
892.962	3294
893.085	3370
893.207	3298
893.33	3138
893.452	3211
893.575	3321
893.697	3275
893.819	3439
893.941	3473
894.064	3439
894.186	3253
894.308	3241
894.43	3435
894.552	3511
894.674	3458
894.796	3241
894.918	3325
895.04	3332
895.161	3389
895.283	3397
895.405	3275
895.526	3355
895.648	3431
895.769	3458
895.891	3431
896.012	3454
896.134	3473
896.255	3386
896.376	3359
896.498	3386
896.619	3431
896.74	3412
896.861	3378
896.982	3679
897.103	3850
897.224	3557
897.345	3477
897.466	3416
897.587	3447
897.708	3610
897.828	3553
897.949	3439
898.07	3344
898.19	3378
898.311	3614
898.431	3420
898.552	3473
898.672	3564
898.792	3561
898.913	3542
899.033	3351
899.153	3287
899.273	3207
899.393	3291
899.513	3332
899.633	3313
899.753	3344
899.873	3306
899.993	3393
900.113	3355
900.232	3355
900.352	3321
900.472	3279
900.591	3237
900.711	3264
900.83	3230
900.95	3431
901.069	3507
901.189	3332
901.308	3131
901.427	3142
901.546	3188
901.665	3302
901.784	3306
901.904	3157
902.023	3176
902.141	2998
902.26	2998
902.379	3138
902.498	3093
902.617	3028
902.735	3214
902.854	3214
902.973	3157
903.091	3020
903.21	3089
903.328	3119
903.446	3100
903.565	3104
903.683	3214
903.801	3085
903.919	3245
904.038	3253
904.156	3165
904.274	3283
904.392	3253
904.51	3264
904.627	3302
904.745	3393
904.863	3462
904.981	3275
905.098	3184
905.216	3241
905.334	3283
905.451	3332
905.569	3283
905.686	3439
905.803	3447
905.921	3302
906.038	3374
906.155	3336
906.272	3268
906.389	3336
906.506	3211
906.623	3272
906.74	3245
906.857	3169
906.974	3264
907.091	3454
907.208	3576
907.324	3485
907.441	3389
907.557	3241
907.674	3218
907.79	3207
907.907	3302
908.023	3393
908.139	3370
908.256	3336
908.372	3401
908.488	3344
908.604	3241
908.72	3188
908.836	3256
908.952	3268
909.068	3329
909.184	3488
909.3	3405
909.415	3504
909.531	3466
909.647	3253
909.762	3260
909.878	3264
909.993	3340
910.108	3329
910.224	3363
910.339	3405
910.454	3313
910.57	3253
910.685	3245
910.8	3584
910.915	3500
911.03	3431
911.145	3279
911.259	3294
911.374	3310
911.489	3233
911.604	3230
911.718	3104
911.833	3173
911.947	3043
912.062	2971
912.176	3180
912.291	3214
912.405	3199
912.519	3420
912.633	3488
912.748	3325
912.862	3241
912.976	3154
913.09	3070
913.204	3116
913.318	3203
913.431	3302
913.545	3332
913.659	3393
913.772	3329
913.886	3230
914	3180
914.113	3382
914.226	3431
914.34	3416
914.453	3222
914.566	3431
914.68	3294
914.793	3302
914.906	3123
915.019	3112
915.132	3017
915.245	3180
915.358	3203
915.47	3226
915.583	3241
915.696	3298
915.809	3401
915.921	3435
916.034	3264
916.146	3256
916.259	3207
916.371	3359
916.483	3370
916.595	3245
916.708	3321
916.82	3336
916.932	3367
917.044	3336
917.156	3340
917.268	3253
917.38	3287
917.491	3310
917.603	3355
917.715	3481
917.826	3450
917.938	3351
918.049	3256
918.161	3382
918.272	3595
918.384	3572
918.495	3454
918.606	3306
918.717	3245
918.828	3370
918.939	3416
919.05	3325
919.161	3344
919.272	3192
919.383	3275
919.494	3485
919.604	3671
919.715	3504
919.826	3409
919.936	3492
920.047	3614
920.157	3553
920.267	3743
920.378	3568
920.488	3542
920.598	3816
920.708	3960
920.818	3797
920.928	3835
921.038	3991
921.148	3983
921.258	3701
921.368	3660
921.477	3576
921.587	3538
921.697	3485
921.806	3641
921.916	3519
922.025	3359
922.134	3374
922.244	3279
922.353	3462
922.462	3268
922.571	3233
922.68	3127
922.789	3077
922.898	3127
923.007	3142
923.116	3180
923.224	3157
923.333	3195
923.442	3112
923.55	3085
923.659	3127
923.767	3154
923.876	3138
923.984	3241
924.092	3116
924.201	3218
924.309	3241
924.417	3218
924.525	3214
924.633	3222
924.741	3964
924.849	3020
924.956	3260
925.064	3093
925.172	3001
925.279	3089
925.387	3184
925.494	3211
925.602	3367
925.709	3340
925.816	3184
925.924	3275
926.031	3378
926.138	3317
926.245	3359
926.352	3233
926.459	3447
926.566	3492
926.673	3344
926.779	3222
926.886	3245
926.993	3161
927.099	3135
927.206	3108
927.312	3089
927.419	3180
927.525	3199
927.631	3260
927.737	3146
927.843	3108
927.95	3051
928.056	3176
928.162	3165
928.267	3218
928.373	3789
928.479	3279
928.585	3089
928.69	3230
928.796	3237
928.901	3157
929.007	3051
929.112	3214
929.218	3157
929.323	3138
929.428	3165
929.533	3344
929.638	3123
929.743	3154
929.848	3214
929.953	3222
930.058	3135
930.163	2963
930.267	3043
930.372	3287
930.477	3028
930.581	3344
930.685	3146
930.79	3036
930.894	3123
930.998	3077
931.103	3302
931.207	2941
931.311	2963
931.415	2925
931.519	2705
931.623	2826
