Data from test_V78500241_1486.txt Node
Date: Fri Mar 25 16:25:29 CST 2022
User: usil
Spectrometer: V785-0024
Trigger mode: 0
Integration Time (sec): 4.000000E-1
Scans to average: 1
Nonlinearity correction enabled: false
Boxcar width: 0
Storing dark spectrum: false
XAxis mode: Wavelengths
Number of Pixels in Spectrum: 1024
>>>>>Begin Spectral Data<<<<<
801.071	2902
801.214	2925
801.356	2895
801.499	2887
801.641	2899
801.783	2914
801.926	3062
802.068	2944
802.211	2975
802.353	2971
802.496	2960
802.638	3036
802.78	3055
802.923	3051
803.065	3024
803.208	2861
803.35	2944
803.492	2941
803.635	2941
803.777	2762
803.919	2868
804.061	3214
804.204	2960
804.346	2895
804.488	2815
804.63	3001
804.773	2887
804.915	2937
805.057	3100
805.199	2918
805.341	2979
805.483	3036
805.626	3028
805.768	2937
805.91	3093
806.052	3119
806.194	3047
806.336	3195
806.478	3017
806.62	2944
806.762	2952
806.904	3039
807.046	3169
807.188	2994
807.33	2944
807.472	2994
807.614	2876
807.756	3001
807.898	2918
808.04	2861
808.182	2960
808.324	2948
808.465	2883
808.607	2864
808.749	2800
808.891	2826
809.033	3005
809.174	2967
809.316	2887
809.458	2868
809.6	2766
809.741	2769
809.883	2746
810.025	2845
810.166	2830
810.308	2834
810.45	2792
810.591	2800
810.733	2735
810.875	2853
811.016	2769
811.158	2769
811.299	2819
811.441	2960
811.582	2922
811.724	2834
811.865	2823
812.007	2887
812.148	2853
812.29	2834
812.431	2880
812.573	2956
812.714	2960
812.855	3066
812.997	3028
813.138	3108
813.279	3017
813.421	2990
813.562	2963
813.703	2895
813.845	2895
813.986	2773
814.127	2754
814.268	2834
814.41	2826
814.551	2796
814.692	2868
814.833	2834
814.974	2902
815.115	2952
815.256	2815
815.397	2773
815.539	2876
815.68	2758
815.821	2800
815.962	2956
816.103	2941
816.244	2864
816.385	2902
816.526	2975
816.666	2906
816.807	2727
816.948	2876
817.089	2918
817.23	2857
817.371	2769
817.512	2804
817.653	2826
817.793	2853
817.934	2899
818.075	2944
818.216	2956
818.356	3020
818.497	2887
818.638	2785
818.778	2788
818.919	2804
819.06	2750
819.2	2887
819.341	2819
819.481	2804
819.622	2910
819.762	3100
819.903	3062
820.043	2929
820.184	2868
820.324	2876
820.465	3028
820.605	3024
820.746	3039
820.886	2910
821.026	3108
821.167	3100
821.307	3264
821.447	3283
821.588	3218
821.728	3192
821.868	3195
822.008	3074
822.149	3150
822.289	3195
822.429	3112
822.569	3058
822.709	3176
822.849	3017
822.99	3043
823.13	3142
823.27	3199
823.41	3081
823.55	3176
823.69	3146
823.83	3176
823.97	3093
824.11	2998
824.25	2952
824.389	3047
824.529	3066
824.669	3089
824.809	3180
824.949	3253
825.089	3214
825.228	3169
825.368	2960
825.508	2952
825.648	2982
825.787	2948
825.927	2986
826.067	2948
826.206	2948
826.346	3036
826.485	3100
826.625	3146
826.765	3241
826.904	3169
827.044	2990
827.183	2937
827.323	2883
827.462	3017
827.601	2941
827.741	2944
827.88	2876
828.02	2861
828.159	2979
828.298	3058
828.437	3081
828.577	3024
828.716	3241
828.855	3108
828.994	2887
829.134	2906
829.273	2922
829.412	2872
829.551	2845
829.69	2891
829.829	2941
829.968	3108
830.107	3032
830.246	3024
830.385	2910
830.524	2933
830.663	2857
830.802	2689
830.941	2651
831.08	2613
831.219	2743
831.357	2743
831.496	2963
831.635	2708
831.774	2640
831.913	2648
832.051	2556
832.19	2571
832.329	2670
832.467	2537
832.606	2488
832.744	2552
832.883	2594
833.022	2579
833.16	2648
833.299	2674
833.437	2701
833.576	2689
833.714	2708
833.852	2727
833.991	2758
834.129	2845
834.267	2823
834.406	2781
834.544	2872
834.682	2883
834.821	2845
834.959	3036
835.097	2891
835.235	3066
835.373	2948
835.511	3039
835.65	2960
835.788	2929
835.926	2823
836.064	2804
836.202	2823
836.34	3116
836.478	3127
836.615	3028
836.753	3127
836.891	3218
837.029	3154
837.167	3104
837.305	3081
837.443	3039
837.58	2998
837.718	3131
837.856	3070
837.993	3005
838.131	3097
838.269	3119
838.406	3081
838.544	3066
838.681	2952
838.819	2922
838.956	2796
839.094	2804
839.231	2925
839.369	3005
839.506	3348
839.643	3241
839.781	3001
839.918	2979
840.055	3028
840.193	3017
840.33	3077
840.467	3119
840.604	3169
840.742	3393
840.879	3043
841.016	3028
841.153	3119
841.29	3332
841.427	3291
841.564	3245
841.701	3317
841.838	3230
841.975	3127
842.112	3233
842.249	3058
842.385	3039
842.522	3253
842.659	3100
842.796	3066
842.933	3116
843.069	3032
843.206	3043
843.343	3184
843.479	3070
843.616	3123
843.752	2864
843.889	2887
844.025	3089
844.162	2899
844.298	3089
844.435	2929
844.571	2956
844.708	3058
844.844	3214
844.98	3230
845.117	3173
845.253	3036
845.389	2971
845.525	3089
845.661	3093
845.798	3020
845.934	3097
846.07	3070
846.206	3188
846.342	3325
846.478	3249
846.614	3074
846.75	3055
846.886	3020
847.022	3253
847.158	3165
847.294	3199
847.429	3230
847.565	3169
847.701	3504
847.837	3051
847.972	2979
848.108	3157
848.244	3161
848.379	3001
848.515	2922
848.65	2948
848.786	2963
848.921	3005
849.057	3100
849.192	3116
849.328	3047
849.463	3081
849.598	3077
849.734	3028
849.869	2982
850.004	2910
850.14	2979
850.275	2914
850.41	2845
850.545	2922
850.68	2902
850.815	2956
850.95	2960
851.085	3176
851.22	3093
851.355	2998
851.49	2960
851.625	3001
851.76	3005
851.895	2941
852.03	2861
852.165	3013
852.299	3104
852.434	3184
852.569	3127
852.703	3135
852.838	3230
852.973	3332
853.107	3317
853.242	3138
853.376	3100
853.511	2967
853.645	3020
853.78	3249
853.914	3104
854.048	3093
854.183	3085
854.317	3127
854.451	3241
854.585	3097
854.72	3093
854.854	3188
854.988	3039
855.122	3123
855.256	2967
855.39	3097
855.524	3226
855.658	3169
855.792	3154
855.926	3154
856.06	3249
856.194	3199
856.327	3093
856.461	3058
856.595	3062
856.729	3116
856.862	3211
856.996	3119
857.13	3180
857.263	3237
857.397	3291
857.53	3112
857.664	3165
857.797	3241
857.931	3279
858.064	3173
858.197	3233
858.331	3154
858.464	3070
858.597	2979
858.731	3135
858.864	3169
858.997	3093
859.13	3154
859.263	3207
859.396	3195
859.529	3074
859.662	3051
859.795	3058
859.928	3108
860.061	3298
860.194	3241
860.327	3169
860.46	3089
860.592	3241
860.725	3283
860.858	3249
860.99	3074
861.123	3017
861.256	3039
861.388	3165
861.521	3850
861.653	3017
861.786	3005
861.918	2990
862.05	3100
862.183	3077
862.315	3142
862.447	3218
862.58	3089
862.712	2948
862.844	2842
862.976	2986
863.108	2979
863.24	3302
863.372	2883
863.504	2967
863.636	2963
863.768	2994
863.9	2960
864.032	2910
864.164	2941
864.296	3013
864.428	3070
864.559	3058
864.691	3066
864.823	3074
864.954	3055
865.086	3013
865.217	2979
865.349	2956
865.48	2982
865.612	2956
865.743	3150
865.875	2967
866.006	2960
866.137	2948
866.269	2929
866.4	2941
866.531	2918
866.662	2922
866.793	2891
866.924	2868
867.055	2975
867.186	2906
867.317	2880
867.448	2811
867.579	2838
867.71	2834
867.841	2845
867.972	2899
868.103	2868
868.233	2891
868.364	2872
868.495	2906
868.625	3089
868.756	3169
868.886	2944
869.017	3009
869.147	3142
869.278	3150
869.408	3043
869.539	3043
869.669	3085
869.799	3028
869.929	3154
870.06	3119
870.19	3310
870.32	3241
870.45	3302
870.58	3393
870.71	3412
870.84	3477
870.97	3298
871.1	3268
871.23	3492
871.36	3443
871.489	3329
871.619	3412
871.749	3382
871.879	3428
872.008	3496
872.138	3340
872.267	3275
872.397	3138
872.526	3097
872.656	3020
872.785	3138
872.915	3237
873.044	3310
873.173	3214
873.303	3226
873.432	3218
873.561	3237
873.69	3180
873.819	3131
873.948	3176
874.077	3089
874.206	3043
874.335	3085
874.464	3195
874.593	3310
874.722	3226
874.851	3382
874.979	3351
875.108	3332
875.237	3203
875.365	3192
875.494	3180
875.623	3260
875.751	3097
875.88	3081
876.008	3188
876.136	3207
876.265	3397
876.393	3466
876.521	3428
876.65	3382
876.778	3389
876.906	3249
877.034	3150
877.162	3279
877.29	3180
877.418	3245
877.546	3218
877.674	3253
877.802	3226
877.93	3230
878.058	3138
878.185	3074
878.313	3226
878.441	3203
878.568	3085
878.696	3146
878.824	3249
878.951	3302
879.079	3416
879.206	3564
879.333	3412
879.461	3340
879.588	3348
879.715	3488
879.842	3584
879.97	3386
880.097	3146
880.224	3108
880.351	3195
880.478	3207
880.605	3180
880.732	3192
880.859	3458
880.986	3298
881.112	3348
881.239	3222
881.366	3081
881.493	3009
881.619	3020
881.746	3058
881.872	3058
881.999	3108
882.125	3119
882.252	3173
882.378	3291
882.505	3420
882.631	3287
882.757	3157
882.883	3211
883.01	3211
883.136	3176
883.262	3131
883.388	3116
883.514	3298
883.64	3386
883.766	3294
883.892	3176
884.018	3260
884.143	3389
884.269	3511
884.395	3184
884.52	3195
884.646	3161
884.772	3112
884.897	3093
885.023	3161
885.148	3321
885.274	3416
885.399	3325
885.524	3275
885.65	3233
885.775	3325
885.9	3237
886.025	3397
886.15	3393
886.275	3302
886.4	3253
886.525	3306
886.65	3275
886.775	3294
886.9	3488
887.025	3633
887.149	3393
887.274	3230
887.399	3192
887.523	3184
887.648	3192
887.773	3188
887.897	3344
888.021	3416
888.146	3298
888.27	3439
888.395	3576
888.519	3439
888.643	3439
888.767	3439
888.891	3363
889.015	3260
889.139	3264
889.263	3237
889.387	3405
889.511	3526
889.635	3367
889.759	3313
889.883	3306
890.006	3401
890.13	3492
890.254	3291
890.377	3332
890.501	3245
890.624	3188
890.748	3256
890.871	3157
890.995	3085
891.118	3074
891.241	3180
891.364	3218
891.488	3329
891.611	3176
891.734	3192
891.857	3294
891.98	3199
892.103	3298
892.226	3298
892.349	3222
892.471	3135
892.594	3256
892.717	3313
892.839	3272
892.962	3275
893.085	3374
893.207	3298
893.33	3165
893.452	3180
893.575	3329
893.697	3230
893.819	3469
893.941	3462
894.064	3431
894.186	3272
894.308	3279
894.43	3393
894.552	3500
894.674	3504
894.796	3237
894.918	3310
895.04	3256
895.161	3424
895.283	3340
895.405	3313
895.526	3363
895.648	3412
895.769	3424
895.891	3428
896.012	3496
896.134	3466
896.255	3386
896.376	3389
896.498	3348
896.619	3416
896.74	3348
896.861	3355
896.982	3675
897.103	3835
897.224	3610
897.345	3481
897.466	3431
897.587	3458
897.708	3641
897.828	3534
897.949	3462
898.07	3344
898.19	3389
898.311	3610
898.431	3405
898.552	3534
898.672	3603
898.792	3561
898.913	3500
899.033	3397
899.153	3287
899.273	3211
899.393	3222
899.513	3298
899.633	3291
899.753	3340
899.873	3329
899.993	3351
900.113	3317
900.232	3420
900.352	3363
900.472	3298
900.591	3192
900.711	3272
900.83	3222
900.95	3397
901.069	3481
901.189	3336
901.308	3169
901.427	3142
901.546	3195
901.665	3287
901.784	3310
901.904	3211
902.023	3100
902.141	3028
902.26	2998
902.379	3150
902.498	3058
902.617	3062
902.735	3214
902.854	3230
902.973	3207
903.091	3028
903.21	3055
903.328	3131
903.446	3089
903.565	3097
903.683	3157
903.801	3146
903.919	3233
904.038	3260
904.156	3169
904.274	3256
904.392	3218
904.51	3279
904.627	3332
904.745	3454
904.863	3519
904.981	3253
905.098	3180
905.216	3203
905.334	3272
905.451	3325
905.569	3317
905.686	3412
905.803	3435
905.921	3302
906.038	3424
906.155	3340
906.272	3226
906.389	3321
906.506	3230
906.623	3275
906.74	3256
906.857	3214
906.974	3237
907.091	3447
907.208	3549
907.324	3454
907.441	3405
907.557	3214
907.674	3211
907.79	3230
907.907	3260
908.023	3363
908.139	3393
908.256	3332
908.372	3389
908.488	3367
908.604	3249
908.72	3230
908.836	3272
908.952	3275
909.068	3351
909.184	3511
909.3	3374
909.415	3500
909.531	3481
909.647	3237
909.762	3268
909.878	3279
909.993	3363
910.108	3351
910.224	3363
910.339	3466
910.454	3363
910.57	3283
910.685	3249
910.8	3580
910.915	3504
911.03	3458
911.145	3272
911.259	3298
911.374	3302
911.489	3249
911.604	3260
911.718	3093
911.833	3161
911.947	3036
912.062	2994
912.176	3184
912.291	3173
912.405	3199
912.519	3409
912.633	3485
912.748	3325
912.862	3306
912.976	3154
913.09	3055
913.204	3116
913.318	3233
913.431	3348
913.545	3359
913.659	3412
913.772	3317
913.886	3275
914	3199
914.113	3351
914.226	3416
914.34	3367
914.453	3207
914.566	3405
914.68	3325
914.793	3344
914.906	3173
915.019	3104
915.132	3043
915.245	3176
915.358	3237
915.47	3211
915.583	3298
915.696	3283
915.809	3405
915.921	3424
916.034	3211
916.146	3245
916.259	3256
916.371	3367
916.483	3355
916.595	3306
916.708	3329
916.82	3298
916.932	3317
917.044	3348
917.156	3329
917.268	3253
917.38	3279
917.491	3279
917.603	3374
917.715	3450
917.826	3454
917.938	3409
918.049	3287
918.161	3443
918.272	3534
918.384	3587
918.495	3507
918.606	3329
918.717	3272
918.828	3409
918.939	3439
919.05	3275
919.161	3382
919.272	3146
919.383	3260
919.494	3496
919.604	3648
919.715	3488
919.826	3439
919.936	3447
920.047	3557
920.157	3530
920.267	3747
920.378	3614
920.488	3584
920.598	3747
920.708	3964
920.818	3831
920.928	3850
921.038	3975
921.148	4025
921.258	3663
921.368	3614
921.477	3561
921.587	3526
921.697	3477
921.806	3618
921.916	3519
922.025	3317
922.134	3370
922.244	3302
922.353	3443
922.462	3211
922.571	3188
922.68	3131
922.789	3077
922.898	3104
923.007	3097
923.116	3203
923.224	3146
923.333	3176
923.442	3104
923.55	3131
923.659	3131
923.767	3211
923.876	3112
923.984	3245
924.092	3074
924.201	3211
924.309	3214
924.417	3291
924.525	3184
924.633	3211
924.741	4185
924.849	3066
924.956	3245
925.064	3127
925.172	3039
925.279	3116
925.387	3176
925.494	3184
925.602	3370
925.709	3317
925.816	3211
925.924	3275
926.031	3378
926.138	3336
926.245	3393
926.352	3256
926.459	3462
926.566	3447
926.673	3317
926.779	3245
926.886	3275
926.993	3135
927.099	3135
927.206	3085
927.312	3104
927.419	3199
927.525	3211
927.631	3253
927.737	3142
927.843	3119
927.95	3058
928.056	3112
928.162	3176
928.267	3218
928.373	3793
928.479	3344
928.585	3085
928.69	3230
928.796	3260
928.901	3188
929.007	3036
929.112	3214
929.218	3176
929.323	3119
929.428	3154
929.533	3298
929.638	3131
929.743	3150
929.848	3256
929.953	3203
930.058	3138
930.163	3013
930.267	3058
930.372	3188
930.477	3077
930.581	3321
930.685	3173
930.79	3077
930.894	3176
930.998	3062
931.103	3291
931.207	2952
931.311	2941
931.415	2880
931.519	2762
931.623	2811
