Data from test_V78500241_498.txt Node
Date: Fri Mar 25 16:18:39 CST 2022
User: usil
Spectrometer: V785-0024
Trigger mode: 0
Integration Time (sec): 4.000000E-1
Scans to average: 1
Nonlinearity correction enabled: false
Boxcar width: 0
Storing dark spectrum: false
XAxis mode: Wavelengths
Number of Pixels in Spectrum: 1024
>>>>>Begin Spectral Data<<<<<
801.071	2929
801.214	2937
801.356	2864
801.499	2883
801.641	2883
801.783	2975
801.926	3024
802.068	2929
802.211	3013
802.353	3043
802.496	2918
802.638	3009
802.78	3062
802.923	3097
803.065	3017
803.208	2914
803.35	2876
803.492	2937
803.635	2929
803.777	2743
803.919	2857
804.061	3192
804.204	2937
804.346	2861
804.488	2857
804.63	2941
804.773	2861
804.915	2906
805.057	3089
805.199	2910
805.341	2948
805.483	3070
805.626	3028
805.768	3001
805.91	3070
806.052	3127
806.194	3047
806.336	3245
806.478	2971
806.62	2948
806.762	2952
806.904	3024
807.046	3146
807.188	2963
807.33	2918
807.472	2979
807.614	2876
807.756	2956
807.898	2906
808.04	2910
808.182	2971
808.324	2944
808.465	2872
808.607	2883
808.749	2781
808.891	2838
809.033	2941
809.174	2963
809.316	2857
809.458	2895
809.6	2773
809.741	2739
809.883	2735
810.025	2861
810.166	2883
810.308	2826
810.45	2864
810.591	2758
810.733	2758
810.875	2823
811.016	2792
811.158	2766
811.299	2792
811.441	2895
811.582	2914
811.724	2796
811.865	2853
812.007	2899
812.148	2834
812.29	2834
812.431	2895
812.573	2914
812.714	2975
812.855	3074
812.997	3055
813.138	3119
813.279	2990
813.421	2990
813.562	2937
813.703	2872
813.845	2902
813.986	2735
814.127	2750
814.268	2792
814.41	2826
814.551	2845
814.692	2868
814.833	2811
814.974	2910
815.115	2929
815.256	2857
815.397	2811
815.539	2838
815.68	2766
815.821	2785
815.962	2922
816.103	2941
816.244	2857
816.385	2861
816.526	2956
816.666	2899
816.807	2766
816.948	2842
817.089	2891
817.23	2834
817.371	2800
817.512	2807
817.653	2842
817.793	2792
817.934	2880
818.075	2941
818.216	2956
818.356	3039
818.497	2872
818.638	2762
818.778	2834
818.919	2807
819.06	2762
819.2	2861
819.341	2781
819.481	2807
819.622	2895
819.762	3104
819.903	3039
820.043	2910
820.184	2918
820.324	2902
820.465	3020
820.605	3005
820.746	2994
820.886	2956
821.026	3062
821.167	3173
821.307	3233
821.447	3283
821.588	3237
821.728	3173
821.868	3188
822.008	3070
822.149	3180
822.289	3230
822.429	3077
822.569	3074
822.709	3173
822.849	3043
822.99	3062
823.13	3161
823.27	3199
823.41	3127
823.55	3180
823.69	3173
823.83	3192
823.97	3100
824.11	2998
824.25	2986
824.389	3036
824.529	3154
824.669	3077
824.809	3218
824.949	3253
825.089	3222
825.228	3173
825.368	2998
825.508	2937
825.648	2963
825.787	3005
825.927	3043
826.067	2960
826.206	2948
826.346	3024
826.485	3081
826.625	3085
826.765	3241
826.904	3176
827.044	3024
827.183	2944
827.323	2868
827.462	2971
827.601	2914
827.741	2918
827.88	2975
828.02	2868
828.159	2963
828.298	3017
828.437	3085
828.577	3055
828.716	3222
828.855	3112
828.994	2933
829.134	2887
829.273	2933
829.412	2830
829.551	2811
829.69	2899
829.829	2986
829.968	3119
830.107	3005
830.246	3001
830.385	2918
830.524	2887
830.663	2823
830.802	2708
830.941	2682
831.08	2617
831.219	2807
831.357	2781
831.496	2979
831.635	2727
831.774	2663
831.913	2632
832.051	2552
832.19	2587
832.329	2697
832.467	2507
832.606	2503
832.744	2575
832.883	2549
833.022	2541
833.16	2629
833.299	2705
833.437	2689
833.576	2651
833.714	2689
833.852	2727
833.991	2754
834.129	2819
834.267	2834
834.406	2785
834.544	2834
834.682	2861
834.821	2868
834.959	3047
835.097	2853
835.235	3043
835.373	3001
835.511	3032
835.65	2956
835.788	2948
835.926	2838
836.064	2815
836.202	2811
836.34	3097
836.478	3138
836.615	3055
836.753	3142
836.891	3195
837.029	3154
837.167	3138
837.305	3047
837.443	2994
837.58	2975
837.718	3116
837.856	3077
837.993	2990
838.131	3047
838.269	3074
838.406	3097
838.544	3074
838.681	2929
838.819	2902
838.956	2838
839.094	2842
839.231	2876
839.369	3009
839.506	3386
839.643	3218
839.781	3047
839.918	2948
840.055	3043
840.193	3089
840.33	3081
840.467	3077
840.604	3112
840.742	3378
840.879	3020
841.016	3058
841.153	3066
841.29	3313
841.427	3287
841.564	3211
841.701	3310
841.838	3195
841.975	3161
842.112	3272
842.249	3089
842.385	3051
842.522	3253
842.659	3070
842.796	3062
842.933	3116
843.069	3032
843.206	3020
843.343	3180
843.479	3100
843.616	3127
843.752	2864
843.889	2861
844.025	3036
844.162	2899
844.298	3093
844.435	2914
844.571	2899
844.708	3077
844.844	3188
844.98	3256
845.117	3135
845.253	3017
845.389	2998
845.525	3097
845.661	3116
845.798	3051
845.934	3154
846.07	3020
846.206	3233
846.342	3287
846.478	3218
846.614	3081
846.75	3032
846.886	3039
847.022	3233
847.158	3146
847.294	3279
847.429	3241
847.565	3245
847.701	3515
847.837	3036
847.972	3005
848.108	3142
848.244	3173
848.379	3036
848.515	2963
848.65	2952
848.786	2914
848.921	3001
849.057	3093
849.192	3131
849.328	3070
849.463	3066
849.598	3024
849.734	3020
849.869	2933
850.004	2922
850.14	2979
850.275	2914
850.41	2815
850.545	2842
850.68	2922
850.815	2971
850.95	2944
851.085	3169
851.22	3150
851.355	3066
851.49	2967
851.625	2979
851.76	3013
851.895	2941
852.03	2914
852.165	3028
852.299	3119
852.434	3188
852.569	3108
852.703	3173
852.838	3230
852.973	3336
853.107	3313
853.242	3173
853.376	3081
853.511	2929
853.645	3066
853.78	3211
853.914	3123
854.048	3138
854.183	3074
854.317	3176
854.451	3306
854.585	3138
854.72	3066
854.854	3184
854.988	3058
855.122	3089
855.256	2982
855.39	3108
855.524	3218
855.658	3176
855.792	3150
855.926	3184
856.06	3195
856.194	3260
856.327	3165
856.461	3081
856.595	3104
856.729	3085
856.862	3180
856.996	3138
857.13	3150
857.263	3222
857.397	3241
857.53	3093
857.664	3180
857.797	3195
857.931	3245
858.064	3123
858.197	3207
858.331	3074
858.464	3055
858.597	2994
858.731	3100
858.864	3157
858.997	3074
859.13	3161
859.263	3165
859.396	3230
859.529	3089
859.662	3074
859.795	3043
859.928	3135
860.061	3268
860.194	3283
860.327	3119
860.46	3100
860.592	3253
860.725	3249
860.858	3249
860.99	3112
861.123	3066
861.256	3070
861.388	3104
861.521	3835
861.653	3043
861.786	3009
861.918	3028
862.05	3077
862.183	3077
862.315	3154
862.447	3192
862.58	3104
862.712	2971
862.844	2887
862.976	3009
863.108	2994
863.24	3321
863.372	2861
863.504	2979
863.636	2906
863.768	3028
863.9	2975
864.032	2910
864.164	2906
864.296	2998
864.428	3085
864.559	3123
864.691	3066
864.823	3074
864.954	2990
865.086	3062
865.217	3001
865.349	2925
865.48	3001
865.612	3001
865.743	3119
865.875	2994
866.006	2929
866.137	2956
866.269	2944
866.4	2918
866.531	2899
866.662	2887
866.793	2887
866.924	2887
867.055	2952
867.186	2918
867.317	2857
867.448	2830
867.579	2830
867.71	2826
867.841	2796
867.972	2918
868.103	2876
868.233	2861
868.364	2880
868.495	2895
868.625	3047
868.756	3146
868.886	2979
869.017	2982
869.147	3161
869.278	3135
869.408	3032
869.539	2982
869.669	3074
869.799	3047
869.929	3131
870.06	3097
870.19	3302
870.32	3260
870.45	3272
870.58	3397
870.71	3420
870.84	3435
870.97	3321
871.1	3272
871.23	3435
871.36	3443
871.489	3382
871.619	3416
871.749	3424
871.879	3477
872.008	3439
872.138	3313
872.267	3272
872.397	3157
872.526	3097
872.656	3005
872.785	3085
872.915	3249
873.044	3275
873.173	3214
873.303	3275
873.432	3195
873.561	3233
873.69	3188
873.819	3154
873.948	3214
874.077	3097
874.206	3013
874.335	3104
874.464	3218
874.593	3336
874.722	3249
874.851	3405
874.979	3329
875.108	3332
875.237	3199
875.365	3180
875.494	3154
875.623	3245
875.751	3077
875.88	3135
876.008	3184
876.136	3211
876.265	3332
876.393	3523
876.521	3367
876.65	3393
876.778	3291
876.906	3245
877.034	3184
877.162	3180
877.29	3195
877.418	3272
877.546	3256
877.674	3245
877.802	3226
877.93	3207
878.058	3123
878.185	3070
878.313	3203
878.441	3180
878.568	3066
878.696	3135
878.824	3230
878.951	3264
879.079	3401
879.206	3622
879.333	3409
879.461	3325
879.588	3367
879.715	3477
879.842	3599
879.97	3378
880.097	3127
880.224	3138
880.351	3184
880.478	3195
880.605	3180
880.732	3161
880.859	3511
880.986	3268
881.112	3298
881.239	3222
881.366	3104
881.493	3036
881.619	3017
881.746	3051
881.872	3058
881.999	3097
882.125	3135
882.252	3245
882.378	3294
882.505	3405
882.631	3253
882.757	3112
882.883	3230
883.01	3211
883.136	3180
883.262	3108
883.388	3112
883.514	3340
883.64	3386
883.766	3298
883.892	3161
884.018	3188
884.143	3393
884.269	3507
884.395	3214
884.52	3142
884.646	3157
884.772	3131
884.897	3055
885.023	3195
885.148	3321
885.274	3397
885.399	3348
885.524	3294
885.65	3294
885.775	3287
885.9	3256
886.025	3401
886.15	3336
886.275	3287
886.4	3233
886.525	3310
886.65	3294
886.775	3279
886.9	3462
887.025	3641
887.149	3367
887.274	3253
887.399	3180
887.523	3203
887.648	3233
887.773	3226
887.897	3412
888.021	3367
888.146	3283
888.27	3447
888.395	3511
888.519	3431
888.643	3481
888.767	3469
888.891	3321
889.015	3222
889.139	3294
889.263	3245
889.387	3412
889.511	3496
889.635	3405
889.759	3287
889.883	3275
890.006	3344
890.13	3473
890.254	3264
890.377	3340
890.501	3199
890.624	3150
890.748	3249
890.871	3173
890.995	3077
891.118	3066
891.241	3192
891.364	3207
891.488	3294
891.611	3214
891.734	3218
891.857	3268
891.98	3264
892.103	3291
892.226	3275
892.349	3199
892.471	3108
892.594	3245
892.717	3291
892.839	3279
892.962	3291
893.085	3340
893.207	3256
893.33	3135
893.452	3211
893.575	3329
893.697	3287
893.819	3450
893.941	3443
894.064	3450
894.186	3256
894.308	3291
894.43	3405
894.552	3553
894.674	3481
894.796	3241
894.918	3291
895.04	3260
895.161	3378
895.283	3378
895.405	3302
895.526	3367
895.648	3409
895.769	3431
895.891	3439
896.012	3485
896.134	3447
896.255	3405
896.376	3367
896.498	3340
896.619	3409
896.74	3355
896.861	3386
896.982	3633
897.103	3865
897.224	3572
897.345	3538
897.466	3386
897.587	3469
897.708	3622
897.828	3534
897.949	3393
898.07	3336
898.19	3401
898.311	3606
898.431	3454
898.552	3481
898.672	3584
898.792	3553
898.913	3481
899.033	3393
899.153	3256
899.273	3233
899.393	3268
899.513	3302
899.633	3272
899.753	3359
899.873	3298
899.993	3370
900.113	3382
900.232	3363
900.352	3359
900.472	3283
900.591	3184
900.711	3310
900.83	3222
900.95	3416
901.069	3496
901.189	3363
901.308	3184
901.427	3119
901.546	3188
901.665	3287
901.784	3317
901.904	3214
902.023	3154
902.141	3017
902.26	2944
902.379	3131
902.498	3081
902.617	3089
902.735	3188
902.854	3173
902.973	3180
903.091	3039
903.21	3036
903.328	3123
903.446	3070
903.565	3058
903.683	3192
903.801	3089
903.919	3245
904.038	3283
904.156	3192
904.274	3332
904.392	3237
904.51	3302
904.627	3317
904.745	3443
904.863	3507
904.981	3268
905.098	3154
905.216	3249
905.334	3317
905.451	3275
905.569	3329
905.686	3397
905.803	3450
905.921	3283
906.038	3454
906.155	3340
906.272	3279
906.389	3291
906.506	3214
906.623	3226
906.74	3279
906.857	3207
906.974	3249
907.091	3447
907.208	3545
907.324	3488
907.441	3355
907.557	3241
907.674	3291
907.79	3207
907.907	3264
908.023	3401
908.139	3374
908.256	3302
908.372	3336
908.488	3332
908.604	3279
908.72	3218
908.836	3291
908.952	3237
909.068	3344
909.184	3481
909.3	3412
909.415	3462
909.531	3458
909.647	3237
909.762	3272
909.878	3249
909.993	3317
910.108	3291
910.224	3306
910.339	3370
910.454	3313
910.57	3268
910.685	3233
910.8	3557
910.915	3523
911.03	3431
911.145	3260
911.259	3218
911.374	3302
911.489	3268
911.604	3195
911.718	3089
911.833	3119
911.947	3032
912.062	2944
912.176	3192
912.291	3161
912.405	3192
912.519	3397
912.633	3401
912.748	3325
912.862	3256
912.976	3165
913.09	3081
913.204	3119
913.318	3207
913.431	3344
913.545	3317
913.659	3412
913.772	3317
913.886	3195
914	3188
914.113	3344
914.226	3386
914.34	3348
914.453	3199
914.566	3382
914.68	3272
914.793	3287
914.906	3093
915.019	3081
915.132	3051
915.245	3157
915.358	3199
915.47	3188
915.583	3245
915.696	3283
915.809	3412
915.921	3409
916.034	3264
916.146	3233
916.259	3230
916.371	3363
916.483	3332
916.595	3245
916.708	3298
916.82	3317
916.932	3317
917.044	3325
917.156	3355
917.268	3287
917.38	3272
917.491	3287
917.603	3382
917.715	3466
917.826	3507
917.938	3424
918.049	3279
918.161	3416
918.272	3580
918.384	3542
918.495	3466
918.606	3374
918.717	3287
918.828	3359
918.939	3428
919.05	3313
919.161	3382
919.272	3180
919.383	3283
919.494	3576
919.604	3648
919.715	3549
919.826	3397
919.936	3462
920.047	3603
920.157	3587
920.267	3755
920.378	3614
920.488	3618
920.598	3842
920.708	4010
920.818	3869
920.928	3835
921.038	4086
921.148	4029
921.258	3751
921.368	3648
921.477	3572
921.587	3561
921.697	3504
921.806	3694
921.916	3568
922.025	3374
922.134	3389
922.244	3367
922.353	3462
922.462	3279
922.571	3279
922.68	3154
922.789	3127
922.898	3218
923.007	3142
923.116	3245
923.224	3241
923.333	3218
923.442	3173
923.55	3119
923.659	3195
923.767	3279
923.876	3173
923.984	3279
924.092	3135
924.201	3245
924.309	3275
924.417	3275
924.525	3203
924.633	3310
924.741	4029
924.849	3085
924.956	3298
925.064	3138
925.172	3112
925.279	3127
925.387	3211
925.494	3230
925.602	3405
925.709	3363
925.816	3245
925.924	3340
926.031	3397
926.138	3351
926.245	3336
926.352	3245
926.459	3469
926.566	3534
926.673	3367
926.779	3294
926.886	3287
926.993	3161
927.099	3207
927.206	3138
927.312	3157
927.419	3287
927.525	3264
927.631	3325
927.737	3169
927.843	3165
927.95	3081
928.056	3184
928.162	3211
928.267	3329
928.373	3835
928.479	3370
928.585	3119
928.69	3260
928.796	3287
928.901	3222
929.007	3081
929.112	3199
929.218	3222
929.323	3150
929.428	3237
929.533	3393
929.638	3150
929.743	3199
929.848	3272
929.953	3249
930.058	3169
930.163	3024
930.267	3093
930.372	3222
930.477	3074
930.581	3336
930.685	3233
930.79	3119
930.894	3119
930.998	3119
931.103	3332
931.207	3013
931.311	3001
931.415	2944
931.519	2804
931.623	2845
