Data from test_V78500241_770.txt Node
Date: Fri Mar 25 16:20:32 CST 2022
User: usil
Spectrometer: V785-0024
Trigger mode: 0
Integration Time (sec): 4.000000E-1
Scans to average: 1
Nonlinearity correction enabled: false
Boxcar width: 0
Storing dark spectrum: false
XAxis mode: Wavelengths
Number of Pixels in Spectrum: 1024
>>>>>Begin Spectral Data<<<<<
801.071	2880
801.214	2933
801.356	2868
801.499	2922
801.641	2861
801.783	2941
801.926	3028
802.068	3001
802.211	2967
802.353	3017
802.496	2967
802.638	3001
802.78	3039
802.923	3047
803.065	2994
803.208	2861
803.35	2941
803.492	2914
803.635	2918
803.777	2750
803.919	2853
804.061	3222
804.204	2902
804.346	2906
804.488	2819
804.63	2990
804.773	2800
804.915	2910
805.057	3051
805.199	2933
805.341	2990
805.483	3009
805.626	3005
805.768	2944
805.91	3066
806.052	3116
806.194	3001
806.336	3218
806.478	3017
806.62	2948
806.762	2952
806.904	3055
807.046	3146
807.188	2948
807.33	2883
807.472	2979
807.614	2899
807.756	2975
807.898	2887
808.04	2868
808.182	2967
808.324	2941
808.465	2876
808.607	2876
808.749	2815
808.891	2819
809.033	2960
809.174	2948
809.316	2834
809.458	2861
809.6	2781
809.741	2750
809.883	2731
810.025	2807
810.166	2857
810.308	2857
810.45	2849
810.591	2754
810.733	2735
810.875	2800
811.016	2769
811.158	2743
811.299	2785
811.441	2922
811.582	2861
811.724	2796
811.865	2811
812.007	2876
812.148	2845
812.29	2830
812.431	2864
812.573	2910
812.714	2941
812.855	3039
812.997	3024
813.138	3127
813.279	2979
813.421	2944
813.562	2967
813.703	2838
813.845	2864
813.986	2750
814.127	2743
814.268	2785
814.41	2788
814.551	2788
814.692	2868
814.833	2773
814.974	2861
815.115	2914
815.256	2819
815.397	2781
815.539	2876
815.68	2762
815.821	2777
815.962	2918
816.103	2929
816.244	2876
816.385	2872
816.526	2975
816.666	2922
816.807	2754
816.948	2895
817.089	2895
817.23	2876
817.371	2769
817.512	2815
817.653	2819
817.793	2819
817.934	2876
818.075	2990
818.216	2967
818.356	3009
818.497	2887
818.638	2819
818.778	2838
818.919	2834
819.06	2804
819.2	2891
819.341	2853
819.481	2823
819.622	2937
819.762	3142
819.903	3085
820.043	2948
820.184	2933
820.324	2937
820.465	3028
820.605	3036
820.746	3020
820.886	2925
821.026	3104
821.167	3173
821.307	3260
821.447	3298
821.588	3218
821.728	3287
821.868	3237
822.008	3089
822.149	3237
822.289	3287
822.429	3116
822.569	3142
822.709	3195
822.849	3066
822.99	3085
823.13	3222
823.27	3214
823.41	3131
823.55	3195
823.69	3161
823.83	3195
823.97	3119
824.11	3005
824.25	3032
824.389	3074
824.529	3157
824.669	3097
824.809	3222
824.949	3283
825.089	3275
825.228	3203
825.368	3036
825.508	3013
825.648	3020
825.787	3047
825.927	3062
826.067	3032
826.206	2986
826.346	3085
826.485	3097
826.625	3150
826.765	3287
826.904	3237
827.044	3009
827.183	2971
827.323	2880
827.462	3005
827.601	2933
827.741	2967
827.88	2979
828.02	2902
828.159	2998
828.298	3043
828.437	3138
828.577	3077
828.716	3291
828.855	3093
828.994	2941
829.134	2933
829.273	2944
829.412	2899
829.551	2849
829.69	2918
829.829	3028
829.968	3131
830.107	3043
830.246	3074
830.385	2937
830.524	2960
830.663	2834
830.802	2724
830.941	2701
831.08	2693
831.219	2788
831.357	2788
831.496	2994
831.635	2724
831.774	2682
831.913	2689
832.051	2579
832.19	2617
832.329	2735
832.467	2560
832.606	2499
832.744	2648
832.883	2621
833.022	2606
833.16	2678
833.299	2689
833.437	2712
833.576	2735
833.714	2754
833.852	2769
833.991	2800
834.129	2853
834.267	2864
834.406	2777
834.544	2929
834.682	2918
834.821	2880
834.959	3127
835.097	2933
835.235	3070
835.373	3043
835.511	3058
835.65	2990
835.788	2994
835.926	2845
836.064	2830
836.202	2861
836.34	3097
836.478	3180
836.615	3074
836.753	3161
836.891	3211
837.029	3176
837.167	3157
837.305	3085
837.443	3024
837.58	2975
837.718	3173
837.856	3119
837.993	3043
838.131	3154
838.269	3119
838.406	3108
838.544	3108
838.681	2975
838.819	2918
838.956	2785
839.094	2864
839.231	2910
839.369	3058
839.506	3374
839.643	3226
839.781	3051
839.918	2979
840.055	3017
840.193	3093
840.33	3097
840.467	3093
840.604	3184
840.742	3428
840.879	3104
841.016	3070
841.153	3146
841.29	3367
841.427	3313
841.564	3313
841.701	3355
841.838	3218
841.975	3211
842.112	3241
842.249	3104
842.385	3070
842.522	3283
842.659	3100
842.796	3123
842.933	3173
843.069	3077
843.206	3097
843.343	3207
843.479	3135
843.616	3161
843.752	2944
843.889	2876
844.025	3131
844.162	2918
844.298	3093
844.435	2990
844.571	2937
844.708	3062
844.844	3241
844.98	3241
845.117	3207
845.253	3066
845.389	3028
845.525	3135
845.661	3070
845.798	3055
845.934	3127
846.07	3093
846.206	3211
846.342	3336
846.478	3268
846.614	3138
846.75	3043
846.886	3077
847.022	3256
847.158	3180
847.294	3195
847.429	3241
847.565	3245
847.701	3519
847.837	3024
847.972	3043
848.108	3176
848.244	3161
848.379	3036
848.515	2982
848.65	2963
848.786	2998
848.921	3058
849.057	3119
849.192	3157
849.328	3119
849.463	3135
849.598	3051
849.734	3062
849.869	3017
850.004	2971
850.14	2967
850.275	2956
850.41	2891
850.545	2891
850.68	2979
850.815	2963
850.95	2982
851.085	3222
851.22	3127
851.355	3070
851.49	2967
851.625	3036
851.76	3024
851.895	2971
852.03	2971
852.165	3047
852.299	3161
852.434	3188
852.569	3176
852.703	3173
852.838	3253
852.973	3351
853.107	3355
853.242	3180
853.376	3112
853.511	2975
853.645	3066
853.78	3230
853.914	3127
854.048	3123
854.183	3123
854.317	3165
854.451	3321
854.585	3176
854.72	3085
854.854	3211
854.988	3062
855.122	3100
855.256	2971
855.39	3180
855.524	3279
855.658	3214
855.792	3214
855.926	3188
856.06	3260
856.194	3287
856.327	3161
856.461	3119
856.595	3093
856.729	3093
856.862	3211
856.996	3203
857.13	3237
857.263	3241
857.397	3317
857.53	3169
857.664	3214
857.797	3237
857.931	3256
858.064	3241
858.197	3203
858.331	3169
858.464	3104
858.597	2994
858.731	3112
858.864	3138
858.997	3116
859.13	3176
859.263	3207
859.396	3176
859.529	3150
859.662	3119
859.795	3036
859.928	3123
860.061	3298
860.194	3321
860.327	3165
860.46	3112
860.592	3226
860.725	3237
860.858	3260
860.99	3146
861.123	3077
861.256	3066
861.388	3150
861.521	3926
861.653	3062
861.786	2975
861.918	3039
862.05	3085
862.183	3123
862.315	3192
862.447	3192
862.58	3104
862.712	2963
862.844	2845
862.976	3039
863.108	3032
863.24	3466
863.372	2887
863.504	2960
863.636	2979
863.768	2990
863.9	3017
864.032	2952
864.164	2982
864.296	3039
864.428	3108
864.559	3104
864.691	3081
864.823	3062
864.954	3028
865.086	3043
865.217	3001
865.349	2956
865.48	2982
865.612	3020
865.743	3116
865.875	2986
866.006	2925
866.137	2967
866.269	3001
866.4	2933
866.531	2937
866.662	2925
866.793	2979
866.924	2933
867.055	2979
867.186	2960
867.317	2906
867.448	2876
867.579	2887
867.71	2861
867.841	2823
867.972	2910
868.103	2929
868.233	2880
868.364	2906
868.495	2895
868.625	3081
868.756	3192
868.886	2994
869.017	3039
869.147	3146
869.278	3165
869.408	3066
869.539	3009
869.669	3135
869.799	3077
869.929	3112
870.06	3097
870.19	3329
870.32	3268
870.45	3291
870.58	3370
870.71	3496
870.84	3416
870.97	3298
871.1	3264
871.23	3511
871.36	3458
871.489	3363
871.619	3386
871.749	3447
871.879	3454
872.008	3530
872.138	3378
872.267	3287
872.397	3195
872.526	3100
872.656	3001
872.785	3108
872.915	3256
873.044	3336
873.173	3222
873.303	3230
873.432	3272
873.561	3211
873.69	3169
873.819	3138
873.948	3165
874.077	3104
874.206	3089
874.335	3093
874.464	3214
874.593	3348
874.722	3256
874.851	3367
874.979	3355
875.108	3321
875.237	3230
875.365	3203
875.494	3173
875.623	3260
875.751	3085
875.88	3138
876.008	3214
876.136	3249
876.265	3389
876.393	3526
876.521	3367
876.65	3374
876.778	3344
876.906	3256
877.034	3203
877.162	3283
877.29	3192
877.418	3268
877.546	3260
877.674	3268
877.802	3245
877.93	3237
878.058	3142
878.185	3108
878.313	3222
878.441	3184
878.568	3077
878.696	3165
878.824	3230
878.951	3283
879.079	3496
879.206	3614
879.333	3447
879.461	3332
879.588	3317
879.715	3496
879.842	3637
879.97	3397
880.097	3199
880.224	3112
880.351	3184
880.478	3241
880.605	3222
880.732	3180
880.859	3450
880.986	3306
881.112	3348
881.239	3211
881.366	3089
881.493	3024
881.619	3001
881.746	3093
881.872	3108
881.999	3104
882.125	3119
882.252	3275
882.378	3272
882.505	3401
882.631	3249
882.757	3161
882.883	3199
883.01	3264
883.136	3184
883.262	3138
883.388	3127
883.514	3306
883.64	3401
883.766	3313
883.892	3161
884.018	3237
884.143	3435
884.269	3526
884.395	3150
884.52	3184
884.646	3203
884.772	3150
884.897	3112
885.023	3203
885.148	3332
885.274	3401
885.399	3401
885.524	3275
885.65	3268
885.775	3272
885.9	3253
886.025	3454
886.15	3386
886.275	3317
886.4	3241
886.525	3313
886.65	3287
886.775	3272
886.9	3469
887.025	3633
887.149	3447
887.274	3275
887.399	3203
887.523	3256
887.648	3203
887.773	3218
887.897	3344
888.021	3409
888.146	3336
888.27	3481
888.395	3538
888.519	3447
888.643	3469
888.767	3458
888.891	3279
889.015	3230
889.139	3298
889.263	3253
889.387	3397
889.511	3542
889.635	3420
889.759	3313
889.883	3287
890.006	3405
890.13	3492
890.254	3302
890.377	3340
890.501	3245
890.624	3195
890.748	3340
890.871	3188
890.995	3108
891.118	3055
891.241	3165
891.364	3241
891.488	3283
891.611	3188
891.734	3214
891.857	3279
891.98	3272
892.103	3325
892.226	3317
892.349	3253
892.471	3116
892.594	3237
892.717	3291
892.839	3279
892.962	3317
893.085	3340
893.207	3302
893.33	3184
893.452	3233
893.575	3355
893.697	3214
893.819	3485
893.941	3526
894.064	3454
894.186	3249
894.308	3249
894.43	3416
894.552	3530
894.674	3496
894.796	3272
894.918	3313
895.04	3275
895.161	3458
895.283	3405
895.405	3317
895.526	3336
895.648	3420
895.769	3420
895.891	3447
896.012	3435
896.134	3439
896.255	3416
896.376	3409
896.498	3332
896.619	3458
896.74	3367
896.861	3409
896.982	3671
897.103	3888
897.224	3629
897.345	3507
897.466	3443
897.587	3496
897.708	3610
897.828	3580
897.949	3439
898.07	3294
898.19	3450
898.311	3618
898.431	3450
898.552	3534
898.672	3587
898.792	3568
898.913	3466
899.033	3424
899.153	3291
899.273	3207
899.393	3279
899.513	3329
899.633	3279
899.753	3340
899.873	3359
899.993	3348
900.113	3321
900.232	3382
900.352	3348
900.472	3291
900.591	3195
900.711	3329
900.83	3226
900.95	3378
901.069	3462
901.189	3306
901.308	3188
901.427	3157
901.546	3199
901.665	3260
901.784	3344
901.904	3214
902.023	3188
902.141	3036
902.26	2986
902.379	3112
902.498	3074
902.617	3077
902.735	3226
902.854	3233
902.973	3180
903.091	3055
903.21	3077
903.328	3157
903.446	3093
903.565	3127
903.683	3226
903.801	3154
903.919	3294
904.038	3272
904.156	3154
904.274	3268
904.392	3279
904.51	3321
904.627	3294
904.745	3458
904.863	3504
904.981	3264
905.098	3180
905.216	3260
905.334	3306
905.451	3310
905.569	3325
905.686	3454
905.803	3431
905.921	3302
906.038	3416
906.155	3386
906.272	3272
906.389	3340
906.506	3245
906.623	3268
906.74	3268
906.857	3226
906.974	3268
907.091	3469
907.208	3545
907.324	3477
907.441	3412
907.557	3237
907.674	3218
907.79	3214
907.907	3275
908.023	3378
908.139	3386
908.256	3325
908.372	3374
908.488	3370
908.604	3272
908.72	3226
908.836	3275
908.952	3291
909.068	3321
909.184	3500
909.3	3378
909.415	3526
909.531	3462
909.647	3283
909.762	3283
909.878	3249
909.993	3355
910.108	3344
910.224	3291
910.339	3405
910.454	3321
910.57	3287
910.685	3237
910.8	3561
910.915	3553
911.03	3397
911.145	3237
911.259	3287
911.374	3321
911.489	3237
911.604	3199
911.718	3135
911.833	3169
911.947	3020
912.062	2982
912.176	3169
912.291	3180
912.405	3199
912.519	3431
912.633	3473
912.748	3355
912.862	3264
912.976	3142
913.09	3051
913.204	3112
913.318	3245
913.431	3291
913.545	3344
913.659	3401
913.772	3344
913.886	3233
914	3195
914.113	3359
914.226	3416
914.34	3367
914.453	3237
914.566	3447
914.68	3313
914.793	3306
914.906	3154
915.019	3127
915.132	3039
915.245	3161
915.358	3211
915.47	3237
915.583	3256
915.696	3279
915.809	3378
915.921	3428
916.034	3249
916.146	3264
916.259	3161
916.371	3329
916.483	3367
916.595	3294
916.708	3321
916.82	3332
916.932	3310
917.044	3298
917.156	3332
917.268	3241
917.38	3272
917.491	3279
917.603	3374
917.715	3443
917.826	3431
917.938	3386
918.049	3283
918.161	3447
918.272	3576
918.384	3572
918.495	3454
918.606	3325
918.717	3253
918.828	3348
918.939	3397
919.05	3329
919.161	3351
919.272	3195
919.383	3253
919.494	3511
919.604	3682
919.715	3481
919.826	3420
919.936	3473
920.047	3587
920.157	3557
920.267	3804
920.378	3591
920.488	3530
920.598	3778
920.708	3960
920.818	3800
920.928	3823
921.038	3983
921.148	3987
921.258	3686
921.368	3663
921.477	3557
921.587	3538
921.697	3450
921.806	3633
921.916	3557
922.025	3317
922.134	3378
922.244	3325
922.353	3393
922.462	3279
922.571	3241
922.68	3108
922.789	3051
922.898	3123
923.007	3108
923.116	3180
923.224	3161
923.333	3180
923.442	3104
923.55	3131
923.659	3180
923.767	3211
923.876	3135
923.984	3233
924.092	3093
924.201	3214
924.309	3195
924.417	3230
924.525	3180
924.633	3230
924.741	4128
924.849	3066
924.956	3264
925.064	3108
925.172	3032
925.279	3112
925.387	3199
925.494	3195
925.602	3348
925.709	3332
925.816	3211
925.924	3302
926.031	3450
926.138	3321
926.245	3405
926.352	3275
926.459	3409
926.566	3443
926.673	3310
926.779	3241
926.886	3241
926.993	3146
927.099	3112
927.206	3123
927.312	3165
927.419	3211
927.525	3195
927.631	3256
927.737	3123
927.843	3131
927.95	3020
928.056	3135
928.162	3135
928.267	3237
928.373	3770
928.479	3317
928.585	3039
928.69	3211
928.796	3279
928.901	3135
929.007	3028
929.112	3192
929.218	3188
929.323	3135
929.428	3142
929.533	3317
929.638	3097
929.743	3138
929.848	3249
929.953	3214
930.058	3154
930.163	3013
930.267	3036
930.372	3173
930.477	3024
930.581	3325
930.685	3169
930.79	3043
930.894	3150
930.998	3116
931.103	3264
931.207	2963
931.311	2975
931.415	2880
931.519	2788
931.623	2826
