Data from test_V78500241_1251.txt Node
Date: Fri Mar 25 16:23:52 CST 2022
User: usil
Spectrometer: V785-0024
Trigger mode: 0
Integration Time (sec): 4.000000E-1
Scans to average: 1
Nonlinearity correction enabled: false
Boxcar width: 0
Storing dark spectrum: false
XAxis mode: Wavelengths
Number of Pixels in Spectrum: 1024
>>>>>Begin Spectral Data<<<<<
801.071	2902
801.214	2948
801.356	2849
801.499	2876
801.641	2864
801.783	2918
801.926	3058
802.068	2929
802.211	2982
802.353	3020
802.496	2967
802.638	2994
802.78	3028
802.923	3077
803.065	2986
803.208	2880
803.35	2899
803.492	2891
803.635	2895
803.777	2754
803.919	2868
804.061	3214
804.204	2948
804.346	2895
804.488	2868
804.63	3001
804.773	2880
804.915	2906
805.057	3043
805.199	2891
805.341	2937
805.483	3024
805.626	3001
805.768	2937
805.91	3066
806.052	3093
806.194	3009
806.336	3207
806.478	3009
806.62	2956
806.762	2948
806.904	3009
807.046	3142
807.188	2975
807.33	2902
807.472	2990
807.614	2899
807.756	2982
807.898	2937
808.04	2880
808.182	2963
808.324	2914
808.465	2906
808.607	2868
808.749	2788
808.891	2826
809.033	2967
809.174	2918
809.316	2887
809.458	2880
809.6	2754
809.741	2766
809.883	2743
810.025	2842
810.166	2830
810.308	2811
810.45	2815
810.591	2777
810.733	2796
810.875	2845
811.016	2754
811.158	2708
811.299	2785
811.441	2914
811.582	2872
811.724	2811
811.865	2838
812.007	2899
812.148	2880
812.29	2811
812.431	2887
812.573	2922
812.714	2922
812.855	3005
812.997	3020
813.138	3135
813.279	3001
813.421	2979
813.562	2914
813.703	2887
813.845	2861
813.986	2743
814.127	2693
814.268	2769
814.41	2815
814.551	2823
814.692	2842
814.833	2792
814.974	2842
815.115	2963
815.256	2830
815.397	2815
815.539	2849
815.68	2766
815.821	2727
815.962	2937
816.103	2902
816.244	2834
816.385	2830
816.526	2952
816.666	2914
816.807	2686
816.948	2883
817.089	2899
817.23	2868
817.371	2746
817.512	2754
817.653	2849
817.793	2838
817.934	2853
818.075	2967
818.216	2967
818.356	2998
818.497	2876
818.638	2807
818.778	2773
818.919	2785
819.06	2754
819.2	2876
819.341	2823
819.481	2838
819.622	2883
819.762	3062
819.903	3039
820.043	2914
820.184	2872
820.324	2876
820.465	2979
820.605	2990
820.746	3024
820.886	2887
821.026	3085
821.167	3135
821.307	3264
821.447	3298
821.588	3211
821.728	3222
821.868	3195
822.008	3062
822.149	3184
822.289	3222
822.429	3081
822.569	3081
822.709	3165
822.849	2979
822.99	3062
823.13	3116
823.27	3176
823.41	3089
823.55	3112
823.69	3161
823.83	3173
823.97	3058
824.11	2956
824.25	2982
824.389	3077
824.529	3089
824.669	3043
824.809	3214
824.949	3237
825.089	3241
825.228	3142
825.368	2986
825.508	2975
825.648	2948
825.787	3024
825.927	3013
826.067	2971
826.206	2929
826.346	3009
826.485	3066
826.625	3089
826.765	3241
826.904	3211
827.044	2998
827.183	2906
827.323	2842
827.462	2960
827.601	2887
827.741	2895
827.88	2952
828.02	2826
828.159	2952
828.298	3032
828.437	3097
828.577	3005
828.716	3226
828.855	3043
828.994	2864
829.134	2849
829.273	2925
829.412	2853
829.551	2826
829.69	2883
829.829	2998
829.968	3070
830.107	2994
830.246	2975
830.385	2845
830.524	2857
830.663	2830
830.802	2689
830.941	2659
831.08	2644
831.219	2735
831.357	2746
831.496	2937
831.635	2682
831.774	2617
831.913	2651
832.051	2526
832.19	2575
832.329	2678
832.467	2556
832.606	2488
832.744	2568
832.883	2571
833.022	2594
833.16	2644
833.299	2724
833.437	2693
833.576	2727
833.714	2750
833.852	2743
833.991	2743
834.129	2823
834.267	2857
834.406	2788
834.544	2872
834.682	2864
834.821	2887
834.959	3062
835.097	2937
835.235	3081
835.373	3020
835.511	3070
835.65	2975
835.788	2982
835.926	2849
836.064	2807
836.202	2876
836.34	3119
836.478	3176
836.615	3100
836.753	3169
836.891	3214
837.029	3211
837.167	3131
837.305	3089
837.443	3093
837.58	2986
837.718	3116
837.856	3100
837.993	3036
838.131	3154
838.269	3119
838.406	3123
838.544	3142
838.681	2967
838.819	2933
838.956	2868
839.094	2906
839.231	2914
839.369	3058
839.506	3401
839.643	3211
839.781	3032
839.918	3009
840.055	3062
840.193	3085
840.33	3104
840.467	3154
840.604	3195
840.742	3428
840.879	3047
841.016	3058
841.153	3138
841.29	3370
841.427	3325
841.564	3302
841.701	3325
841.838	3256
841.975	3173
842.112	3268
842.249	3093
842.385	3047
842.522	3291
842.659	3108
842.796	3085
842.933	3131
843.069	3043
843.206	3058
843.343	3237
843.479	3154
843.616	3150
843.752	2929
843.889	2902
844.025	3157
844.162	2956
844.298	3108
844.435	2941
844.571	2933
844.708	3108
844.844	3249
844.98	3253
845.117	3249
845.253	3127
845.389	3013
845.525	3146
845.661	3108
845.798	3032
845.934	3154
846.07	3062
846.206	3256
846.342	3332
846.478	3241
846.614	3135
846.75	3089
846.886	3077
847.022	3249
847.158	3161
847.294	3249
847.429	3237
847.565	3203
847.701	3534
847.837	3055
847.972	3058
848.108	3150
848.244	3173
848.379	3020
848.515	2990
848.65	2990
848.786	3001
848.921	3009
849.057	3173
849.192	3184
849.328	3085
849.463	3135
849.598	3131
849.734	3043
849.869	3020
850.004	2990
850.14	2990
850.275	2914
850.41	2910
850.545	2906
850.68	2971
850.815	2990
850.95	2998
851.085	3222
851.22	3119
851.355	3051
851.49	3005
851.625	3032
851.76	3077
851.895	2948
852.03	2914
852.165	3089
852.299	3119
852.434	3226
852.569	3165
852.703	3157
852.838	3256
852.973	3359
853.107	3359
853.242	3173
853.376	3165
853.511	3005
853.645	3062
853.78	3237
853.914	3104
854.048	3127
854.183	3093
854.317	3203
854.451	3325
854.585	3157
854.72	3108
854.854	3207
854.988	3085
855.122	3116
855.256	3032
855.39	3180
855.524	3226
855.658	3218
855.792	3169
855.926	3222
856.06	3253
856.194	3264
856.327	3199
856.461	3104
856.595	3097
856.729	3112
856.862	3275
856.996	3173
857.13	3211
857.263	3253
857.397	3298
857.53	3142
857.664	3245
857.797	3256
857.931	3291
858.064	3157
858.197	3241
858.331	3157
858.464	3135
858.597	3058
858.731	3169
858.864	3176
858.997	3119
859.13	3127
859.263	3173
859.396	3253
859.529	3119
859.662	3104
859.795	3123
859.928	3199
860.061	3302
860.194	3298
860.327	3142
860.46	3100
860.592	3260
860.725	3264
860.858	3275
860.99	3116
861.123	3100
861.256	3066
861.388	3161
861.521	3724
861.653	3066
861.786	3017
861.918	3013
862.05	3085
862.183	3138
862.315	3188
862.447	3211
862.58	3138
862.712	2948
862.844	2918
862.976	3024
863.108	3058
863.24	3378
863.372	2922
863.504	2994
863.636	2967
863.768	3051
863.9	3001
864.032	2918
864.164	2982
864.296	3013
864.428	3100
864.559	3100
864.691	3093
864.823	3127
864.954	3074
865.086	3047
865.217	3009
865.349	2922
865.48	3055
865.612	3066
865.743	3188
865.875	3047
866.006	2963
866.137	3013
866.269	2982
866.4	2948
866.531	2967
866.662	2891
866.793	2922
866.924	2922
867.055	3032
867.186	2960
867.317	2902
867.448	2861
867.579	2857
867.71	2887
867.841	2838
867.972	2902
868.103	2933
868.233	2887
868.364	2883
868.495	2941
868.625	3077
868.756	3131
868.886	2963
869.017	3047
869.147	3211
869.278	3180
869.408	3036
869.539	3017
869.669	3112
869.799	3039
869.929	3146
870.06	3176
870.19	3348
870.32	3306
870.45	3291
870.58	3424
870.71	3431
870.84	3439
870.97	3306
871.1	3241
871.23	3500
871.36	3507
871.489	3359
871.619	3435
871.749	3450
871.879	3454
872.008	3538
872.138	3405
872.267	3249
872.397	3138
872.526	3112
872.656	3017
872.785	3097
872.915	3298
873.044	3317
873.173	3222
873.303	3222
873.432	3253
873.561	3237
873.69	3176
873.819	3131
873.948	3199
874.077	3150
874.206	3062
874.335	3131
874.464	3218
874.593	3389
874.722	3272
874.851	3382
874.979	3386
875.108	3344
875.237	3195
875.365	3203
875.494	3184
875.623	3287
875.751	3089
875.88	3180
876.008	3226
876.136	3272
876.265	3405
876.393	3523
876.521	3454
876.65	3424
876.778	3374
876.906	3253
877.034	3272
877.162	3230
877.29	3161
877.418	3294
877.546	3256
877.674	3260
877.802	3260
877.93	3249
878.058	3154
878.185	3127
878.313	3199
878.441	3264
878.568	3077
878.696	3169
878.824	3279
878.951	3329
879.079	3420
879.206	3660
879.333	3466
879.461	3321
879.588	3351
879.715	3511
879.842	3603
879.97	3424
880.097	3154
880.224	3135
880.351	3192
880.478	3268
880.605	3249
880.732	3237
880.859	3526
880.986	3287
881.112	3348
881.239	3207
881.366	3138
881.493	3062
881.619	3047
881.746	3085
881.872	3104
881.999	3131
882.125	3188
882.252	3268
882.378	3272
882.505	3466
882.631	3268
882.757	3195
882.883	3264
883.01	3222
883.136	3173
883.262	3074
883.388	3116
883.514	3336
883.64	3393
883.766	3336
883.892	3253
884.018	3233
884.143	3424
884.269	3545
884.395	3226
884.52	3199
884.646	3199
884.772	3097
884.897	3112
885.023	3222
885.148	3355
885.274	3409
885.399	3393
885.524	3294
885.65	3249
885.775	3287
885.9	3302
886.025	3454
886.15	3374
886.275	3336
886.4	3226
886.525	3287
886.65	3268
886.775	3264
886.9	3523
887.025	3629
887.149	3431
887.274	3268
887.399	3188
887.523	3226
887.648	3218
887.773	3222
887.897	3409
888.021	3409
888.146	3313
888.27	3466
888.395	3553
888.519	3458
888.643	3473
888.767	3477
888.891	3329
889.015	3241
889.139	3325
889.263	3268
889.387	3424
889.511	3511
889.635	3481
889.759	3313
889.883	3310
890.006	3401
890.13	3507
890.254	3268
890.377	3348
890.501	3214
890.624	3226
890.748	3302
890.871	3195
890.995	3112
891.118	3062
891.241	3253
891.364	3226
891.488	3348
891.611	3180
891.734	3230
891.857	3317
891.98	3279
892.103	3348
892.226	3291
892.349	3226
892.471	3135
892.594	3279
892.717	3291
892.839	3256
892.962	3302
893.085	3367
893.207	3321
893.33	3154
893.452	3203
893.575	3363
893.697	3233
893.819	3492
893.941	3530
894.064	3477
894.186	3268
894.308	3298
894.43	3473
894.552	3538
894.674	3488
894.796	3279
894.918	3344
895.04	3302
895.161	3435
895.283	3428
895.405	3336
895.526	3336
895.648	3431
895.769	3439
895.891	3466
896.012	3485
896.134	3496
896.255	3409
896.376	3370
896.498	3409
896.619	3443
896.74	3397
896.861	3416
896.982	3694
897.103	3800
897.224	3625
897.345	3526
897.466	3412
897.587	3515
897.708	3622
897.828	3542
897.949	3428
898.07	3363
898.19	3409
898.311	3610
898.431	3477
898.552	3515
898.672	3618
898.792	3545
898.913	3526
899.033	3412
899.153	3302
899.273	3214
899.393	3310
899.513	3302
899.633	3321
899.753	3370
899.873	3340
899.993	3389
900.113	3351
900.232	3405
900.352	3317
900.472	3287
900.591	3211
900.711	3340
900.83	3279
900.95	3393
901.069	3504
901.189	3340
901.308	3150
901.427	3135
901.546	3230
901.665	3287
901.784	3348
901.904	3226
902.023	3146
902.141	3032
902.26	2994
902.379	3157
902.498	3097
902.617	3081
902.735	3195
902.854	3268
902.973	3176
903.091	3028
903.21	3070
903.328	3135
903.446	3093
903.565	3100
903.683	3207
903.801	3131
903.919	3249
904.038	3287
904.156	3192
904.274	3291
904.392	3283
904.51	3344
904.627	3332
904.745	3443
904.863	3511
904.981	3249
905.098	3188
905.216	3241
905.334	3310
905.451	3313
905.569	3321
905.686	3469
905.803	3454
905.921	3302
906.038	3428
906.155	3370
906.272	3268
906.389	3386
906.506	3245
906.623	3294
906.74	3256
906.857	3199
906.974	3249
907.091	3496
907.208	3557
907.324	3496
907.441	3386
907.557	3218
907.674	3226
907.79	3237
907.907	3310
908.023	3389
908.139	3367
908.256	3329
908.372	3370
908.488	3363
908.604	3245
908.72	3226
908.836	3325
908.952	3287
909.068	3313
909.184	3485
909.3	3397
909.415	3519
909.531	3492
909.647	3253
909.762	3310
909.878	3260
909.993	3378
910.108	3359
910.224	3355
910.339	3420
910.454	3348
910.57	3302
910.685	3230
910.8	3606
910.915	3549
911.03	3439
911.145	3253
911.259	3283
911.374	3317
911.489	3272
911.604	3279
911.718	3119
911.833	3188
911.947	3024
912.062	3001
912.176	3180
912.291	3157
912.405	3218
912.519	3450
912.633	3435
912.748	3367
912.862	3283
912.976	3116
913.09	3058
913.204	3146
913.318	3249
913.431	3340
913.545	3310
913.659	3397
913.772	3351
913.886	3237
914	3233
914.113	3374
914.226	3416
914.34	3405
914.453	3188
914.566	3412
914.68	3313
914.793	3325
914.906	3123
915.019	3112
915.132	3070
915.245	3150
915.358	3195
915.47	3218
915.583	3298
915.696	3260
915.809	3450
915.921	3397
916.034	3272
916.146	3291
916.259	3233
916.371	3389
916.483	3340
916.595	3283
916.708	3310
916.82	3378
916.932	3336
917.044	3306
917.156	3344
917.268	3218
917.38	3313
917.491	3302
917.603	3355
917.715	3450
917.826	3447
917.938	3378
918.049	3283
918.161	3409
918.272	3572
918.384	3530
918.495	3511
918.606	3370
918.717	3298
918.828	3344
918.939	3416
919.05	3283
919.161	3416
919.272	3192
919.383	3306
919.494	3538
919.604	3694
919.715	3511
919.826	3401
919.936	3439
920.047	3591
920.157	3553
920.267	3759
920.378	3587
920.488	3519
920.598	3804
920.708	3918
920.818	3827
920.928	3846
921.038	3991
921.148	3983
921.258	3690
921.368	3614
921.477	3591
921.587	3500
921.697	3466
921.806	3603
921.916	3492
922.025	3370
922.134	3340
922.244	3348
922.353	3447
922.462	3294
922.571	3211
922.68	3100
922.789	3093
922.898	3123
923.007	3119
923.116	3188
923.224	3165
923.333	3214
923.442	3100
923.55	3100
923.659	3112
923.767	3230
923.876	3089
923.984	3245
924.092	3093
924.201	3222
924.309	3214
924.417	3241
924.525	3211
924.633	3233
924.741	4013
924.849	3013
924.956	3317
925.064	3089
925.172	3070
925.279	3077
925.387	3207
925.494	3207
925.602	3332
925.709	3306
925.816	3173
925.924	3291
926.031	3367
926.138	3317
926.245	3374
926.352	3283
926.459	3363
926.566	3466
926.673	3344
926.779	3260
926.886	3268
926.993	3157
927.099	3127
927.206	3108
927.312	3119
927.419	3226
927.525	3199
927.631	3268
927.737	3192
927.843	3123
927.95	3036
928.056	3135
928.162	3161
928.267	3260
928.373	3854
928.479	3264
928.585	3036
928.69	3233
928.796	3249
928.901	3169
929.007	3043
929.112	3253
929.218	3192
929.323	3100
929.428	3161
929.533	3298
929.638	3119
929.743	3161
929.848	3256
929.953	3211
930.058	3123
930.163	2963
930.267	3070
930.372	3203
930.477	3055
930.581	3310
930.685	3161
930.79	3074
930.894	3123
930.998	3066
931.103	3302
931.207	2952
931.311	2952
931.415	2906
931.519	2785
931.623	2845
