Data from test_V78500241_694.txt Node
Date: Fri Mar 25 16:20:00 CST 2022
User: usil
Spectrometer: V785-0024
Trigger mode: 0
Integration Time (sec): 4.000000E-1
Scans to average: 1
Nonlinearity correction enabled: false
Boxcar width: 0
Storing dark spectrum: false
XAxis mode: Wavelengths
Number of Pixels in Spectrum: 1024
>>>>>Begin Spectral Data<<<<<
801.071	2960
801.214	2994
801.356	2887
801.499	2925
801.641	2918
801.783	2952
801.926	3081
802.068	2952
802.211	3032
802.353	3070
802.496	3020
802.638	3043
802.78	3055
802.923	3131
803.065	3039
803.208	2914
803.35	2982
803.492	3009
803.635	2929
803.777	2792
803.919	2872
804.061	3192
804.204	2967
804.346	2922
804.488	2906
804.63	3039
804.773	2891
804.915	2918
805.057	3066
805.199	2967
805.341	2971
805.483	3070
805.626	2982
805.768	2948
805.91	3089
806.052	3135
806.194	3028
806.336	3237
806.478	3058
806.62	2952
806.762	2956
806.904	3043
807.046	3169
807.188	3009
807.33	2910
807.472	2994
807.614	2918
807.756	2971
807.898	2922
808.04	2906
808.182	2986
808.324	2960
808.465	2902
808.607	2872
808.749	2842
808.891	2834
809.033	3017
809.174	2971
809.316	2925
809.458	2906
809.6	2785
809.741	2758
809.883	2796
810.025	2868
810.166	2895
810.308	2853
810.45	2842
810.591	2785
810.733	2792
810.875	2853
811.016	2792
811.158	2762
811.299	2838
811.441	2944
811.582	2914
811.724	2849
811.865	2853
812.007	2899
812.148	2906
812.29	2811
812.431	2891
812.573	2922
812.714	2998
812.855	3062
812.997	3081
813.138	3123
813.279	2994
813.421	2998
813.562	2979
813.703	2849
813.845	2891
813.986	2769
814.127	2758
814.268	2838
814.41	2853
814.551	2800
814.692	2880
814.833	2826
814.974	2902
815.115	2967
815.256	2853
815.397	2815
815.539	2899
815.68	2777
815.821	2807
815.962	2933
816.103	2944
816.244	2849
816.385	2872
816.526	2998
816.666	2963
816.807	2750
816.948	2891
817.089	2944
817.23	2895
817.371	2811
817.512	2819
817.653	2842
817.793	2842
817.934	2906
818.075	2933
818.216	2994
818.356	3051
818.497	2880
818.638	2773
818.778	2853
818.919	2823
819.06	2788
819.2	2880
819.341	2887
819.481	2807
819.622	2963
819.762	3066
819.903	3043
820.043	2944
820.184	2899
820.324	2914
820.465	3009
820.605	2994
820.746	3070
820.886	2902
821.026	3074
821.167	3154
821.307	3268
821.447	3287
821.588	3260
821.728	3188
821.868	3176
822.008	3074
822.149	3230
822.289	3241
822.429	3119
822.569	3154
822.709	3150
822.849	3020
822.99	3058
823.13	3150
823.27	3249
823.41	3119
823.55	3131
823.69	3131
823.83	3195
823.97	3116
824.11	3001
824.25	3020
824.389	3085
824.529	3104
824.669	3062
824.809	3214
824.949	3268
825.089	3241
825.228	3154
825.368	2990
825.508	2929
825.648	2971
825.787	3047
825.927	3032
826.067	2998
826.206	2967
826.346	3036
826.485	3074
826.625	3142
826.765	3233
826.904	3226
827.044	2986
827.183	2914
827.323	2864
827.462	2998
827.601	2941
827.741	2963
827.88	2967
828.02	2868
828.159	2979
828.298	3058
828.437	3123
828.577	3039
828.716	3287
828.855	3085
828.994	2902
829.134	2922
829.273	2922
829.412	2842
829.551	2864
829.69	2899
829.829	2971
829.968	3142
830.107	3043
830.246	3058
830.385	2925
830.524	2895
830.663	2842
830.802	2739
830.941	2663
831.08	2640
831.219	2758
831.357	2750
831.496	2937
831.635	2727
831.774	2636
831.913	2663
832.051	2579
832.19	2541
832.329	2705
832.467	2503
832.606	2511
832.744	2560
832.883	2583
833.022	2613
833.16	2625
833.299	2705
833.437	2724
833.576	2720
833.714	2735
833.852	2731
833.991	2735
834.129	2849
834.267	2823
834.406	2766
834.544	2887
834.682	2899
834.821	2861
834.959	3066
835.097	2876
835.235	3066
835.373	3005
835.511	3005
835.65	2925
835.788	2979
835.926	2880
836.064	2792
836.202	2864
836.34	3066
836.478	3138
836.615	3058
836.753	3112
836.891	3203
837.029	3195
837.167	3135
837.305	3062
837.443	3043
837.58	2952
837.718	3131
837.856	3062
837.993	3020
838.131	3097
838.269	3093
838.406	3142
838.544	3097
838.681	2929
838.819	2929
838.956	2796
839.094	2811
839.231	2933
839.369	3001
839.506	3397
839.643	3233
839.781	3047
839.918	2956
840.055	3089
840.193	3047
840.33	3047
840.467	3085
840.604	3123
840.742	3416
840.879	3058
841.016	3074
841.153	3112
841.29	3329
841.427	3306
841.564	3260
841.701	3336
841.838	3203
841.975	3161
842.112	3207
842.249	3081
842.385	3036
842.522	3253
842.659	3119
842.796	3039
842.933	3074
843.069	3089
843.206	3017
843.343	3146
843.479	3100
843.616	3085
843.752	2914
843.889	2857
844.025	3119
844.162	2906
844.298	3077
844.435	2933
844.571	2929
844.708	3055
844.844	3203
844.98	3230
845.117	3222
845.253	3051
845.389	3005
845.525	3127
845.661	3074
845.798	3013
845.934	3104
846.07	3074
846.206	3218
846.342	3321
846.478	3222
846.614	3066
846.75	3047
846.886	2990
847.022	3268
847.158	3135
847.294	3184
847.429	3264
847.565	3195
847.701	3504
847.837	3066
847.972	3020
848.108	3127
848.244	3135
848.379	2994
848.515	2956
848.65	2925
848.786	2929
848.921	3032
849.057	3123
849.192	3131
849.328	3062
849.463	3116
849.598	3055
849.734	3024
849.869	2986
850.004	2944
850.14	2960
850.275	2948
850.41	2880
850.545	2887
850.68	2952
850.815	2960
850.95	3024
851.085	3184
851.22	3055
851.355	3062
851.49	2967
851.625	3039
851.76	3024
851.895	2944
852.03	2895
852.165	3028
852.299	3108
852.434	3173
852.569	3157
852.703	3173
852.838	3264
852.973	3336
853.107	3340
853.242	3135
853.376	3077
853.511	2979
853.645	3051
853.78	3199
853.914	3100
854.048	3104
854.183	3093
854.317	3123
854.451	3287
854.585	3070
854.72	3097
854.854	3226
854.988	3043
855.122	3062
855.256	2971
855.39	3108
855.524	3237
855.658	3199
855.792	3123
855.926	3195
856.06	3218
856.194	3237
856.327	3138
856.461	3036
856.595	3112
856.729	3100
856.862	3195
856.996	3146
857.13	3218
857.263	3214
857.397	3264
857.53	3089
857.664	3169
857.797	3211
857.931	3260
858.064	3157
858.197	3207
858.331	3093
858.464	3097
858.597	2982
858.731	3089
858.864	3093
858.997	3085
859.13	3188
859.263	3154
859.396	3241
859.529	3127
859.662	3062
859.795	3043
859.928	3169
860.061	3245
860.194	3279
860.327	3146
860.46	3070
860.592	3218
860.725	3241
860.858	3226
860.99	3100
861.123	3085
861.256	3055
861.388	3119
861.521	3896
861.653	3024
861.786	3017
861.918	3020
862.05	3051
862.183	3081
862.315	3173
862.447	3214
862.58	3066
862.712	2952
862.844	2876
862.976	3036
863.108	3013
863.24	3405
863.372	2872
863.504	2971
863.636	2941
863.768	3009
863.9	2956
864.032	2922
864.164	2952
864.296	3001
864.428	3047
864.559	3074
864.691	3047
864.823	3032
864.954	3036
865.086	3051
865.217	2952
865.349	2952
865.48	2982
865.612	3036
865.743	3154
865.875	2990
866.006	2910
866.137	2952
866.269	2948
866.4	2952
866.531	2925
866.662	2895
866.793	2891
866.924	2842
867.055	2960
867.186	2925
867.317	2906
867.448	2834
867.579	2815
867.71	2834
867.841	2762
867.972	2891
868.103	2887
868.233	2853
868.364	2872
868.495	2899
868.625	3066
868.756	3150
868.886	2933
869.017	3043
869.147	3176
869.278	3150
869.408	3039
869.539	3028
869.669	3097
869.799	3047
869.929	3112
870.06	3074
870.19	3359
870.32	3298
870.45	3260
870.58	3351
870.71	3447
870.84	3409
870.97	3279
871.1	3237
871.23	3443
871.36	3424
871.489	3386
871.619	3397
871.749	3405
871.879	3424
872.008	3473
872.138	3370
872.267	3253
872.397	3173
872.526	3108
872.656	3024
872.785	3112
872.915	3249
873.044	3279
873.173	3260
873.303	3245
873.432	3253
873.561	3218
873.69	3173
873.819	3161
873.948	3176
874.077	3100
874.206	3051
874.335	3066
874.464	3230
874.593	3329
874.722	3237
874.851	3386
874.979	3344
875.108	3283
875.237	3199
875.365	3192
875.494	3188
875.623	3218
875.751	3055
875.88	3100
876.008	3184
876.136	3260
876.265	3374
876.393	3488
876.521	3389
876.65	3370
876.778	3317
876.906	3214
877.034	3165
877.162	3207
877.29	3207
877.418	3283
877.546	3230
877.674	3245
877.802	3241
877.93	3214
878.058	3199
878.185	3100
878.313	3150
878.441	3180
878.568	3085
878.696	3173
878.824	3275
878.951	3279
879.079	3447
879.206	3637
879.333	3401
879.461	3313
879.588	3355
879.715	3481
879.842	3576
879.97	3389
880.097	3180
880.224	3150
880.351	3184
880.478	3226
880.605	3203
880.732	3165
880.859	3447
880.986	3329
881.112	3355
881.239	3203
881.366	3074
881.493	3036
881.619	3032
881.746	3074
881.872	3024
881.999	3116
882.125	3176
882.252	3211
882.378	3272
882.505	3401
882.631	3287
882.757	3157
882.883	3230
883.01	3230
883.136	3127
883.262	3066
883.388	3112
883.514	3348
883.64	3367
883.766	3283
883.892	3195
884.018	3199
884.143	3393
884.269	3526
884.395	3211
884.52	3157
884.646	3188
884.772	3116
884.897	3104
885.023	3218
885.148	3332
885.274	3435
885.399	3355
885.524	3321
885.65	3230
885.775	3313
885.9	3264
886.025	3405
886.15	3344
886.275	3325
886.4	3211
886.525	3294
886.65	3241
886.775	3256
886.9	3477
887.025	3606
887.149	3420
887.274	3302
887.399	3180
887.523	3211
887.648	3157
887.773	3211
887.897	3348
888.021	3412
888.146	3272
888.27	3466
888.395	3557
888.519	3443
888.643	3416
888.767	3469
888.891	3291
889.015	3226
889.139	3268
889.263	3203
889.387	3409
889.511	3515
889.635	3424
889.759	3287
889.883	3275
890.006	3409
890.13	3443
890.254	3264
890.377	3329
890.501	3195
890.624	3184
890.748	3306
890.871	3157
890.995	3093
891.118	3051
891.241	3184
891.364	3241
891.488	3321
891.611	3161
891.734	3237
891.857	3298
891.98	3207
892.103	3340
892.226	3268
892.349	3154
892.471	3119
892.594	3264
892.717	3264
892.839	3253
892.962	3291
893.085	3367
893.207	3279
893.33	3138
893.452	3226
893.575	3313
893.697	3249
893.819	3462
893.941	3511
894.064	3454
894.186	3253
894.308	3260
894.43	3443
894.552	3530
894.674	3443
894.796	3230
894.918	3294
895.04	3294
895.161	3424
895.283	3355
895.405	3367
895.526	3389
895.648	3431
895.769	3409
895.891	3428
896.012	3485
896.134	3454
896.255	3412
896.376	3393
896.498	3393
896.619	3431
896.74	3332
896.861	3443
896.982	3625
897.103	3842
897.224	3587
897.345	3519
897.466	3412
897.587	3492
897.708	3641
897.828	3549
897.949	3439
898.07	3348
898.19	3416
898.311	3618
898.431	3481
898.552	3488
898.672	3584
898.792	3545
898.913	3534
899.033	3420
899.153	3264
899.273	3203
899.393	3275
899.513	3298
899.633	3332
899.753	3344
899.873	3317
899.993	3363
900.113	3336
900.232	3393
900.352	3359
900.472	3298
900.591	3207
900.711	3283
900.83	3233
900.95	3439
901.069	3534
901.189	3389
901.308	3184
901.427	3154
901.546	3127
901.665	3340
901.784	3344
901.904	3195
902.023	3173
902.141	2990
902.26	3001
902.379	3112
902.498	3043
902.617	3077
902.735	3195
902.854	3256
902.973	3203
903.091	3024
903.21	3024
903.328	3138
903.446	3127
903.565	3085
903.683	3207
903.801	3108
903.919	3249
904.038	3294
904.156	3195
904.274	3302
904.392	3287
904.51	3275
904.627	3321
904.745	3450
904.863	3492
904.981	3260
905.098	3195
905.216	3275
905.334	3294
905.451	3287
905.569	3317
905.686	3447
905.803	3469
905.921	3272
906.038	3458
906.155	3344
906.272	3241
906.389	3393
906.506	3199
906.623	3279
906.74	3275
906.857	3176
906.974	3256
907.091	3462
907.208	3591
907.324	3492
907.441	3405
907.557	3214
907.674	3218
907.79	3165
907.907	3272
908.023	3363
908.139	3325
908.256	3283
908.372	3378
908.488	3374
908.604	3272
908.72	3233
908.836	3283
908.952	3306
909.068	3340
909.184	3462
909.3	3386
909.415	3469
909.531	3454
909.647	3268
909.762	3306
909.878	3298
909.993	3336
910.108	3336
910.224	3325
910.339	3416
910.454	3344
910.57	3294
910.685	3249
910.8	3625
910.915	3523
911.03	3447
911.145	3245
911.259	3241
911.374	3298
911.489	3245
911.604	3226
911.718	3127
911.833	3165
911.947	3058
912.062	2971
912.176	3199
912.291	3184
912.405	3222
912.519	3431
912.633	3443
912.748	3317
912.862	3283
912.976	3150
913.09	3028
913.204	3123
913.318	3226
913.431	3336
913.545	3325
913.659	3443
913.772	3348
913.886	3207
914	3195
914.113	3367
914.226	3412
914.34	3378
914.453	3230
914.566	3386
914.68	3260
914.793	3306
914.906	3135
915.019	3116
915.132	3020
915.245	3154
915.358	3199
915.47	3207
915.583	3241
915.696	3256
915.809	3389
915.921	3424
916.034	3256
916.146	3268
916.259	3222
916.371	3363
916.483	3351
916.595	3275
916.708	3344
916.82	3344
916.932	3336
917.044	3359
917.156	3325
917.268	3233
917.38	3256
917.491	3306
917.603	3355
917.715	3450
917.826	3466
917.938	3367
918.049	3268
918.161	3409
918.272	3595
918.384	3584
918.495	3462
918.606	3344
918.717	3291
918.828	3355
918.939	3393
919.05	3310
919.161	3382
919.272	3176
919.383	3291
919.494	3488
919.604	3656
919.715	3492
919.826	3397
919.936	3466
920.047	3580
920.157	3568
920.267	3762
920.378	3603
920.488	3587
920.598	3800
920.708	4002
920.818	3819
920.928	3846
921.038	4029
921.148	4017
921.258	3751
921.368	3667
921.477	3526
921.587	3587
921.697	3458
921.806	3618
921.916	3507
922.025	3313
922.134	3332
922.244	3317
922.353	3389
922.462	3279
922.571	3268
922.68	3077
922.789	3085
922.898	3161
923.007	3097
923.116	3207
923.224	3157
923.333	3157
923.442	3074
923.55	3097
923.659	3127
923.767	3241
923.876	3108
923.984	3237
924.092	3093
924.201	3207
924.309	3253
924.417	3233
924.525	3203
924.633	3249
924.741	4010
924.849	3043
924.956	3249
925.064	3138
925.172	3039
925.279	3093
925.387	3214
925.494	3157
925.602	3363
925.709	3340
925.816	3199
925.924	3268
926.031	3363
926.138	3340
926.245	3382
926.352	3256
926.459	3367
926.566	3477
926.673	3336
926.779	3283
926.886	3211
926.993	3150
927.099	3123
927.206	3097
927.312	3127
927.419	3199
927.525	3222
927.631	3287
927.737	3142
927.843	3131
927.95	3013
928.056	3135
928.162	3173
928.267	3233
928.373	3880
928.479	3264
928.585	3055
928.69	3230
928.796	3268
928.901	3180
929.007	3047
929.112	3233
929.218	3146
929.323	3157
929.428	3199
929.533	3310
929.638	3119
929.743	3184
929.848	3264
929.953	3199
930.058	3127
930.163	2982
930.267	3058
930.372	3173
930.477	3001
930.581	3332
930.685	3176
930.79	3047
930.894	3131
930.998	3062
931.103	3298
931.207	2960
931.311	2933
931.415	2941
931.519	2785
931.623	2830
