Data from test_V78500241_472.txt Node
Date: Fri Mar 25 16:18:28 CST 2022
User: usil
Spectrometer: V785-0024
Trigger mode: 0
Integration Time (sec): 4.000000E-1
Scans to average: 1
Nonlinearity correction enabled: false
Boxcar width: 0
Storing dark spectrum: false
XAxis mode: Wavelengths
Number of Pixels in Spectrum: 1024
>>>>>Begin Spectral Data<<<<<
801.071	2910
801.214	2933
801.356	2864
801.499	2891
801.641	2899
801.783	2887
801.926	3081
802.068	2948
802.211	2979
802.353	3024
802.496	2975
802.638	2990
802.78	3036
802.923	3097
803.065	3001
803.208	2876
803.35	2899
803.492	2948
803.635	2906
803.777	2766
803.919	2849
804.061	3207
804.204	2944
804.346	2910
804.488	2826
804.63	2982
804.773	2887
804.915	2914
805.057	3055
805.199	2956
805.341	2963
805.483	3043
805.626	3013
805.768	2971
805.91	3051
806.052	3077
806.194	3020
806.336	3192
806.478	3020
806.62	2956
806.762	2990
806.904	3047
807.046	3154
807.188	2998
807.33	2922
807.472	2960
807.614	2910
807.756	2986
807.898	2902
808.04	2880
808.182	2982
808.324	2956
808.465	2864
808.607	2857
808.749	2811
808.891	2842
809.033	2994
809.174	3001
809.316	2895
809.458	2883
809.6	2758
809.741	2769
809.883	2792
810.025	2834
810.166	2834
810.308	2830
810.45	2845
810.591	2766
810.733	2769
810.875	2800
811.016	2826
811.158	2762
811.299	2830
811.441	2902
811.582	2895
811.724	2838
811.865	2807
812.007	2864
812.148	2864
812.29	2849
812.431	2887
812.573	2937
812.714	2956
812.855	3077
812.997	3043
813.138	3119
813.279	2986
813.421	2979
813.562	2971
813.703	2857
813.845	2895
813.986	2762
814.127	2693
814.268	2842
814.41	2849
814.551	2826
814.692	2876
814.833	2773
814.974	2872
815.115	2937
815.256	2834
815.397	2807
815.539	2849
815.68	2807
815.821	2819
815.962	2891
816.103	2937
816.244	2906
816.385	2872
816.526	2941
816.666	2914
816.807	2750
816.948	2864
817.089	2899
817.23	2853
817.371	2788
817.512	2762
817.653	2830
817.793	2819
817.934	2834
818.075	2963
818.216	2960
818.356	2990
818.497	2887
818.638	2804
818.778	2811
818.919	2781
819.06	2750
819.2	2891
819.341	2792
819.481	2819
819.622	2902
819.762	3104
819.903	3081
820.043	2914
820.184	2899
820.324	2872
820.465	3009
820.605	3039
820.746	3001
820.886	2933
821.026	3097
821.167	3169
821.307	3207
821.447	3256
821.588	3211
821.728	3230
821.868	3203
822.008	3058
822.149	3184
822.289	3195
822.429	3074
822.569	3097
822.709	3169
822.849	3028
822.99	3036
823.13	3154
823.27	3188
823.41	3108
823.55	3188
823.69	3142
823.83	3184
823.97	3074
824.11	3001
824.25	3001
824.389	3043
824.529	3119
824.669	3074
824.809	3165
824.949	3253
825.089	3199
825.228	3138
825.368	3009
825.508	2967
825.648	2937
825.787	3039
825.927	3009
826.067	3013
826.206	2956
826.346	3077
826.485	3070
826.625	3123
826.765	3256
826.904	3203
827.044	2990
827.183	2891
827.323	2857
827.462	2963
827.601	2864
827.741	2906
827.88	2967
828.02	2876
828.159	2941
828.298	3043
828.437	3047
828.577	3028
828.716	3256
828.855	3089
828.994	2929
829.134	2861
829.273	2922
829.412	2883
829.551	2861
829.69	2880
829.829	2960
829.968	3138
830.107	2982
830.246	2998
830.385	2891
830.524	2872
830.663	2796
830.802	2720
830.941	2613
831.08	2610
831.219	2746
831.357	2746
831.496	2914
831.635	2724
831.774	2655
831.913	2682
832.051	2530
832.19	2594
832.329	2686
832.467	2541
832.606	2484
832.744	2545
832.883	2606
833.022	2621
833.16	2670
833.299	2678
833.437	2670
833.576	2686
833.714	2716
833.852	2724
833.991	2788
834.129	2819
834.267	2834
834.406	2743
834.544	2845
834.682	2861
834.821	2883
834.959	3028
835.097	2861
835.235	3020
835.373	2994
835.511	3013
835.65	2975
835.788	2899
835.926	2834
836.064	2792
836.202	2838
836.34	3077
836.478	3157
836.615	3093
836.753	3112
836.891	3241
837.029	3180
837.167	3070
837.305	3058
837.443	3017
837.58	2952
837.718	3062
837.856	3051
837.993	3028
838.131	3104
838.269	3093
838.406	3074
838.544	3127
838.681	2891
838.819	2910
838.956	2792
839.094	2834
839.231	2910
839.369	2998
839.506	3378
839.643	3230
839.781	3024
839.918	2941
840.055	3032
840.193	3039
840.33	3047
840.467	3093
840.604	3157
840.742	3378
840.879	3047
841.016	3005
841.153	3131
841.29	3332
841.427	3298
841.564	3272
841.701	3325
841.838	3253
841.975	3146
842.112	3207
842.249	3039
842.385	3043
842.522	3241
842.659	3093
842.796	3043
842.933	3093
843.069	3051
843.206	3043
843.343	3199
843.479	3085
843.616	3104
843.752	2876
843.889	2883
844.025	3085
844.162	2887
844.298	3070
844.435	2960
844.571	2918
844.708	3081
844.844	3157
844.98	3237
845.117	3226
845.253	3020
845.389	2990
845.525	3104
845.661	3127
845.798	3001
845.934	3097
846.07	3036
846.206	3180
846.342	3306
846.478	3207
846.614	3062
846.75	3047
846.886	3017
847.022	3222
847.158	3108
847.294	3188
847.429	3245
847.565	3214
847.701	3454
847.837	3024
847.972	3024
848.108	3135
848.244	3119
848.379	2975
848.515	2952
848.65	2941
848.786	2952
848.921	3039
849.057	3116
849.192	3097
849.328	3020
849.463	3055
849.598	3062
849.734	3001
849.869	2986
850.004	2937
850.14	2948
850.275	2910
850.41	2815
850.545	2868
850.68	2929
850.815	2933
850.95	2994
851.085	3203
851.22	3077
851.355	3058
851.49	3017
851.625	3013
851.76	3009
851.895	2910
852.03	2967
852.165	3039
852.299	3097
852.434	3154
852.569	3131
852.703	3154
852.838	3237
852.973	3336
853.107	3332
853.242	3116
853.376	3077
853.511	2948
853.645	3062
853.78	3245
853.914	3089
854.048	3108
854.183	3085
854.317	3142
854.451	3275
854.585	3119
854.72	3051
854.854	3169
854.988	3051
855.122	3093
855.256	2986
855.39	3062
855.524	3192
855.658	3161
855.792	3116
855.926	3176
856.06	3169
856.194	3211
856.327	3138
856.461	3070
856.595	3081
856.729	3066
856.862	3169
856.996	3146
857.13	3195
857.263	3195
857.397	3272
857.53	3112
857.664	3173
857.797	3230
857.931	3260
858.064	3214
858.197	3203
858.331	3123
858.464	3104
858.597	3001
858.731	3112
858.864	3119
858.997	3093
859.13	3146
859.263	3165
859.396	3195
859.529	3081
859.662	3062
859.795	3062
859.928	3119
860.061	3256
860.194	3275
860.327	3150
860.46	3062
860.592	3218
860.725	3272
860.858	3264
860.99	3089
861.123	3028
861.256	3043
861.388	3100
861.521	3975
861.653	3013
861.786	3032
861.918	3032
862.05	3066
862.183	3097
862.315	3146
862.447	3214
862.58	3058
862.712	2948
862.844	2857
862.976	3020
863.108	3017
863.24	3325
863.372	2880
863.504	2960
863.636	2914
863.768	3039
863.9	2971
864.032	2918
864.164	2922
864.296	2990
864.428	3058
864.559	3104
864.691	3039
864.823	3089
864.954	3036
865.086	3028
865.217	2967
865.349	2937
865.48	3013
865.612	3013
865.743	3131
865.875	2990
866.006	2952
866.137	2971
866.269	2925
866.4	2914
866.531	2906
866.662	2872
866.793	2914
866.924	2895
867.055	2960
867.186	2933
867.317	2891
867.448	2853
867.579	2853
867.71	2849
867.841	2804
867.972	2895
868.103	2883
868.233	2861
868.364	2864
868.495	2883
868.625	3051
868.756	3176
868.886	2963
869.017	3020
869.147	3176
869.278	3184
869.408	3066
869.539	2990
869.669	3097
869.799	3020
869.929	3154
870.06	3112
870.19	3302
870.32	3275
870.45	3332
870.58	3382
870.71	3500
870.84	3439
870.97	3325
871.1	3218
871.23	3462
871.36	3435
871.489	3382
871.619	3382
871.749	3420
871.879	3382
872.008	3473
872.138	3355
872.267	3253
872.397	3112
872.526	3100
872.656	2998
872.785	3089
872.915	3253
873.044	3317
873.173	3237
873.303	3165
873.432	3230
873.561	3237
873.69	3146
873.819	3123
873.948	3207
874.077	3093
874.206	3032
874.335	3077
874.464	3241
874.593	3313
874.722	3249
874.851	3386
874.979	3321
875.108	3310
875.237	3214
875.365	3169
875.494	3192
875.623	3249
875.751	3116
875.88	3097
876.008	3207
876.136	3233
876.265	3359
876.393	3507
876.521	3370
876.65	3378
876.778	3332
876.906	3226
877.034	3188
877.162	3192
877.29	3157
877.418	3256
877.546	3222
877.674	3199
877.802	3230
877.93	3207
878.058	3116
878.185	3135
878.313	3188
878.441	3199
878.568	3081
878.696	3138
878.824	3264
878.951	3279
879.079	3450
879.206	3641
879.333	3435
879.461	3348
879.588	3367
879.715	3485
879.842	3572
879.97	3389
880.097	3161
880.224	3108
880.351	3176
880.478	3241
880.605	3176
880.732	3192
880.859	3469
880.986	3291
881.112	3348
881.239	3173
881.366	3123
881.493	3032
881.619	3039
881.746	3036
881.872	3070
881.999	3055
882.125	3142
882.252	3207
882.378	3260
882.505	3397
882.631	3313
882.757	3161
882.883	3207
883.01	3233
883.136	3154
883.262	3112
883.388	3123
883.514	3287
883.64	3370
883.766	3256
883.892	3192
884.018	3283
884.143	3393
884.269	3526
884.395	3214
884.52	3169
884.646	3157
884.772	3108
884.897	3081
885.023	3176
885.148	3367
885.274	3401
885.399	3367
885.524	3291
885.65	3268
885.775	3306
885.9	3291
886.025	3443
886.15	3412
886.275	3291
886.4	3245
886.525	3287
886.65	3272
886.775	3222
886.9	3485
887.025	3633
887.149	3386
887.274	3264
887.399	3180
887.523	3165
887.648	3165
887.773	3169
887.897	3393
888.021	3378
888.146	3291
888.27	3450
888.395	3500
888.519	3424
888.643	3431
888.767	3466
888.891	3336
889.015	3264
889.139	3275
889.263	3226
889.387	3420
889.511	3500
889.635	3405
889.759	3291
889.883	3268
890.006	3382
890.13	3500
890.254	3245
890.377	3340
890.501	3184
890.624	3203
890.748	3294
890.871	3199
890.995	3081
891.118	3047
891.241	3176
891.364	3207
891.488	3283
891.611	3195
891.734	3218
891.857	3253
891.98	3230
892.103	3283
892.226	3268
892.349	3199
892.471	3127
892.594	3233
892.717	3294
892.839	3260
892.962	3291
893.085	3325
893.207	3302
893.33	3135
893.452	3203
893.575	3370
893.697	3279
893.819	3466
893.941	3488
894.064	3469
894.186	3275
894.308	3241
894.43	3435
894.552	3538
894.674	3477
894.796	3275
894.918	3306
895.04	3249
895.161	3454
895.283	3412
895.405	3279
895.526	3367
895.648	3386
895.769	3428
895.891	3450
896.012	3477
896.134	3485
896.255	3412
896.376	3412
896.498	3336
896.619	3443
896.74	3332
896.861	3386
896.982	3686
897.103	3823
897.224	3557
897.345	3507
897.466	3416
897.587	3488
897.708	3648
897.828	3534
897.949	3447
898.07	3325
898.19	3401
898.311	3549
898.431	3412
898.552	3447
898.672	3587
898.792	3534
898.913	3542
899.033	3424
899.153	3298
899.273	3165
899.393	3283
899.513	3287
899.633	3332
899.753	3321
899.873	3275
899.993	3351
900.113	3317
900.232	3370
900.352	3348
900.472	3287
900.591	3192
900.711	3313
900.83	3222
900.95	3458
901.069	3488
901.189	3359
901.308	3138
901.427	3142
901.546	3184
901.665	3275
901.784	3340
901.904	3203
902.023	3176
902.141	3020
902.26	3024
902.379	3142
902.498	3070
902.617	3017
902.735	3222
902.854	3256
902.973	3169
903.091	3066
903.21	3047
903.328	3146
903.446	3123
903.565	3085
903.683	3180
903.801	3127
903.919	3245
904.038	3249
904.156	3157
904.274	3291
904.392	3260
904.51	3275
904.627	3287
904.745	3401
904.863	3485
904.981	3275
905.098	3146
905.216	3230
905.334	3298
905.451	3291
905.569	3306
905.686	3420
905.803	3454
905.921	3306
906.038	3424
906.155	3351
906.272	3302
906.389	3310
906.506	3241
906.623	3283
906.74	3287
906.857	3176
906.974	3283
907.091	3416
907.208	3561
907.324	3492
907.441	3348
907.557	3192
907.674	3245
907.79	3245
907.907	3260
908.023	3370
908.139	3416
908.256	3306
908.372	3351
908.488	3351
908.604	3260
908.72	3233
908.836	3291
908.952	3253
909.068	3386
909.184	3496
909.3	3393
909.415	3485
909.531	3424
909.647	3279
909.762	3275
909.878	3256
909.993	3386
910.108	3325
910.224	3348
910.339	3378
910.454	3321
910.57	3291
910.685	3230
910.8	3595
910.915	3500
911.03	3409
911.145	3207
911.259	3283
911.374	3348
911.489	3249
911.604	3207
911.718	3089
911.833	3142
911.947	3028
912.062	2975
912.176	3150
912.291	3188
912.405	3214
912.519	3428
912.633	3454
912.748	3378
912.862	3233
912.976	3154
913.09	3081
913.204	3127
913.318	3192
913.431	3329
913.545	3317
913.659	3412
913.772	3348
913.886	3211
914	3173
914.113	3355
914.226	3450
914.34	3397
914.453	3199
914.566	3409
914.68	3241
914.793	3325
914.906	3116
915.019	3074
915.132	3036
915.245	3192
915.358	3222
915.47	3256
915.583	3222
915.696	3325
915.809	3416
915.921	3435
916.034	3260
916.146	3233
916.259	3214
916.371	3370
916.483	3370
916.595	3283
916.708	3310
916.82	3329
916.932	3329
917.044	3332
917.156	3329
917.268	3260
917.38	3317
917.491	3287
917.603	3332
917.715	3424
917.826	3485
917.938	3374
918.049	3268
918.161	3439
918.272	3591
918.384	3519
918.495	3515
918.606	3344
918.717	3291
918.828	3351
918.939	3409
919.05	3321
919.161	3363
919.272	3176
919.383	3310
919.494	3507
919.604	3625
919.715	3481
919.826	3397
919.936	3435
920.047	3580
920.157	3542
920.267	3778
920.378	3660
920.488	3568
920.598	3778
920.708	3915
920.818	3854
920.928	3857
921.038	4006
921.148	3949
921.258	3698
921.368	3633
921.477	3545
921.587	3504
921.697	3469
921.806	3606
921.916	3485
922.025	3344
922.134	3351
922.244	3321
922.353	3431
922.462	3283
922.571	3222
922.68	3081
922.789	3074
922.898	3127
923.007	3085
923.116	3180
923.224	3150
923.333	3169
923.442	3097
923.55	3131
923.659	3116
923.767	3245
923.876	3127
923.984	3249
924.092	3070
924.201	3237
924.309	3199
924.417	3249
924.525	3195
924.633	3218
924.741	4017
924.849	3070
924.956	3279
925.064	3127
925.172	3013
925.279	3085
925.387	3192
925.494	3173
925.602	3355
925.709	3340
925.816	3211
925.924	3332
926.031	3374
926.138	3321
926.245	3336
926.352	3298
926.459	3351
926.566	3458
926.673	3306
926.779	3222
926.886	3256
926.993	3157
927.099	3135
927.206	3116
927.312	3112
927.419	3192
927.525	3211
927.631	3260
927.737	3142
927.843	3104
927.95	3039
928.056	3180
928.162	3150
928.267	3230
928.373	3766
928.479	3332
928.585	3097
928.69	3199
928.796	3241
928.901	3176
929.007	3047
929.112	3195
929.218	3157
929.323	3131
929.428	3146
929.533	3268
929.638	3138
929.743	3150
929.848	3245
929.953	3199
930.058	3157
930.163	3032
930.267	3009
930.372	3195
930.477	3024
930.581	3336
930.685	3192
930.79	3051
930.894	3093
930.998	3093
931.103	3294
931.207	2952
931.311	2941
931.415	2895
931.519	2758
931.623	2800
