Data from test_V78500241_1174.txt Node
Date: Fri Mar 25 16:23:20 CST 2022
User: usil
Spectrometer: V785-0024
Trigger mode: 0
Integration Time (sec): 4.000000E-1
Scans to average: 1
Nonlinearity correction enabled: false
Boxcar width: 0
Storing dark spectrum: false
XAxis mode: Wavelengths
Number of Pixels in Spectrum: 1024
>>>>>Begin Spectral Data<<<<<
801.071	2918
801.214	2948
801.356	2819
801.499	2891
801.641	2838
801.783	2910
801.926	3032
802.068	2982
802.211	3013
802.353	3005
802.496	2941
802.638	2971
802.78	3032
802.923	3081
803.065	3001
803.208	2891
803.35	2910
803.492	2906
803.635	2952
803.777	2739
803.919	2861
804.061	3184
804.204	2929
804.346	2876
804.488	2853
804.63	2982
804.773	2891
804.915	2914
805.057	3017
805.199	2887
805.341	2937
805.483	3024
805.626	2994
805.768	2967
805.91	3062
806.052	3127
806.194	3062
806.336	3207
806.478	3009
806.62	2944
806.762	2967
806.904	3032
807.046	3173
807.188	2971
807.33	2918
807.472	2963
807.614	2933
807.756	3005
807.898	2902
808.04	2899
808.182	2975
808.324	2941
808.465	2895
808.607	2861
808.749	2804
808.891	2845
809.033	2982
809.174	2982
809.316	2891
809.458	2853
809.6	2788
809.741	2731
809.883	2766
810.025	2834
810.166	2864
810.308	2823
810.45	2842
810.591	2746
810.733	2762
810.875	2838
811.016	2788
811.158	2739
811.299	2788
811.441	2941
811.582	2933
811.724	2830
811.865	2823
812.007	2887
812.148	2895
812.29	2880
812.431	2883
812.573	2899
812.714	2956
812.855	3005
812.997	3032
813.138	3146
813.279	2998
813.421	2948
813.562	2952
813.703	2902
813.845	2906
813.986	2785
814.127	2750
814.268	2815
814.41	2796
814.551	2811
814.692	2849
814.833	2842
814.974	2887
815.115	2967
815.256	2811
815.397	2781
815.539	2895
815.68	2777
815.821	2781
815.962	2944
816.103	2914
816.244	2899
816.385	2834
816.526	2948
816.666	2906
816.807	2712
816.948	2853
817.089	2883
817.23	2857
817.371	2743
817.512	2781
817.653	2804
817.793	2853
817.934	2853
818.075	2979
818.216	2971
818.356	2979
818.497	2872
818.638	2788
818.778	2796
818.919	2792
819.06	2762
819.2	2842
819.341	2807
819.481	2777
819.622	2910
819.762	3089
819.903	3058
820.043	2937
820.184	2880
820.324	2895
820.465	3032
820.605	3013
820.746	3017
820.886	2937
821.026	3112
821.167	3150
821.307	3275
821.447	3279
821.588	3211
821.728	3207
821.868	3157
822.008	3028
822.149	3173
822.289	3222
822.429	3077
822.569	3062
822.709	3142
822.849	3009
822.99	3089
823.13	3165
823.27	3154
823.41	3116
823.55	3123
823.69	3138
823.83	3169
823.97	3089
824.11	2994
824.25	2975
824.389	3055
824.529	3081
824.669	3097
824.809	3176
824.949	3188
825.089	3203
825.228	3146
825.368	3009
825.508	2956
825.648	2948
825.787	3028
825.927	3028
826.067	2994
826.206	2952
826.346	3036
826.485	3089
826.625	3081
826.765	3253
826.904	3199
827.044	2975
827.183	2941
827.323	2834
827.462	2963
827.601	2914
827.741	2937
827.88	2944
828.02	2857
828.159	2982
828.298	3001
828.437	3070
828.577	3036
828.716	3233
828.855	3062
828.994	2922
829.134	2880
829.273	2906
829.412	2880
829.551	2845
829.69	2891
829.829	2979
829.968	3108
830.107	2971
830.246	3047
830.385	2941
830.524	2880
830.663	2815
830.802	2708
830.941	2590
831.08	2632
831.219	2754
831.357	2720
831.496	2948
831.635	2720
831.774	2655
831.913	2636
832.051	2522
832.19	2552
832.329	2663
832.467	2495
832.606	2473
832.744	2571
832.883	2571
833.022	2587
833.16	2640
833.299	2678
833.437	2682
833.576	2701
833.714	2693
833.852	2720
833.991	2777
834.129	2807
834.267	2834
834.406	2811
834.544	2815
834.682	2819
834.821	2887
834.959	3051
835.097	2891
835.235	3005
835.373	2979
835.511	2998
835.65	2967
835.788	2975
835.926	2819
836.064	2785
836.202	2868
836.34	3043
836.478	3135
836.615	3001
836.753	3119
836.891	3195
837.029	3135
837.167	3097
837.305	3085
837.443	3024
837.58	2952
837.718	3112
837.856	3085
837.993	3013
838.131	3112
838.269	3093
838.406	3081
838.544	3100
838.681	2910
838.819	2891
838.956	2785
839.094	2815
839.231	2914
839.369	3005
839.506	3363
839.643	3211
839.781	2994
839.918	2929
840.055	3028
840.193	3058
840.33	3058
840.467	3058
840.604	3093
840.742	3351
840.879	3058
841.016	3058
841.153	3055
841.29	3298
841.427	3272
841.564	3260
841.701	3264
841.838	3203
841.975	3150
842.112	3214
842.249	3085
842.385	3024
842.522	3214
842.659	3066
842.796	3062
842.933	3104
843.069	3047
843.206	3043
843.343	3154
843.479	3062
843.616	3131
843.752	2891
843.889	2864
844.025	3047
844.162	2834
844.298	3028
844.435	2933
844.571	2902
844.708	3055
844.844	3165
844.98	3222
845.117	3165
845.253	3024
845.389	3001
845.525	3085
845.661	3085
845.798	3028
845.934	3093
846.07	3017
846.206	3188
846.342	3294
846.478	3188
846.614	3081
846.75	3062
846.886	2994
847.022	3211
847.158	3093
847.294	3150
847.429	3211
847.565	3199
847.701	3500
847.837	2986
847.972	2986
848.108	3123
848.244	3138
848.379	2975
848.515	2925
848.65	2952
848.786	2929
848.921	2956
849.057	3062
849.192	3161
849.328	3070
849.463	3104
849.598	3047
849.734	3001
849.869	2948
850.004	2922
850.14	2963
850.275	2952
850.41	2807
850.545	2838
850.68	2910
850.815	2956
850.95	2952
851.085	3188
851.22	3077
851.355	3013
851.49	2963
851.625	2986
851.76	3024
851.895	2914
852.03	2922
852.165	2990
852.299	3100
852.434	3146
852.569	3146
852.703	3157
852.838	3226
852.973	3351
853.107	3321
853.242	3154
853.376	3119
853.511	2990
853.645	3017
853.78	3237
853.914	3131
854.048	3135
854.183	3070
854.317	3150
854.451	3298
854.585	3161
854.72	3070
854.854	3207
854.988	3055
855.122	3100
855.256	2963
855.39	3093
855.524	3264
855.658	3188
855.792	3192
855.926	3180
856.06	3233
856.194	3279
856.327	3173
856.461	3074
856.595	3108
856.729	3112
856.862	3275
856.996	3165
857.13	3241
857.263	3279
857.397	3268
857.53	3146
857.664	3211
857.797	3272
857.931	3264
858.064	3195
858.197	3233
858.331	3161
858.464	3150
858.597	2998
858.731	3142
858.864	3184
858.997	3127
859.13	3188
859.263	3207
859.396	3256
859.529	3135
859.662	3108
859.795	3093
859.928	3176
860.061	3302
860.194	3321
860.327	3188
860.46	3169
860.592	3226
860.725	3275
860.858	3298
860.99	3157
861.123	3108
861.256	3100
861.388	3199
861.521	3785
861.653	3074
861.786	3020
861.918	3070
862.05	3062
862.183	3123
862.315	3161
862.447	3268
862.58	3161
862.712	2998
862.844	2902
862.976	3043
863.108	2998
863.24	3363
863.372	2906
863.504	2971
863.636	2975
863.768	3051
863.9	3047
864.032	2944
864.164	2982
864.296	3039
864.428	3138
864.559	3131
864.691	3089
864.823	3108
864.954	3051
865.086	3074
865.217	3017
865.349	3039
865.48	3020
865.612	3077
865.743	3169
865.875	2967
866.006	2963
866.137	2990
866.269	2979
866.4	2952
866.531	2929
866.662	2906
866.793	2948
866.924	2944
867.055	3005
867.186	2963
867.317	2952
867.448	2876
867.579	2868
867.71	2876
867.841	2849
867.972	2948
868.103	2929
868.233	2922
868.364	2899
868.495	2933
868.625	3127
868.756	3230
868.886	3005
869.017	3058
869.147	3214
869.278	3222
869.408	3089
869.539	3074
869.669	3108
869.799	3062
869.929	3203
870.06	3142
870.19	3348
870.32	3283
870.45	3332
870.58	3355
870.71	3477
870.84	3534
870.97	3306
871.1	3264
871.23	3519
871.36	3469
871.489	3386
871.619	3424
871.749	3443
871.879	3466
872.008	3530
872.138	3382
872.267	3283
872.397	3180
872.526	3157
872.656	3051
872.785	3142
872.915	3241
873.044	3363
873.173	3214
873.303	3275
873.432	3313
873.561	3249
873.69	3173
873.819	3116
873.948	3169
874.077	3131
874.206	3097
874.335	3135
874.464	3237
874.593	3405
874.722	3272
874.851	3401
874.979	3351
875.108	3363
875.237	3226
875.365	3173
875.494	3150
875.623	3256
875.751	3119
875.88	3142
876.008	3218
876.136	3268
876.265	3374
876.393	3511
876.521	3447
876.65	3431
876.778	3359
876.906	3268
877.034	3241
877.162	3283
877.29	3230
877.418	3264
877.546	3272
877.674	3291
877.802	3222
877.93	3237
878.058	3154
878.185	3119
878.313	3226
878.441	3226
878.568	3077
878.696	3138
878.824	3283
878.951	3313
879.079	3450
879.206	3648
879.333	3485
879.461	3389
879.588	3397
879.715	3564
879.842	3587
879.97	3401
880.097	3184
880.224	3154
880.351	3233
880.478	3214
880.605	3211
880.732	3249
880.859	3469
880.986	3321
881.112	3348
881.239	3218
881.366	3081
881.493	3093
881.619	3047
881.746	3108
881.872	3119
881.999	3123
882.125	3207
882.252	3253
882.378	3279
882.505	3443
882.631	3336
882.757	3165
882.883	3256
883.01	3256
883.136	3195
883.262	3127
883.388	3119
883.514	3325
883.64	3374
883.766	3325
883.892	3188
884.018	3260
884.143	3439
884.269	3542
884.395	3253
884.52	3150
884.646	3188
884.772	3161
884.897	3131
885.023	3279
885.148	3374
885.274	3435
885.399	3393
885.524	3279
885.65	3287
885.775	3340
885.9	3336
886.025	3454
886.15	3431
886.275	3325
886.4	3241
886.525	3310
886.65	3313
886.775	3283
886.9	3485
887.025	3618
887.149	3450
887.274	3237
887.399	3195
887.523	3192
887.648	3222
887.773	3192
887.897	3378
888.021	3439
888.146	3332
888.27	3466
888.395	3568
888.519	3443
888.643	3424
888.767	3504
888.891	3363
889.015	3249
889.139	3302
889.263	3279
889.387	3477
889.511	3564
889.635	3488
889.759	3294
889.883	3306
890.006	3393
890.13	3507
890.254	3306
890.377	3370
890.501	3218
890.624	3218
890.748	3321
890.871	3203
890.995	3142
891.118	3100
891.241	3218
891.364	3222
891.488	3355
891.611	3161
891.734	3245
891.857	3321
891.98	3214
892.103	3378
892.226	3302
892.349	3218
892.471	3135
892.594	3264
892.717	3348
892.839	3329
892.962	3332
893.085	3348
893.207	3340
893.33	3173
893.452	3226
893.575	3348
893.697	3249
893.819	3500
893.941	3557
894.064	3473
894.186	3256
894.308	3294
894.43	3424
894.552	3572
894.674	3485
894.796	3279
894.918	3355
895.04	3348
895.161	3409
895.283	3420
895.405	3317
895.526	3378
895.648	3469
895.769	3439
895.891	3443
896.012	3519
896.134	3477
896.255	3492
896.376	3382
896.498	3389
896.619	3428
896.74	3412
896.861	3416
896.982	3751
897.103	3861
897.224	3603
897.345	3523
897.466	3458
897.587	3530
897.708	3610
897.828	3595
897.949	3462
898.07	3351
898.19	3412
898.311	3618
898.431	3492
898.552	3519
898.672	3595
898.792	3545
898.913	3526
899.033	3428
899.153	3344
899.273	3230
899.393	3313
899.513	3340
899.633	3344
899.753	3351
899.873	3355
899.993	3374
900.113	3382
900.232	3412
900.352	3344
900.472	3317
900.591	3218
900.711	3306
900.83	3245
900.95	3450
901.069	3492
901.189	3351
901.308	3211
901.427	3146
901.546	3218
901.665	3302
901.784	3336
901.904	3233
902.023	3192
902.141	3028
902.26	2998
902.379	3184
902.498	3085
902.617	3066
902.735	3207
902.854	3233
902.973	3230
903.091	3062
903.21	3017
903.328	3146
903.446	3135
903.565	3089
903.683	3222
903.801	3100
903.919	3272
904.038	3336
904.156	3161
904.274	3336
904.392	3275
904.51	3302
904.627	3378
904.745	3420
904.863	3488
904.981	3302
905.098	3173
905.216	3256
905.334	3306
905.451	3329
905.569	3351
905.686	3424
905.803	3412
905.921	3260
906.038	3481
906.155	3389
906.272	3310
906.389	3344
906.506	3241
906.623	3283
906.74	3306
906.857	3199
906.974	3268
907.091	3466
907.208	3568
907.324	3511
907.441	3412
907.557	3275
907.674	3241
907.79	3203
907.907	3294
908.023	3386
908.139	3382
908.256	3332
908.372	3344
908.488	3348
908.604	3264
908.72	3268
908.836	3260
908.952	3310
909.068	3359
909.184	3485
909.3	3443
909.415	3504
909.531	3496
909.647	3275
909.762	3287
909.878	3260
909.993	3348
910.108	3344
910.224	3332
910.339	3405
910.454	3332
910.57	3310
910.685	3230
910.8	3599
910.915	3553
911.03	3462
911.145	3279
911.259	3287
911.374	3351
911.489	3230
911.604	3253
911.718	3108
911.833	3173
911.947	3062
912.062	3024
912.176	3226
912.291	3207
912.405	3180
912.519	3443
912.633	3477
912.748	3298
912.862	3279
912.976	3180
913.09	3081
913.204	3154
913.318	3260
913.431	3370
913.545	3344
913.659	3416
913.772	3393
913.886	3211
914	3222
914.113	3374
914.226	3443
914.34	3409
914.453	3207
914.566	3428
914.68	3317
914.793	3344
914.906	3146
915.019	3119
915.132	3066
915.245	3176
915.358	3161
915.47	3245
915.583	3218
915.696	3306
915.809	3401
915.921	3435
916.034	3226
916.146	3245
916.259	3233
916.371	3393
916.483	3355
916.595	3253
916.708	3359
916.82	3325
916.932	3382
917.044	3355
917.156	3367
917.268	3256
917.38	3325
917.491	3291
917.603	3363
917.715	3431
917.826	3443
917.938	3393
918.049	3283
918.161	3416
918.272	3572
918.384	3545
918.495	3485
918.606	3336
918.717	3291
918.828	3370
918.939	3447
919.05	3283
919.161	3401
919.272	3195
919.383	3302
919.494	3519
919.604	3667
919.715	3477
919.826	3424
919.936	3462
920.047	3591
920.157	3591
920.267	3717
920.378	3614
920.488	3564
920.598	3770
920.708	3994
920.818	3823
920.928	3857
921.038	4013
921.148	3979
921.258	3724
921.368	3633
921.477	3614
921.587	3564
921.697	3405
921.806	3652
921.916	3595
922.025	3374
922.134	3367
922.244	3355
922.353	3412
922.462	3306
922.571	3268
922.68	3119
922.789	3089
922.898	3211
923.007	3116
923.116	3260
923.224	3165
923.333	3218
923.442	3150
923.55	3116
923.659	3150
923.767	3233
923.876	3154
923.984	3306
924.092	3150
924.201	3253
924.309	3237
924.417	3275
924.525	3222
924.633	3306
924.741	4074
924.849	3074
924.956	3291
925.064	3119
925.172	3093
925.279	3119
925.387	3207
925.494	3207
925.602	3397
925.709	3374
925.816	3245
925.924	3313
926.031	3443
926.138	3389
926.245	3393
926.352	3302
926.459	3420
926.566	3538
926.673	3370
926.779	3351
926.886	3275
926.993	3211
927.099	3188
927.206	3150
927.312	3161
927.419	3272
927.525	3253
927.631	3317
927.737	3192
927.843	3192
927.95	3081
928.056	3195
928.162	3195
928.267	3306
928.373	3911
928.479	3332
928.585	3112
928.69	3253
928.796	3294
928.901	3203
929.007	3085
929.112	3222
929.218	3211
929.323	3211
929.428	3188
929.533	3370
929.638	3165
929.743	3192
929.848	3291
929.953	3230
930.058	3222
930.163	3032
930.267	3070
930.372	3256
930.477	3058
930.581	3351
930.685	3233
930.79	3070
930.894	3165
930.998	3131
931.103	3294
931.207	2994
931.311	2960
931.415	2948
931.519	2834
931.623	2868
