Data from test_V78500241_214.txt Node
Date: Fri Mar 25 16:16:41 CST 2022
User: usil
Spectrometer: V785-0024
Trigger mode: 0
Integration Time (sec): 4.000000E-1
Scans to average: 1
Nonlinearity correction enabled: false
Boxcar width: 0
Storing dark spectrum: false
XAxis mode: Wavelengths
Number of Pixels in Spectrum: 1024
>>>>>Begin Spectral Data<<<<<
801.071	2963
801.214	2994
801.356	2899
801.499	2910
801.641	2899
801.783	2990
801.926	3104
802.068	3017
802.211	3051
802.353	3081
802.496	3005
802.638	3028
802.78	3074
802.923	3119
803.065	3043
803.208	2918
803.35	2929
803.492	2925
803.635	2971
803.777	2815
803.919	2922
804.061	3272
804.204	2979
804.346	2944
804.488	2906
804.63	3047
804.773	2914
804.915	2975
805.057	3093
805.199	2937
805.341	3051
805.483	3089
805.626	3047
805.768	2971
805.91	3138
806.052	3161
806.194	3043
806.336	3291
806.478	3047
806.62	2963
806.762	3005
806.904	3089
807.046	3184
807.188	2979
807.33	2952
807.472	3047
807.614	2937
807.756	2990
807.898	2963
808.04	2906
808.182	3028
808.324	2982
808.465	2937
808.607	2899
808.749	2811
808.891	2891
809.033	3009
809.174	3001
809.316	2918
809.458	2899
809.6	2849
809.741	2815
809.883	2838
810.025	2853
810.166	2883
810.308	2872
810.45	2845
810.591	2800
810.733	2811
810.875	2857
811.016	2800
811.158	2823
811.299	2834
811.441	2971
811.582	2944
811.724	2830
811.865	2902
812.007	2960
812.148	2925
812.29	2902
812.431	2918
812.573	2975
812.714	3001
812.855	3074
812.997	3062
813.138	3176
813.279	3058
813.421	3032
813.562	2994
813.703	2906
813.845	2887
813.986	2769
814.127	2762
814.268	2842
814.41	2880
814.551	2861
814.692	2914
814.833	2864
814.974	2895
815.115	2971
815.256	2857
815.397	2872
815.539	2853
815.68	2811
815.821	2861
815.962	2937
816.103	2963
816.244	2944
816.385	2910
816.526	3005
816.666	2925
816.807	2781
816.948	2891
817.089	2960
817.23	2880
817.371	2811
817.512	2807
817.653	2853
817.793	2853
817.934	2891
818.075	3043
818.216	3013
818.356	3051
818.497	2891
818.638	2864
818.778	2868
818.919	2796
819.06	2773
819.2	2929
819.341	2845
819.481	2819
819.622	2937
819.762	3142
819.903	3066
820.043	2979
820.184	2956
820.324	2914
820.465	3039
820.605	3051
820.746	3043
820.886	2952
821.026	3112
821.167	3188
821.307	3317
821.447	3287
821.588	3222
821.728	3230
821.868	3180
822.008	3066
822.149	3199
822.289	3253
822.429	3097
822.569	3104
822.709	3226
822.849	3100
822.99	3089
823.13	3176
823.27	3226
823.41	3165
823.55	3169
823.69	3173
823.83	3218
823.97	3116
824.11	3036
824.25	3024
824.389	3123
824.529	3157
824.669	3089
824.809	3230
824.949	3249
825.089	3237
825.228	3173
825.368	3043
825.508	2979
825.648	2990
825.787	3024
825.927	3039
826.067	2986
826.206	2971
826.346	3085
826.485	3077
826.625	3131
826.765	3340
826.904	3249
827.044	3017
827.183	2990
827.323	2902
827.462	3032
827.601	2887
827.741	2941
827.88	2982
828.02	2880
828.159	2994
828.298	3051
828.437	3157
828.577	3058
828.716	3268
828.855	3081
828.994	2929
829.134	2906
829.273	2899
829.412	2902
829.551	2887
829.69	2933
829.829	3005
829.968	3176
830.107	3032
830.246	3013
830.385	2975
830.524	2933
830.663	2857
830.802	2739
830.941	2655
831.08	2667
831.219	2792
831.357	2773
831.496	2982
831.635	2739
831.774	2655
831.913	2648
832.051	2556
832.19	2606
832.329	2708
832.467	2568
832.606	2503
832.744	2617
832.883	2625
833.022	2613
833.16	2667
833.299	2667
833.437	2708
833.576	2739
833.714	2727
833.852	2746
833.991	2804
834.129	2853
834.267	2819
834.406	2800
834.544	2864
834.682	2872
834.821	2883
834.959	3093
835.097	2952
835.235	3108
835.373	3024
835.511	3055
835.65	3001
835.788	2967
835.926	2842
836.064	2823
836.202	2868
836.34	3127
836.478	3165
836.615	3085
836.753	3161
836.891	3218
837.029	3173
837.167	3138
837.305	3112
837.443	3070
837.58	2952
837.718	3180
837.856	3074
837.993	3047
838.131	3142
838.269	3138
838.406	3108
838.544	3116
838.681	2963
838.819	2906
838.956	2838
839.094	2864
839.231	2948
839.369	3028
839.506	3405
839.643	3256
839.781	3009
839.918	2994
840.055	3100
840.193	3097
840.33	3066
840.467	3108
840.604	3173
840.742	3420
840.879	3074
841.016	3070
841.153	3116
841.29	3351
841.427	3348
841.564	3291
841.701	3306
841.838	3207
841.975	3218
842.112	3233
842.249	3097
842.385	3043
842.522	3272
842.659	3097
842.796	3100
842.933	3097
843.069	3051
843.206	3062
843.343	3157
843.479	3142
843.616	3127
843.752	2948
843.889	2880
844.025	3100
844.162	2910
844.298	3089
844.435	2956
844.571	2914
844.708	3089
844.844	3211
844.98	3237
845.117	3180
845.253	3081
845.389	3039
845.525	3077
845.661	3135
845.798	3070
845.934	3112
846.07	3058
846.206	3245
846.342	3317
846.478	3279
846.614	3100
846.75	3066
846.886	3077
847.022	3260
847.158	3180
847.294	3199
847.429	3279
847.565	3230
847.701	3534
847.837	3066
847.972	2998
848.108	3154
848.244	3161
848.379	2990
848.515	2944
848.65	2967
848.786	2975
848.921	3017
849.057	3157
849.192	3142
849.328	3081
849.463	3146
849.598	3100
849.734	3051
849.869	3009
850.004	2918
850.14	2998
850.275	2944
850.41	2883
850.545	2910
850.68	2967
850.815	2998
850.95	2994
851.085	3226
851.22	3127
851.355	3070
851.49	3032
851.625	3032
851.76	3013
851.895	2941
852.03	2914
852.165	3032
852.299	3127
852.434	3230
852.569	3150
852.703	3138
852.838	3283
852.973	3359
853.107	3329
853.242	3138
853.376	3081
853.511	2998
853.645	3013
853.78	3237
853.914	3157
854.048	3142
854.183	3093
854.317	3192
854.451	3348
854.585	3176
854.72	3123
854.854	3203
854.988	3058
855.122	3070
855.256	3020
855.39	3146
855.524	3272
855.658	3211
855.792	3207
855.926	3203
856.06	3233
856.194	3313
856.327	3195
856.461	3093
856.595	3085
856.729	3085
856.862	3207
856.996	3199
857.13	3214
857.263	3241
857.397	3329
857.53	3146
857.664	3207
857.797	3237
857.931	3291
858.064	3165
858.197	3218
858.331	3176
858.464	3085
858.597	3047
858.731	3116
858.864	3127
858.997	3119
859.13	3195
859.263	3192
859.396	3211
859.529	3116
859.662	3089
859.795	3066
859.928	3138
860.061	3302
860.194	3298
860.327	3123
860.46	3119
860.592	3264
860.725	3256
860.858	3268
860.99	3142
861.123	3024
861.256	3085
861.388	3154
861.521	3880
861.653	3036
861.786	2994
861.918	3039
862.05	3077
862.183	3108
862.315	3138
862.447	3230
862.58	3097
862.712	2952
862.844	2918
862.976	3070
863.108	3005
863.24	3325
863.372	2895
863.504	2979
863.636	2960
863.768	3047
863.9	3017
864.032	2944
864.164	2922
864.296	3020
864.428	3085
864.559	3119
864.691	3055
864.823	3097
864.954	3043
865.086	3051
865.217	3009
865.349	2963
865.48	3009
865.612	3017
865.743	3188
865.875	2994
866.006	2982
866.137	3009
866.269	2929
866.4	2967
866.531	2925
866.662	2864
866.793	2948
866.924	2910
867.055	2952
867.186	2937
867.317	2857
867.448	2845
867.579	2868
867.71	2842
867.841	2815
867.972	2918
868.103	2933
868.233	2906
868.364	2941
868.495	2899
868.625	3100
868.756	3142
868.886	2994
869.017	3039
869.147	3192
869.278	3169
869.408	3093
869.539	3066
869.669	3142
869.799	3058
869.929	3173
870.06	3104
870.19	3370
870.32	3313
870.45	3317
870.58	3397
870.71	3507
870.84	3481
870.97	3275
871.1	3245
871.23	3515
871.36	3450
871.489	3389
871.619	3409
871.749	3378
871.879	3450
872.008	3511
872.138	3367
872.267	3294
872.397	3214
872.526	3142
872.656	3062
872.785	3135
872.915	3207
873.044	3321
873.173	3226
873.303	3279
873.432	3222
873.561	3268
873.69	3173
873.819	3131
873.948	3233
874.077	3093
874.206	3058
874.335	3142
874.464	3203
874.593	3340
874.722	3272
874.851	3397
874.979	3344
875.108	3325
875.237	3192
875.365	3192
875.494	3188
875.623	3268
875.751	3081
875.88	3116
876.008	3199
876.136	3245
876.265	3351
876.393	3523
876.521	3439
876.65	3401
876.778	3336
876.906	3256
877.034	3195
877.162	3245
877.29	3195
877.418	3302
877.546	3260
877.674	3264
877.802	3241
877.93	3272
878.058	3142
878.185	3161
878.313	3226
878.441	3203
878.568	3062
878.696	3176
878.824	3226
878.951	3317
879.079	3469
879.206	3553
879.333	3458
879.461	3317
879.588	3374
879.715	3488
879.842	3610
879.97	3386
880.097	3165
880.224	3173
880.351	3214
880.478	3226
880.605	3245
880.732	3165
880.859	3553
880.986	3344
881.112	3348
881.239	3237
881.366	3097
881.493	3013
881.619	3009
881.746	3093
881.872	3085
881.999	3097
882.125	3157
882.252	3279
882.378	3291
882.505	3469
882.631	3268
882.757	3157
882.883	3218
883.01	3233
883.136	3199
883.262	3085
883.388	3127
883.514	3291
883.64	3420
883.766	3313
883.892	3207
884.018	3268
884.143	3420
884.269	3557
884.395	3203
884.52	3169
884.646	3211
884.772	3135
884.897	3089
885.023	3222
885.148	3332
885.274	3424
885.399	3367
885.524	3275
885.65	3272
885.775	3325
885.9	3298
886.025	3439
886.15	3382
886.275	3283
886.4	3241
886.525	3313
886.65	3268
886.775	3287
886.9	3492
887.025	3690
887.149	3409
887.274	3306
887.399	3195
887.523	3222
887.648	3184
887.773	3211
887.897	3355
888.021	3435
888.146	3310
888.27	3443
888.395	3553
888.519	3435
888.643	3473
888.767	3462
888.891	3332
889.015	3264
889.139	3298
889.263	3237
889.387	3428
889.511	3534
889.635	3447
889.759	3287
889.883	3313
890.006	3416
890.13	3511
890.254	3264
890.377	3363
890.501	3237
890.624	3199
890.748	3359
890.871	3180
890.995	3146
891.118	3074
891.241	3184
891.364	3275
891.488	3355
891.611	3173
891.734	3222
891.857	3283
891.98	3233
892.103	3355
892.226	3306
892.349	3199
892.471	3119
892.594	3241
892.717	3298
892.839	3306
892.962	3313
893.085	3359
893.207	3287
893.33	3154
893.452	3233
893.575	3382
893.697	3256
893.819	3458
893.941	3488
894.064	3473
894.186	3302
894.308	3272
894.43	3454
894.552	3542
894.674	3473
894.796	3279
894.918	3310
895.04	3272
895.161	3458
895.283	3439
895.405	3310
895.526	3416
895.648	3435
895.769	3439
895.891	3439
896.012	3481
896.134	3473
896.255	3431
896.376	3428
896.498	3424
896.619	3443
896.74	3378
896.861	3405
896.982	3667
897.103	3857
897.224	3606
897.345	3492
897.466	3447
897.587	3488
897.708	3614
897.828	3557
897.949	3500
898.07	3329
898.19	3424
898.311	3595
898.431	3450
898.552	3488
898.672	3622
898.792	3587
898.913	3519
899.033	3439
899.153	3336
899.273	3237
899.393	3310
899.513	3397
899.633	3306
899.753	3359
899.873	3298
899.993	3374
900.113	3351
900.232	3435
900.352	3370
900.472	3313
900.591	3214
900.711	3287
900.83	3268
900.95	3405
901.069	3488
901.189	3370
901.308	3192
901.427	3161
901.546	3222
901.665	3310
901.784	3355
901.904	3207
902.023	3161
902.141	3013
902.26	3005
902.379	3119
902.498	3070
902.617	3077
902.735	3203
902.854	3241
902.973	3195
903.091	3043
903.21	3055
903.328	3138
903.446	3100
903.565	3123
903.683	3226
903.801	3104
903.919	3260
904.038	3302
904.156	3169
904.274	3291
904.392	3256
904.51	3317
904.627	3332
904.745	3435
904.863	3496
904.981	3218
905.098	3226
905.216	3222
905.334	3302
905.451	3310
905.569	3332
905.686	3447
905.803	3435
905.921	3237
906.038	3488
906.155	3359
906.272	3241
906.389	3359
906.506	3218
906.623	3264
906.74	3306
906.857	3195
906.974	3241
907.091	3428
907.208	3576
907.324	3469
907.441	3409
907.557	3233
907.674	3245
907.79	3275
907.907	3272
908.023	3401
908.139	3428
908.256	3386
908.372	3412
908.488	3378
908.604	3291
908.72	3226
908.836	3253
908.952	3264
909.068	3313
909.184	3466
909.3	3397
909.415	3507
909.531	3488
909.647	3287
909.762	3310
909.878	3268
909.993	3363
910.108	3344
910.224	3355
910.339	3462
910.454	3367
910.57	3329
910.685	3268
910.8	3599
910.915	3576
911.03	3439
911.145	3245
911.259	3302
911.374	3329
911.489	3268
911.604	3241
911.718	3142
911.833	3154
911.947	3047
912.062	3036
912.176	3161
912.291	3192
912.405	3260
912.519	3409
912.633	3473
912.748	3370
912.862	3332
912.976	3169
913.09	3104
913.204	3154
913.318	3241
913.431	3363
913.545	3332
913.659	3424
913.772	3359
913.886	3268
914	3199
914.113	3344
914.226	3416
914.34	3378
914.453	3253
914.566	3409
914.68	3283
914.793	3329
914.906	3165
915.019	3123
915.132	3066
915.245	3161
915.358	3237
915.47	3241
915.583	3287
915.696	3287
915.809	3435
915.921	3416
916.034	3253
916.146	3241
916.259	3222
916.371	3420
916.483	3397
916.595	3310
916.708	3389
916.82	3317
916.932	3332
917.044	3348
917.156	3363
917.268	3272
917.38	3359
917.491	3313
917.603	3393
917.715	3439
917.826	3462
917.938	3439
918.049	3298
918.161	3458
918.272	3580
918.384	3557
918.495	3492
918.606	3336
918.717	3287
918.828	3397
918.939	3405
919.05	3310
919.161	3386
919.272	3169
919.383	3291
919.494	3515
919.604	3709
919.715	3515
919.826	3466
919.936	3469
920.047	3603
920.157	3572
920.267	3770
920.378	3599
920.488	3576
920.598	3808
920.708	3918
920.818	3876
920.928	3865
921.038	4013
921.148	3987
921.258	3740
921.368	3644
921.477	3584
921.587	3553
921.697	3500
921.806	3614
921.916	3519
922.025	3367
922.134	3336
922.244	3298
922.353	3424
922.462	3313
922.571	3253
922.68	3097
922.789	3089
922.898	3173
923.007	3093
923.116	3188
923.224	3230
923.333	3199
923.442	3104
923.55	3085
923.659	3127
923.767	3222
923.876	3116
923.984	3241
924.092	3127
924.201	3214
924.309	3256
924.417	3279
924.525	3218
924.633	3245
924.741	4158
924.849	3058
924.956	3302
925.064	3077
925.172	3039
925.279	3112
925.387	3222
925.494	3199
925.602	3359
925.709	3378
925.816	3184
925.924	3291
926.031	3386
926.138	3313
926.245	3389
926.352	3260
926.459	3431
926.566	3492
926.673	3302
926.779	3237
926.886	3272
926.993	3154
927.099	3138
927.206	3157
927.312	3131
927.419	3249
927.525	3241
927.631	3253
927.737	3135
927.843	3146
927.95	3047
928.056	3138
928.162	3211
928.267	3260
928.373	3888
928.479	3306
928.585	3066
928.69	3241
928.796	3245
928.901	3165
929.007	3066
929.112	3260
929.218	3142
929.323	3142
929.428	3157
929.533	3298
929.638	3146
929.743	3157
929.848	3298
929.953	3237
930.058	3165
930.163	2998
930.267	3077
930.372	3237
930.477	3047
930.581	3325
930.685	3245
930.79	3047
930.894	3123
930.998	3097
931.103	3272
931.207	2960
931.311	2941
931.415	2922
931.519	2785
931.623	2826
