Data from test_V78500241_807.txt Node
Date: Fri Mar 25 16:20:47 CST 2022
User: usil
Spectrometer: V785-0024
Trigger mode: 0
Integration Time (sec): 4.000000E-1
Scans to average: 1
Nonlinearity correction enabled: false
Boxcar width: 0
Storing dark spectrum: false
XAxis mode: Wavelengths
Number of Pixels in Spectrum: 1024
>>>>>Begin Spectral Data<<<<<
801.071	2895
801.214	2937
801.356	2857
801.499	2902
801.641	2853
801.783	2906
801.926	3039
802.068	3009
802.211	2986
802.353	3043
802.496	2918
802.638	2986
802.78	3009
802.923	3077
803.065	3013
803.208	2887
803.35	2902
803.492	2956
803.635	2933
803.777	2773
803.919	2842
804.061	3176
804.204	2922
804.346	2922
804.488	2834
804.63	3001
804.773	2853
804.915	2914
805.057	3104
805.199	2941
805.341	3005
805.483	3074
805.626	2998
805.768	2990
805.91	3051
806.052	3108
806.194	3009
806.336	3233
806.478	2998
806.62	2971
806.762	2956
806.904	3009
807.046	3150
807.188	3001
807.33	2925
807.472	2963
807.614	2895
807.756	2979
807.898	2925
808.04	2876
808.182	2956
808.324	2918
808.465	2864
808.607	2838
808.749	2807
808.891	2842
809.033	2937
809.174	2948
809.316	2876
809.458	2883
809.6	2788
809.741	2766
809.883	2731
810.025	2849
810.166	2815
810.308	2819
810.45	2857
810.591	2750
810.733	2758
810.875	2845
811.016	2754
811.158	2739
811.299	2811
811.441	2937
811.582	2891
811.724	2788
811.865	2842
812.007	2891
812.148	2849
812.29	2819
812.431	2880
812.573	2944
812.714	2998
812.855	3028
812.997	3024
813.138	3104
813.279	3043
813.421	2971
813.562	2941
813.703	2834
813.845	2883
813.986	2796
814.127	2708
814.268	2815
814.41	2853
814.551	2777
814.692	2842
814.833	2826
814.974	2899
815.115	2948
815.256	2838
815.397	2815
815.539	2853
815.68	2792
815.821	2800
815.962	2910
816.103	2891
816.244	2864
816.385	2880
816.526	2952
816.666	2914
816.807	2743
816.948	2872
817.089	2899
817.23	2834
817.371	2766
817.512	2781
817.653	2823
817.793	2781
817.934	2902
818.075	2975
818.216	2994
818.356	3017
818.497	2845
818.638	2758
818.778	2845
818.919	2800
819.06	2766
819.2	2864
819.341	2792
819.481	2769
819.622	2914
819.762	3077
819.903	3013
820.043	2906
820.184	2880
820.324	2910
820.465	2986
820.605	3013
820.746	3013
820.886	2899
821.026	3070
821.167	3112
821.307	3230
821.447	3298
821.588	3195
821.728	3180
821.868	3184
822.008	3058
822.149	3184
822.289	3237
822.429	3085
822.569	3100
822.709	3138
822.849	3009
822.99	3074
823.13	3146
823.27	3203
823.41	3074
823.55	3135
823.69	3138
823.83	3169
823.97	3043
824.11	2998
824.25	2975
824.389	3066
824.529	3097
824.669	3028
824.809	3199
824.949	3226
825.089	3207
825.228	3131
825.368	2998
825.508	2948
825.648	2952
825.787	3020
825.927	2979
826.067	2948
826.206	2971
826.346	3039
826.485	3028
826.625	3093
826.765	3241
826.904	3195
827.044	2941
827.183	2914
827.323	2861
827.462	2990
827.601	2906
827.741	2899
827.88	2899
828.02	2861
828.159	2956
828.298	3028
828.437	3062
828.577	2994
828.716	3268
828.855	3058
828.994	2883
829.134	2864
829.273	2944
829.412	2876
829.551	2853
829.69	2910
829.829	2971
829.968	3135
830.107	3013
830.246	3028
830.385	2929
830.524	2834
830.663	2807
830.802	2724
830.941	2659
831.08	2629
831.219	2769
831.357	2769
831.496	2975
831.635	2727
831.774	2651
831.913	2689
832.051	2526
832.19	2587
832.329	2701
832.467	2522
832.606	2495
832.744	2606
832.883	2575
833.022	2606
833.16	2651
833.299	2708
833.437	2697
833.576	2727
833.714	2739
833.852	2727
833.991	2792
834.129	2849
834.267	2853
834.406	2823
834.544	2876
834.682	2906
834.821	2918
834.959	3119
835.097	2906
835.235	3085
835.373	3062
835.511	3028
835.65	2979
835.788	2982
835.926	2849
836.064	2842
836.202	2849
836.34	3123
836.478	3169
836.615	3085
836.753	3165
836.891	3192
837.029	3203
837.167	3142
837.305	3131
837.443	3047
837.58	3047
837.718	3169
837.856	3085
837.993	3070
838.131	3192
838.269	3161
838.406	3154
838.544	3135
838.681	2971
838.819	2941
838.956	2845
839.094	2899
839.231	2975
839.369	3024
839.506	3416
839.643	3275
839.781	3043
839.918	2982
840.055	3081
840.193	3077
840.33	3123
840.467	3146
840.604	3195
840.742	3420
840.879	3085
841.016	3058
841.153	3150
841.29	3317
841.427	3302
841.564	3294
841.701	3336
841.838	3264
841.975	3211
842.112	3233
842.249	3116
842.385	3089
842.522	3310
842.659	3138
842.796	3074
842.933	3127
843.069	3077
843.206	3093
843.343	3184
843.479	3104
843.616	3180
843.752	2960
843.889	2944
844.025	3100
844.162	2910
844.298	3100
844.435	2944
844.571	2963
844.708	3127
844.844	3218
844.98	3256
845.117	3222
845.253	3070
845.389	3066
845.525	3119
845.661	3165
845.798	3039
845.934	3165
846.07	3070
846.206	3268
846.342	3332
846.478	3264
846.614	3123
846.75	3116
846.886	3039
847.022	3253
847.158	3218
847.294	3233
847.429	3279
847.565	3249
847.701	3534
847.837	3051
847.972	3039
848.108	3245
848.244	3184
848.379	2975
848.515	3036
848.65	2952
848.786	2963
848.921	3051
849.057	3169
849.192	3150
849.328	3100
849.463	3142
849.598	3135
849.734	3066
849.869	3009
850.004	2990
850.14	3005
850.275	2941
850.41	2891
850.545	2929
850.68	2937
850.815	2990
850.95	3001
851.085	3260
851.22	3108
851.355	3108
851.49	3009
851.625	3028
851.76	3055
851.895	2982
852.03	2952
852.165	3066
852.299	3104
852.434	3180
852.569	3176
852.703	3211
852.838	3291
852.973	3393
853.107	3332
853.242	3142
853.376	3131
853.511	2994
853.645	3043
853.78	3249
853.914	3173
854.048	3104
854.183	3112
854.317	3207
854.451	3332
854.585	3161
854.72	3116
854.854	3230
854.988	3051
855.122	3127
855.256	2975
855.39	3146
855.524	3211
855.658	3203
855.792	3184
855.926	3253
856.06	3237
856.194	3302
856.327	3222
856.461	3077
856.595	3077
856.729	3150
856.862	3241
856.996	3184
857.13	3169
857.263	3264
857.397	3321
857.53	3165
857.664	3226
857.797	3237
857.931	3306
858.064	3146
858.197	3260
858.331	3165
858.464	3161
858.597	3062
858.731	3131
858.864	3150
858.997	3135
859.13	3176
859.263	3192
859.396	3226
859.529	3123
859.662	3131
859.795	3066
859.928	3180
860.061	3279
860.194	3283
860.327	3142
860.46	3097
860.592	3241
860.725	3283
860.858	3268
860.99	3131
861.123	3081
861.256	3074
861.388	3154
861.521	3964
861.653	3032
861.786	2982
861.918	3017
862.05	3077
862.183	3123
862.315	3195
862.447	3279
862.58	3138
862.712	2990
862.844	2929
862.976	3093
863.108	2975
863.24	3340
863.372	2906
863.504	2998
863.636	3001
863.768	3039
863.9	3009
864.032	2982
864.164	2967
864.296	3028
864.428	3108
864.559	3104
864.691	3085
864.823	3085
864.954	3070
865.086	3043
865.217	3020
865.349	2979
865.48	2967
865.612	3005
865.743	3173
865.875	3009
866.006	2956
866.137	2979
866.269	2960
866.4	2956
866.531	2963
866.662	2929
866.793	2922
866.924	2906
867.055	2956
867.186	2937
867.317	2929
867.448	2883
867.579	2899
867.71	2868
867.841	2823
867.972	2887
868.103	2914
868.233	2899
868.364	2883
868.495	2933
868.625	3112
868.756	3169
868.886	2979
869.017	3028
869.147	3203
869.278	3207
869.408	3047
869.539	3055
869.669	3108
869.799	3047
869.929	3157
870.06	3097
870.19	3355
870.32	3302
870.45	3336
870.58	3412
870.71	3500
870.84	3473
870.97	3321
871.1	3264
871.23	3500
871.36	3473
871.489	3382
871.619	3439
871.749	3458
871.879	3416
872.008	3496
872.138	3374
872.267	3272
872.397	3154
872.526	3146
872.656	3070
872.785	3123
872.915	3249
873.044	3329
873.173	3230
873.303	3291
873.432	3230
873.561	3245
873.69	3154
873.819	3150
873.948	3180
874.077	3097
874.206	3062
874.335	3074
874.464	3256
874.593	3389
874.722	3241
874.851	3409
874.979	3409
875.108	3363
875.237	3222
875.365	3176
875.494	3222
875.623	3264
875.751	3097
875.88	3112
876.008	3218
876.136	3260
876.265	3405
876.393	3515
876.521	3447
876.65	3443
876.778	3348
876.906	3264
877.034	3241
877.162	3245
877.29	3207
877.418	3264
877.546	3245
877.674	3275
877.802	3245
877.93	3253
878.058	3176
878.185	3150
878.313	3237
878.441	3203
878.568	3112
878.696	3188
878.824	3344
878.951	3313
879.079	3462
879.206	3610
879.333	3416
879.461	3344
879.588	3389
879.715	3526
879.842	3603
879.97	3424
880.097	3203
880.224	3150
880.351	3188
880.478	3241
880.605	3226
880.732	3230
880.859	3496
880.986	3306
881.112	3329
881.239	3214
881.366	3119
881.493	3066
881.619	3062
881.746	3089
881.872	3100
881.999	3142
882.125	3154
882.252	3237
882.378	3340
882.505	3466
882.631	3291
882.757	3184
882.883	3218
883.01	3233
883.136	3165
883.262	3138
883.388	3135
883.514	3302
883.64	3409
883.766	3310
883.892	3203
884.018	3272
884.143	3462
884.269	3526
884.395	3230
884.52	3192
884.646	3180
884.772	3150
884.897	3100
885.023	3253
885.148	3325
885.274	3443
885.399	3367
885.524	3275
885.65	3249
885.775	3325
885.9	3298
886.025	3443
886.15	3374
886.275	3313
886.4	3302
886.525	3325
886.65	3302
886.775	3340
886.9	3545
887.025	3656
887.149	3401
887.274	3332
887.399	3222
887.523	3230
887.648	3230
887.773	3272
887.897	3378
888.021	3409
888.146	3317
888.27	3450
888.395	3519
888.519	3409
888.643	3435
888.767	3443
888.891	3344
889.015	3275
889.139	3272
889.263	3237
889.387	3416
889.511	3549
889.635	3447
889.759	3332
889.883	3291
890.006	3428
890.13	3496
890.254	3283
890.377	3340
890.501	3230
890.624	3222
890.748	3275
890.871	3211
890.995	3165
891.118	3077
891.241	3211
891.364	3237
891.488	3348
891.611	3203
891.734	3169
891.857	3260
891.98	3253
892.103	3348
892.226	3317
892.349	3233
892.471	3135
892.594	3230
892.717	3325
892.839	3287
892.962	3302
893.085	3382
893.207	3298
893.33	3173
893.452	3188
893.575	3393
893.697	3272
893.819	3450
893.941	3515
894.064	3431
894.186	3321
894.308	3348
894.43	3393
894.552	3523
894.674	3488
894.796	3283
894.918	3313
895.04	3275
895.161	3405
895.283	3355
895.405	3321
895.526	3386
895.648	3443
895.769	3469
895.891	3454
896.012	3496
896.134	3511
896.255	3443
896.376	3397
896.498	3405
896.619	3405
896.74	3340
896.861	3454
896.982	3698
897.103	3846
897.224	3591
897.345	3504
897.466	3469
897.587	3488
897.708	3656
897.828	3568
897.949	3500
898.07	3317
898.19	3424
898.311	3584
898.431	3466
898.552	3523
898.672	3603
898.792	3599
898.913	3542
899.033	3401
899.153	3291
899.273	3249
899.393	3317
899.513	3302
899.633	3317
899.753	3317
899.873	3310
899.993	3367
900.113	3359
900.232	3401
900.352	3336
900.472	3283
900.591	3249
900.711	3291
900.83	3256
900.95	3420
901.069	3507
901.189	3336
901.308	3195
901.427	3138
901.546	3218
901.665	3287
901.784	3340
901.904	3222
902.023	3146
902.141	3013
902.26	3017
902.379	3131
902.498	3062
902.617	3058
902.735	3218
902.854	3245
902.973	3207
903.091	3077
903.21	3062
903.328	3150
903.446	3116
903.565	3142
903.683	3207
903.801	3116
903.919	3260
904.038	3272
904.156	3161
904.274	3332
904.392	3283
904.51	3321
904.627	3355
904.745	3424
904.863	3488
904.981	3279
905.098	3222
905.216	3260
905.334	3294
905.451	3287
905.569	3325
905.686	3412
905.803	3492
905.921	3241
906.038	3428
906.155	3367
906.272	3264
906.389	3344
906.506	3241
906.623	3268
906.74	3294
906.857	3214
906.974	3298
907.091	3443
907.208	3561
907.324	3477
907.441	3355
907.557	3233
907.674	3192
907.79	3233
907.907	3283
908.023	3416
908.139	3405
908.256	3340
908.372	3359
908.488	3370
908.604	3275
908.72	3241
908.836	3279
908.952	3275
909.068	3325
909.184	3492
909.3	3401
909.415	3488
909.531	3530
909.647	3275
909.762	3294
909.878	3245
909.993	3409
910.108	3325
910.224	3344
910.339	3443
910.454	3325
910.57	3329
910.685	3237
910.8	3625
910.915	3485
911.03	3435
911.145	3294
911.259	3291
911.374	3336
911.489	3256
911.604	3203
911.718	3119
911.833	3192
911.947	3043
912.062	3009
912.176	3157
912.291	3245
912.405	3214
912.519	3443
912.633	3496
912.748	3317
912.862	3279
912.976	3150
913.09	3051
913.204	3150
913.318	3256
913.431	3348
913.545	3321
913.659	3450
913.772	3374
913.886	3249
914	3226
914.113	3378
914.226	3428
914.34	3401
914.453	3249
914.566	3401
914.68	3329
914.793	3321
914.906	3169
915.019	3081
915.132	3039
915.245	3176
915.358	3203
915.47	3207
915.583	3237
915.696	3313
915.809	3401
915.921	3439
916.034	3241
916.146	3245
916.259	3226
916.371	3378
916.483	3401
916.595	3275
916.708	3359
916.82	3310
916.932	3363
917.044	3363
917.156	3348
917.268	3283
917.38	3325
917.491	3268
917.603	3401
917.715	3473
917.826	3462
917.938	3386
918.049	3272
918.161	3412
918.272	3557
918.384	3572
918.495	3496
918.606	3348
918.717	3272
918.828	3389
918.939	3409
919.05	3313
919.161	3344
919.272	3199
919.383	3275
919.494	3469
919.604	3690
919.715	3500
919.826	3409
919.936	3488
920.047	3576
920.157	3572
920.267	3781
920.378	3599
920.488	3606
920.598	3766
920.708	3930
920.818	3816
920.928	3842
921.038	4048
921.148	4017
921.258	3701
921.368	3682
921.477	3553
921.587	3553
921.697	3454
921.806	3633
921.916	3473
922.025	3363
922.134	3386
922.244	3351
922.353	3420
922.462	3275
922.571	3268
922.68	3138
922.789	3081
922.898	3161
923.007	3055
923.116	3192
923.224	3180
923.333	3207
923.442	3074
923.55	3131
923.659	3138
923.767	3195
923.876	3142
923.984	3211
924.092	3119
924.201	3188
924.309	3214
924.417	3268
924.525	3184
924.633	3218
924.741	4207
924.849	3051
924.956	3222
925.064	3077
925.172	3047
925.279	3093
925.387	3165
925.494	3214
925.602	3367
925.709	3340
925.816	3184
925.924	3313
926.031	3363
926.138	3321
926.245	3348
926.352	3275
926.459	3401
926.566	3447
926.673	3302
926.779	3268
926.886	3245
926.993	3138
927.099	3135
927.206	3119
927.312	3138
927.419	3226
927.525	3222
927.631	3226
927.737	3165
927.843	3116
927.95	3043
928.056	3112
928.162	3157
928.267	3260
928.373	3778
928.479	3344
928.585	3081
928.69	3195
928.796	3256
928.901	3173
929.007	3043
929.112	3184
929.218	3173
929.323	3131
929.428	3157
929.533	3302
929.638	3116
929.743	3211
929.848	3272
929.953	3188
930.058	3150
930.163	3017
930.267	3047
930.372	3214
930.477	3043
930.581	3336
930.685	3195
930.79	3051
930.894	3123
930.998	3062
931.103	3245
931.207	2941
931.311	2937
931.415	2929
931.519	2811
931.623	2815
