Data from test_V78500241_88.txt Node
Date: Fri Mar 25 16:15:48 CST 2022
User: usil
Spectrometer: V785-0024
Trigger mode: 0
Integration Time (sec): 4.000000E-1
Scans to average: 1
Nonlinearity correction enabled: false
Boxcar width: 0
Storing dark spectrum: false
XAxis mode: Wavelengths
Number of Pixels in Spectrum: 1024
>>>>>Begin Spectral Data<<<<<
801.071	2952
801.214	3001
801.356	2975
801.499	2956
801.641	2933
801.783	3013
801.926	3119
802.068	3028
802.211	3070
802.353	3104
802.496	3020
802.638	3066
802.78	3093
802.923	3097
803.065	3077
803.208	2986
803.35	2975
803.492	2967
803.635	2975
803.777	2804
803.919	2925
804.061	3218
804.204	3005
804.346	2914
804.488	2914
804.63	3058
804.773	2941
804.915	2937
805.057	3112
805.199	2998
805.341	3024
805.483	3085
805.626	3020
805.768	2998
805.91	3142
806.052	3161
806.194	3089
806.336	3283
806.478	3085
806.62	3032
806.762	3032
806.904	3093
807.046	3237
807.188	3066
807.33	2963
807.472	3024
807.614	2979
807.756	3066
807.898	2979
808.04	2960
808.182	2994
808.324	2994
808.465	2937
808.607	2933
808.749	2807
808.891	2918
809.033	3017
809.174	3009
809.316	2960
809.458	2922
809.6	2811
809.741	2842
809.883	2823
810.025	2887
810.166	2880
810.308	2899
810.45	2899
810.591	2842
810.733	2819
810.875	2883
811.016	2845
811.158	2804
811.299	2872
811.441	2982
811.582	2922
811.724	2838
811.865	2918
812.007	2956
812.148	2887
812.29	2891
812.431	2925
812.573	2979
812.714	3017
812.855	3074
812.997	3097
813.138	3207
813.279	3058
813.421	3036
813.562	3024
813.703	2899
813.845	2902
813.986	2788
814.127	2823
814.268	2902
814.41	2876
814.551	2880
814.692	2922
814.833	2868
814.974	2944
815.115	3032
815.256	2887
815.397	2804
815.539	2922
815.68	2804
815.821	2853
815.962	2971
816.103	2971
816.244	2929
816.385	2944
816.526	3036
816.666	2960
816.807	2796
816.948	2971
817.089	2944
817.23	2899
817.371	2800
817.512	2872
817.653	2914
817.793	2880
817.934	2941
818.075	3017
818.216	3047
818.356	3108
818.497	2929
818.638	2823
818.778	2868
818.919	2891
819.06	2800
819.2	2975
819.341	2845
819.481	2826
819.622	2994
819.762	3169
819.903	3100
820.043	2975
820.184	2910
820.324	2960
820.465	3058
820.605	3062
820.746	3066
820.886	2986
821.026	3112
821.167	3214
821.307	3310
821.447	3329
821.588	3283
821.728	3298
821.868	3272
822.008	3127
822.149	3245
822.289	3306
822.429	3142
822.569	3165
822.709	3226
822.849	3100
822.99	3089
823.13	3222
823.27	3260
823.41	3135
823.55	3218
823.69	3218
823.83	3226
823.97	3150
824.11	3047
824.25	3055
824.389	3127
824.529	3157
824.669	3135
824.809	3222
824.949	3291
825.089	3291
825.228	3222
825.368	3058
825.508	3043
825.648	2986
825.787	3047
825.927	3058
826.067	2986
826.206	3009
826.346	3085
826.485	3142
826.625	3150
826.765	3336
826.904	3233
827.044	2998
827.183	2967
827.323	2929
827.462	3051
827.601	2941
827.741	2986
827.88	2986
828.02	2902
828.159	3005
828.298	3066
828.437	3112
828.577	3077
828.716	3294
828.855	3127
828.994	3013
829.134	2941
829.273	2948
829.412	2944
829.551	2891
829.69	2948
829.829	3051
829.968	3180
830.107	3043
830.246	3058
830.385	2967
830.524	2902
830.663	2891
830.802	2758
830.941	2712
831.08	2727
831.219	2845
831.357	2781
831.496	2929
831.635	2758
831.774	2670
831.913	2727
832.051	2564
832.19	2625
832.329	2697
832.467	2560
832.606	2537
832.744	2613
832.883	2617
833.022	2651
833.16	2686
833.299	2727
833.437	2716
833.576	2769
833.714	2762
833.852	2758
833.991	2815
834.129	2830
834.267	2868
834.406	2811
834.544	2914
834.682	2948
834.821	2891
834.959	3074
835.097	2967
835.235	3104
835.373	3039
835.511	3097
835.65	3039
835.788	2998
835.926	2861
836.064	2853
836.202	2910
836.34	3165
836.478	3173
836.615	3100
836.753	3176
836.891	3260
837.029	3222
837.167	3157
837.305	3112
837.443	3039
837.58	3043
837.718	3165
837.856	3089
837.993	3055
838.131	3195
838.269	3161
838.406	3100
838.544	3142
838.681	3020
838.819	2914
838.956	2830
839.094	2857
839.231	2941
839.369	3089
839.506	3462
839.643	3256
839.781	3097
839.918	3017
840.055	3119
840.193	3077
840.33	3112
840.467	3135
840.604	3199
840.742	3450
840.879	3081
841.016	3104
841.153	3176
841.29	3386
841.427	3378
841.564	3306
841.701	3332
841.838	3253
841.975	3233
842.112	3241
842.249	3150
842.385	3043
842.522	3298
842.659	3112
842.796	3100
842.933	3123
843.069	3112
843.206	3043
843.343	3241
843.479	3154
843.616	3165
843.752	2941
843.889	2899
844.025	3150
844.162	2914
844.298	3112
844.435	3001
844.571	2948
844.708	3131
844.844	3256
844.98	3306
845.117	3222
845.253	3058
845.389	3017
845.525	3135
845.661	3150
845.798	3036
845.934	3150
846.07	3138
846.206	3264
846.342	3336
846.478	3256
846.614	3127
846.75	3100
846.886	3074
847.022	3264
847.158	3154
847.294	3237
847.429	3317
847.565	3256
847.701	3561
847.837	3097
847.972	3013
848.108	3199
848.244	3180
848.379	3024
848.515	2994
848.65	3009
848.786	2990
848.921	3047
849.057	3146
849.192	3211
849.328	3104
849.463	3161
849.598	3112
849.734	3093
849.869	3001
850.004	2982
850.14	2979
850.275	2948
850.41	2868
850.545	2956
850.68	2971
850.815	3020
850.95	3005
851.085	3214
851.22	3150
851.355	3081
851.49	2998
851.625	3043
851.76	3032
851.895	2990
852.03	2952
852.165	3051
852.299	3192
852.434	3237
852.569	3169
852.703	3192
852.838	3302
852.973	3378
853.107	3367
853.242	3176
853.376	3100
853.511	3047
853.645	3097
853.78	3226
853.914	3188
854.048	3127
854.183	3112
854.317	3176
854.451	3382
854.585	3184
854.72	3093
854.854	3253
854.988	3085
855.122	3142
855.256	3024
855.39	3169
855.524	3279
855.658	3233
855.792	3161
855.926	3268
856.06	3222
856.194	3279
856.327	3157
856.461	3077
856.595	3104
856.729	3097
856.862	3241
856.996	3154
857.13	3218
857.263	3298
857.397	3306
857.53	3142
857.664	3199
857.797	3306
857.931	3310
858.064	3199
858.197	3260
858.331	3188
858.464	3146
858.597	3017
858.731	3161
858.864	3142
858.997	3123
859.13	3249
859.263	3203
859.396	3237
859.529	3123
859.662	3070
859.795	3100
859.928	3211
860.061	3260
860.194	3310
860.327	3184
860.46	3104
860.592	3264
860.725	3264
860.858	3260
860.99	3142
861.123	3100
861.256	3131
861.388	3226
861.521	3751
861.653	3055
861.786	3058
861.918	3032
862.05	3081
862.183	3142
862.315	3173
862.447	3294
862.58	3123
862.712	3001
862.844	2910
862.976	3043
863.108	3020
863.24	3454
863.372	2910
863.504	2990
863.636	2994
863.768	3062
863.9	3028
864.032	2937
864.164	2979
864.296	3024
864.428	3093
864.559	3154
864.691	3093
864.823	3112
864.954	3062
865.086	3058
865.217	3051
865.349	2971
865.48	2956
865.612	3074
865.743	3230
865.875	3001
866.006	2963
866.137	3005
866.269	2971
866.4	2979
866.531	2975
866.662	2929
866.793	2937
866.924	2956
867.055	3001
867.186	2933
867.317	2941
867.448	2826
867.579	2864
867.71	2880
867.841	2849
867.972	2906
868.103	2944
868.233	2868
868.364	2902
868.495	2948
868.625	3100
868.756	3165
868.886	3001
869.017	3043
869.147	3222
869.278	3173
869.408	3104
869.539	3032
869.669	3146
869.799	3070
869.929	3157
870.06	3116
870.19	3389
870.32	3317
870.45	3344
870.58	3397
870.71	3450
870.84	3485
870.97	3302
871.1	3283
871.23	3519
871.36	3477
871.489	3412
871.619	3420
871.749	3473
871.879	3450
872.008	3538
872.138	3428
872.267	3344
872.397	3176
872.526	3154
872.656	3017
872.785	3104
872.915	3268
873.044	3355
873.173	3249
873.303	3283
873.432	3268
873.561	3260
873.69	3199
873.819	3142
873.948	3241
874.077	3142
874.206	3074
874.335	3123
874.464	3226
874.593	3363
874.722	3275
874.851	3416
874.979	3367
875.108	3370
875.237	3214
875.365	3211
875.494	3165
875.623	3279
875.751	3108
875.88	3138
876.008	3264
876.136	3256
876.265	3416
876.393	3553
876.521	3435
876.65	3416
876.778	3389
876.906	3298
877.034	3264
877.162	3230
877.29	3195
877.418	3291
877.546	3237
877.674	3268
877.802	3264
877.93	3291
878.058	3154
878.185	3104
878.313	3253
878.441	3230
878.568	3131
878.696	3165
878.824	3260
878.951	3302
879.079	3466
879.206	3679
879.333	3454
879.461	3382
879.588	3382
879.715	3530
879.842	3660
879.97	3420
880.097	3226
880.224	3161
880.351	3211
880.478	3230
880.605	3256
880.732	3203
880.859	3504
880.986	3321
881.112	3336
881.239	3195
881.366	3142
881.493	3058
881.619	3047
881.746	3127
881.872	3131
881.999	3116
882.125	3165
882.252	3260
882.378	3321
882.505	3447
882.631	3313
882.757	3180
882.883	3260
883.01	3245
883.136	3222
883.262	3100
883.388	3154
883.514	3374
883.64	3386
883.766	3348
883.892	3211
884.018	3253
884.143	3435
884.269	3561
884.395	3241
884.52	3211
884.646	3184
884.772	3135
884.897	3131
885.023	3237
885.148	3386
885.274	3477
885.399	3420
885.524	3256
885.65	3275
885.775	3332
885.9	3298
886.025	3431
886.15	3393
886.275	3329
886.4	3264
886.525	3317
886.65	3332
886.775	3306
886.9	3507
887.025	3610
887.149	3466
887.274	3291
887.399	3192
887.523	3233
887.648	3207
887.773	3264
887.897	3393
888.021	3420
888.146	3306
888.27	3462
888.395	3545
888.519	3458
888.643	3473
888.767	3496
888.891	3329
889.015	3253
889.139	3275
889.263	3279
889.387	3412
889.511	3557
889.635	3477
889.759	3294
889.883	3310
890.006	3420
890.13	3496
890.254	3306
890.377	3336
890.501	3226
890.624	3207
890.748	3325
890.871	3192
890.995	3127
891.118	3081
891.241	3233
891.364	3222
891.488	3348
891.611	3169
891.734	3241
891.857	3306
891.98	3264
892.103	3382
892.226	3317
892.349	3237
892.471	3142
892.594	3321
892.717	3302
892.839	3275
892.962	3336
893.085	3378
893.207	3348
893.33	3135
893.452	3226
893.575	3367
893.697	3317
893.819	3462
893.941	3530
894.064	3485
894.186	3283
894.308	3249
894.43	3485
894.552	3572
894.674	3519
894.796	3279
894.918	3336
895.04	3317
895.161	3450
895.283	3412
895.405	3306
895.526	3370
895.648	3431
895.769	3488
895.891	3485
896.012	3526
896.134	3515
896.255	3431
896.376	3435
896.498	3397
896.619	3473
896.74	3431
896.861	3420
896.982	3736
897.103	3808
897.224	3622
897.345	3534
897.466	3447
897.587	3530
897.708	3667
897.828	3599
897.949	3492
898.07	3370
898.19	3443
898.311	3629
898.431	3523
898.552	3515
898.672	3637
898.792	3599
898.913	3561
899.033	3454
899.153	3378
899.273	3214
899.393	3317
899.513	3363
899.633	3329
899.753	3363
899.873	3302
899.993	3397
900.113	3393
900.232	3401
900.352	3389
900.472	3348
900.591	3230
900.711	3317
900.83	3298
900.95	3466
901.069	3538
901.189	3397
901.308	3188
901.427	3135
901.546	3211
901.665	3283
901.784	3374
901.904	3253
902.023	3154
902.141	3036
902.26	3055
902.379	3195
902.498	3097
902.617	3051
902.735	3222
902.854	3253
902.973	3199
903.091	3089
903.21	3100
903.328	3150
903.446	3131
903.565	3146
903.683	3218
903.801	3214
903.919	3279
904.038	3355
904.156	3211
904.274	3340
904.392	3275
904.51	3329
904.627	3344
904.745	3477
904.863	3534
904.981	3306
905.098	3176
905.216	3233
905.334	3351
905.451	3332
905.569	3367
905.686	3477
905.803	3492
905.921	3348
906.038	3477
906.155	3389
906.272	3268
906.389	3355
906.506	3249
906.623	3279
906.74	3298
906.857	3214
906.974	3302
907.091	3485
907.208	3587
907.324	3504
907.441	3424
907.557	3283
907.674	3249
907.79	3264
907.907	3340
908.023	3416
908.139	3363
908.256	3355
908.372	3370
908.488	3374
908.604	3298
908.72	3268
908.836	3317
908.952	3275
909.068	3370
909.184	3477
909.3	3424
909.415	3511
909.531	3492
909.647	3321
909.762	3332
909.878	3294
909.993	3378
910.108	3370
910.224	3367
910.339	3492
910.454	3363
910.57	3348
910.685	3283
910.8	3641
910.915	3587
911.03	3431
911.145	3306
911.259	3336
911.374	3336
911.489	3306
911.604	3298
911.718	3161
911.833	3207
911.947	3036
912.062	3020
912.176	3195
912.291	3275
912.405	3226
912.519	3462
912.633	3500
912.748	3336
912.862	3294
912.976	3192
913.09	3081
913.204	3150
913.318	3272
913.431	3370
913.545	3370
913.659	3420
913.772	3393
913.886	3264
914	3218
914.113	3359
914.226	3481
914.34	3367
914.453	3230
914.566	3443
914.68	3332
914.793	3344
914.906	3169
915.019	3123
915.132	3085
915.245	3218
915.358	3241
915.47	3222
915.583	3279
915.696	3321
915.809	3454
915.921	3416
916.034	3287
916.146	3279
916.259	3268
916.371	3393
916.483	3416
916.595	3245
916.708	3401
916.82	3374
916.932	3359
917.044	3332
917.156	3378
917.268	3306
917.38	3344
917.491	3348
917.603	3351
917.715	3500
917.826	3473
917.938	3401
918.049	3317
918.161	3469
918.272	3591
918.384	3603
918.495	3534
918.606	3386
918.717	3283
918.828	3401
918.939	3458
919.05	3317
919.161	3420
919.272	3176
919.383	3302
919.494	3542
919.604	3709
919.715	3530
919.826	3420
919.936	3492
920.047	3644
920.157	3561
920.267	3800
920.378	3644
920.488	3629
920.598	3835
920.708	3983
920.818	3827
920.928	3838
921.038	4093
921.148	4032
921.258	3720
921.368	3656
921.477	3591
921.587	3545
921.697	3458
921.806	3663
921.916	3549
922.025	3370
922.134	3412
922.244	3329
922.353	3428
922.462	3317
922.571	3241
922.68	3097
922.789	3093
922.898	3157
923.007	3119
923.116	3222
923.224	3203
923.333	3218
923.442	3108
923.55	3074
923.659	3165
923.767	3230
923.876	3135
923.984	3283
924.092	3123
924.201	3211
924.309	3260
924.417	3272
924.525	3195
924.633	3260
924.741	4280
924.849	3081
924.956	3268
925.064	3127
925.172	3074
925.279	3131
925.387	3218
925.494	3226
925.602	3389
925.709	3374
925.816	3188
925.924	3317
926.031	3409
926.138	3355
926.245	3386
926.352	3283
926.459	3412
926.566	3496
926.673	3344
926.779	3264
926.886	3310
926.993	3165
927.099	3169
927.206	3150
927.312	3150
927.419	3249
927.525	3268
927.631	3329
927.737	3180
927.843	3184
927.95	3055
928.056	3161
928.162	3214
928.267	3287
928.373	3854
928.479	3348
928.585	3100
928.69	3256
928.796	3291
928.901	3218
929.007	3047
929.112	3222
929.218	3226
929.323	3211
929.428	3169
929.533	3344
929.638	3169
929.743	3184
929.848	3260
929.953	3256
930.058	3203
930.163	3039
930.267	3074
930.372	3211
930.477	3051
930.581	3363
930.685	3199
930.79	3093
930.894	3142
930.998	3108
931.103	3317
931.207	2933
931.311	3013
931.415	2952
931.519	2800
931.623	2811
