Data from test_V78500241_1580.txt Node
Date: Fri Mar 25 16:26:08 CST 2022
User: usil
Spectrometer: V785-0024
Trigger mode: 0
Integration Time (sec): 4.000000E-1
Scans to average: 1
Nonlinearity correction enabled: false
Boxcar width: 0
Storing dark spectrum: false
XAxis mode: Wavelengths
Number of Pixels in Spectrum: 1024
>>>>>Begin Spectral Data<<<<<
801.071	2937
801.214	2982
801.356	2887
801.499	2944
801.641	2937
801.783	2933
801.926	3081
802.068	3020
802.211	3013
802.353	3119
802.496	2990
802.638	3043
802.78	3097
802.923	3123
803.065	3020
803.208	2925
803.35	2956
803.492	2994
803.635	3001
803.777	2804
803.919	2925
804.061	3230
804.204	2994
804.346	2960
804.488	2925
804.63	3028
804.773	2880
804.915	2956
805.057	3112
805.199	2990
805.341	3047
805.483	3104
805.626	3077
805.768	2994
805.91	3150
806.052	3154
806.194	3093
806.336	3249
806.478	3032
806.62	2990
806.762	2967
806.904	3123
807.046	3176
807.188	3032
807.33	2967
807.472	3013
807.614	2944
807.756	3028
807.898	2963
808.04	2944
808.182	2994
808.324	2956
808.465	2944
808.607	2887
808.749	2838
808.891	2895
809.033	3043
809.174	3013
809.316	2925
809.458	2925
809.6	2800
809.741	2804
809.883	2788
810.025	2887
810.166	2891
810.308	2876
810.45	2902
810.591	2826
810.733	2834
810.875	2830
811.016	2815
811.158	2800
811.299	2845
811.441	2956
811.582	2895
811.724	2838
811.865	2864
812.007	2918
812.148	2910
812.29	2891
812.431	2883
812.573	2914
812.714	2994
812.855	3108
812.997	3108
813.138	3116
813.279	3047
813.421	3020
813.562	3009
813.703	2906
813.845	2944
813.986	2823
814.127	2743
814.268	2819
814.41	2853
814.551	2804
814.692	2918
814.833	2872
814.974	2902
815.115	2986
815.256	2861
815.397	2834
815.539	2944
815.68	2800
815.821	2804
815.962	2952
816.103	2971
816.244	2918
816.385	2887
816.526	2971
816.666	2925
816.807	2781
816.948	2933
817.089	2906
817.23	2868
817.371	2807
817.512	2815
817.653	2899
817.793	2830
817.934	2895
818.075	2994
818.216	3024
818.356	3077
818.497	2868
818.638	2792
818.778	2830
818.919	2845
819.06	2777
819.2	2872
819.341	2823
819.481	2857
819.622	2952
819.762	3100
819.903	3058
820.043	2956
820.184	2960
820.324	2910
820.465	3058
820.605	3055
820.746	3043
820.886	2975
821.026	3127
821.167	3180
821.307	3249
821.447	3283
821.588	3241
821.728	3268
821.868	3214
822.008	3100
822.149	3245
822.289	3230
822.429	3093
822.569	3135
822.709	3184
822.849	3089
822.99	3112
823.13	3188
823.27	3211
823.41	3089
823.55	3154
823.69	3169
823.83	3230
823.97	3123
824.11	3058
824.25	3020
824.389	3070
824.529	3142
824.669	3089
824.809	3222
824.949	3275
825.089	3222
825.228	3192
825.368	3009
825.508	2990
825.648	2982
825.787	3058
825.927	3028
826.067	3009
826.206	2963
826.346	3062
826.485	3097
826.625	3142
826.765	3310
826.904	3226
827.044	3024
827.183	2971
827.323	2918
827.462	2990
827.601	2941
827.741	2941
827.88	2963
828.02	2861
828.159	2994
828.298	3058
828.437	3135
828.577	3039
828.716	3222
828.855	3108
828.994	2948
829.134	2906
829.273	2941
829.412	2918
829.551	2902
829.69	2910
829.829	3009
829.968	3161
830.107	2979
830.246	3066
830.385	2952
830.524	2887
830.663	2826
830.802	2811
830.941	2701
831.08	2655
831.219	2781
831.357	2785
831.496	2986
831.635	2731
831.774	2651
831.913	2670
832.051	2590
832.19	2575
832.329	2705
832.467	2579
832.606	2492
832.744	2621
832.883	2594
833.022	2617
833.16	2686
833.299	2716
833.437	2754
833.576	2727
833.714	2743
833.852	2731
833.991	2796
834.129	2853
834.267	2857
834.406	2796
834.544	2902
834.682	2906
834.821	2899
834.959	3062
835.097	2899
835.235	3081
835.373	2982
835.511	3013
835.65	3001
835.788	3001
835.926	2834
836.064	2849
836.202	2891
836.34	3123
836.478	3184
836.615	3058
836.753	3127
836.891	3241
837.029	3195
837.167	3123
837.305	3093
837.443	3081
837.58	2982
837.718	3112
837.856	3058
837.993	3058
838.131	3165
838.269	3108
838.406	3142
838.544	3112
838.681	2933
838.819	2971
838.956	2845
839.094	2868
839.231	2922
839.369	3055
839.506	3355
839.643	3218
839.781	3013
839.918	3005
840.055	3074
840.193	3070
840.33	3116
840.467	3127
840.604	3138
840.742	3393
840.879	3077
841.016	3089
841.153	3150
841.29	3359
841.427	3306
841.564	3256
841.701	3321
841.838	3203
841.975	3203
842.112	3207
842.249	3127
842.385	3066
842.522	3332
842.659	3154
842.796	3077
842.933	3116
843.069	3047
843.206	3047
843.343	3184
843.479	3138
843.616	3146
843.752	2933
843.889	2876
844.025	3085
844.162	2899
844.298	3062
844.435	2994
844.571	2929
844.708	3051
844.844	3192
844.98	3256
845.117	3188
845.253	3070
845.389	3024
845.525	3093
845.661	3123
845.798	3047
845.934	3138
846.07	3066
846.206	3241
846.342	3325
846.478	3287
846.614	3131
846.75	3081
846.886	3013
847.022	3249
847.158	3176
847.294	3249
847.429	3279
847.565	3226
847.701	3458
847.837	3055
847.972	3020
848.108	3180
848.244	3157
848.379	3020
848.515	2975
848.65	2971
848.786	2979
848.921	3043
849.057	3131
849.192	3173
849.328	3074
849.463	3104
849.598	3093
849.734	3024
849.869	2971
850.004	2937
850.14	2960
850.275	2937
850.41	2838
850.545	2918
850.68	2944
850.815	2925
850.95	3001
851.085	3203
851.22	3097
851.355	3055
851.49	2986
851.625	3051
851.76	3051
851.895	2933
852.03	2914
852.165	3077
852.299	3097
852.434	3195
852.569	3195
852.703	3260
852.838	3245
852.973	3336
853.107	3367
853.242	3192
853.376	3104
853.511	2994
853.645	3066
853.78	3256
853.914	3123
854.048	3176
854.183	3119
854.317	3169
854.451	3306
854.585	3150
854.72	3085
854.854	3211
854.988	3066
855.122	3081
855.256	2963
855.39	3176
855.524	3249
855.658	3192
855.792	3169
855.926	3214
856.06	3253
856.194	3260
856.327	3157
856.461	3112
856.595	3070
856.729	3097
856.862	3230
856.996	3211
857.13	3192
857.263	3207
857.397	3272
857.53	3108
857.664	3211
857.797	3230
857.931	3287
858.064	3203
858.197	3233
858.331	3150
858.464	3097
858.597	2994
858.731	3123
858.864	3131
858.997	3097
859.13	3176
859.263	3161
859.396	3180
859.529	3077
859.662	2998
859.795	3074
859.928	3138
860.061	3253
860.194	3283
860.327	3123
860.46	3085
860.592	3237
860.725	3230
860.858	3260
860.99	3116
861.123	3039
861.256	3070
861.388	3138
861.521	3884
861.653	3055
861.786	2986
861.918	3024
862.05	3077
862.183	3104
862.315	3154
862.447	3237
862.58	3108
862.712	2937
862.844	2902
862.976	3043
863.108	3020
863.24	3378
863.372	2872
863.504	2956
863.636	2960
863.768	3047
863.9	3009
864.032	2883
864.164	2967
864.296	3020
864.428	3104
864.559	3131
864.691	3081
864.823	3039
864.954	3058
865.086	3062
865.217	2967
865.349	2952
865.48	2971
865.612	3020
865.743	3184
865.875	2975
866.006	2963
866.137	2994
866.269	2941
866.4	2979
866.531	2906
866.662	2891
866.793	2941
866.924	2895
867.055	2937
867.186	2929
867.317	2902
867.448	2815
867.579	2838
867.71	2815
867.841	2819
867.972	2891
868.103	2933
868.233	2902
868.364	2895
868.495	2922
868.625	3112
868.756	3169
868.886	2990
869.017	3039
869.147	3165
869.278	3184
869.408	3043
869.539	3039
869.669	3081
869.799	3077
869.929	3161
870.06	3097
870.19	3321
870.32	3302
870.45	3287
870.58	3363
870.71	3428
870.84	3481
870.97	3329
871.1	3245
871.23	3481
871.36	3496
871.489	3340
871.619	3405
871.749	3409
871.879	3428
872.008	3462
872.138	3329
872.267	3268
872.397	3165
872.526	3112
872.656	3005
872.785	3108
872.915	3253
873.044	3294
873.173	3214
873.303	3283
873.432	3260
873.561	3260
873.69	3188
873.819	3169
873.948	3203
874.077	3138
874.206	3028
874.335	3100
874.464	3218
874.593	3378
874.722	3218
874.851	3378
874.979	3359
875.108	3310
875.237	3207
875.365	3127
875.494	3199
875.623	3283
875.751	3093
875.88	3150
876.008	3195
876.136	3253
876.265	3386
876.393	3515
876.521	3405
876.65	3420
876.778	3329
876.906	3237
877.034	3199
877.162	3222
877.29	3180
877.418	3279
877.546	3222
877.674	3230
877.802	3241
877.93	3226
878.058	3116
878.185	3127
878.313	3226
878.441	3226
878.568	3051
878.696	3157
878.824	3249
878.951	3287
879.079	3431
879.206	3606
879.333	3435
879.461	3317
879.588	3332
879.715	3439
879.842	3599
879.97	3374
880.097	3173
880.224	3108
880.351	3188
880.478	3233
880.605	3188
880.732	3203
880.859	3473
880.986	3294
881.112	3351
881.239	3230
881.366	3070
881.493	3039
881.619	3028
881.746	3058
881.872	3089
881.999	3097
882.125	3165
882.252	3233
882.378	3302
882.505	3386
882.631	3249
882.757	3142
882.883	3184
883.01	3214
883.136	3161
883.262	3089
883.388	3119
883.514	3306
883.64	3378
883.766	3272
883.892	3173
884.018	3203
884.143	3397
884.269	3534
884.395	3184
884.52	3188
884.646	3142
884.772	3112
884.897	3123
885.023	3184
885.148	3344
885.274	3420
885.399	3336
885.524	3272
885.65	3226
885.775	3336
885.9	3253
886.025	3450
886.15	3363
886.275	3298
886.4	3214
886.525	3279
886.65	3253
886.775	3310
886.9	3492
887.025	3599
887.149	3428
887.274	3256
887.399	3165
887.523	3203
887.648	3226
887.773	3173
887.897	3370
888.021	3397
888.146	3283
888.27	3416
888.395	3519
888.519	3420
888.643	3469
888.767	3458
888.891	3325
889.015	3256
889.139	3294
889.263	3268
889.387	3439
889.511	3523
889.635	3450
889.759	3302
889.883	3283
890.006	3386
890.13	3477
890.254	3272
890.377	3355
890.501	3226
890.624	3203
890.748	3287
890.871	3218
890.995	3112
891.118	3097
891.241	3211
891.364	3218
891.488	3313
891.611	3161
891.734	3218
891.857	3272
891.98	3241
892.103	3351
892.226	3253
892.349	3199
892.471	3089
892.594	3291
892.717	3294
892.839	3260
892.962	3310
893.085	3389
893.207	3310
893.33	3157
893.452	3207
893.575	3340
893.697	3256
893.819	3462
893.941	3515
894.064	3435
894.186	3275
894.308	3275
894.43	3447
894.552	3515
894.674	3462
894.796	3279
894.918	3298
895.04	3332
895.161	3416
895.283	3409
895.405	3306
895.526	3382
895.648	3439
895.769	3397
895.891	3462
896.012	3481
896.134	3431
896.255	3409
896.376	3351
896.498	3344
896.619	3412
896.74	3412
896.861	3416
896.982	3671
897.103	3838
897.224	3584
897.345	3496
897.466	3412
897.587	3504
897.708	3610
897.828	3545
897.949	3462
898.07	3344
898.19	3409
898.311	3595
898.431	3439
898.552	3466
898.672	3622
898.792	3584
898.913	3530
899.033	3435
899.153	3291
899.273	3214
899.393	3310
899.513	3310
899.633	3302
899.753	3340
899.873	3321
899.993	3367
900.113	3321
900.232	3428
900.352	3313
900.472	3329
900.591	3241
900.711	3298
900.83	3253
900.95	3393
901.069	3469
901.189	3351
901.308	3165
901.427	3154
901.546	3161
901.665	3287
901.784	3306
901.904	3218
902.023	3169
902.141	3020
902.26	2986
902.379	3131
902.498	3093
902.617	3070
902.735	3188
902.854	3230
902.973	3233
903.091	3043
903.21	3077
903.328	3142
903.446	3093
903.565	3138
903.683	3192
903.801	3150
903.919	3253
904.038	3283
904.156	3169
904.274	3272
904.392	3260
904.51	3275
904.627	3332
904.745	3469
904.863	3485
904.981	3260
905.098	3157
905.216	3214
905.334	3256
905.451	3310
905.569	3332
905.686	3435
905.803	3439
905.921	3287
906.038	3424
906.155	3348
906.272	3268
906.389	3336
906.506	3195
906.623	3211
906.74	3298
906.857	3146
906.974	3253
907.091	3450
907.208	3595
907.324	3447
907.441	3401
907.557	3222
907.674	3218
907.79	3195
907.907	3260
908.023	3397
908.139	3409
908.256	3332
908.372	3382
908.488	3355
908.604	3291
908.72	3218
908.836	3253
908.952	3275
909.068	3321
909.184	3439
909.3	3409
909.415	3542
909.531	3492
909.647	3306
909.762	3306
909.878	3268
909.993	3348
910.108	3329
910.224	3340
910.339	3401
910.454	3306
910.57	3272
910.685	3237
910.8	3568
910.915	3545
911.03	3431
911.145	3241
911.259	3294
911.374	3298
911.489	3199
911.604	3195
911.718	3135
911.833	3142
911.947	3043
912.062	2971
912.176	3142
912.291	3214
912.405	3218
912.519	3439
912.633	3424
912.748	3344
912.862	3272
912.976	3146
913.09	3077
913.204	3161
913.318	3241
913.431	3329
913.545	3412
913.659	3409
913.772	3344
913.886	3222
914	3214
914.113	3359
914.226	3428
914.34	3363
914.453	3199
914.566	3405
914.68	3253
914.793	3321
914.906	3116
915.019	3116
915.132	3081
915.245	3195
915.358	3188
915.47	3207
915.583	3256
915.696	3291
915.809	3386
915.921	3450
916.034	3275
916.146	3272
916.259	3165
916.371	3401
916.483	3340
916.595	3233
916.708	3348
916.82	3374
916.932	3367
917.044	3348
917.156	3386
917.268	3253
917.38	3275
917.491	3283
917.603	3351
917.715	3477
917.826	3473
917.938	3370
918.049	3260
918.161	3428
918.272	3561
918.384	3561
918.495	3530
918.606	3374
918.717	3268
918.828	3374
918.939	3424
919.05	3332
919.161	3351
919.272	3173
919.383	3268
919.494	3450
919.604	3637
919.715	3466
919.826	3416
919.936	3462
920.047	3603
920.157	3564
920.267	3751
920.378	3606
920.488	3576
920.598	3789
920.708	3964
920.818	3861
920.928	3842
921.038	4067
921.148	4013
921.258	3698
921.368	3606
921.477	3614
921.587	3523
921.697	3439
921.806	3633
921.916	3534
922.025	3374
922.134	3351
922.244	3294
922.353	3431
922.462	3256
922.571	3249
922.68	3108
922.789	3116
922.898	3119
923.007	3108
923.116	3173
923.224	3142
923.333	3180
923.442	3085
923.55	3112
923.659	3131
923.767	3203
923.876	3100
923.984	3283
924.092	3081
924.201	3173
924.309	3188
924.417	3230
924.525	3150
924.633	3260
924.741	4211
924.849	3013
924.956	3268
925.064	3077
925.172	3062
925.279	3093
925.387	3154
925.494	3203
925.602	3382
925.709	3336
925.816	3199
925.924	3294
926.031	3382
926.138	3272
926.245	3367
926.352	3195
926.459	3416
926.566	3462
926.673	3344
926.779	3272
926.886	3233
926.993	3165
927.099	3112
927.206	3108
927.312	3074
927.419	3214
927.525	3195
927.631	3268
927.737	3184
927.843	3097
927.95	3055
928.056	3131
928.162	3138
928.267	3264
928.373	3854
928.479	3306
928.585	3070
928.69	3233
928.796	3279
928.901	3169
929.007	3081
929.112	3203
929.218	3161
929.323	3131
929.428	3123
929.533	3298
929.638	3108
929.743	3188
929.848	3260
929.953	3214
930.058	3169
930.163	3036
930.267	3062
930.372	3184
930.477	3066
930.581	3310
930.685	3169
930.79	3051
930.894	3138
930.998	3058
931.103	3329
931.207	2960
931.311	2925
931.415	2933
931.519	2758
931.623	2800
