Data from test_V78500241_883.txt Node
Date: Fri Mar 25 16:21:19 CST 2022
User: usil
Spectrometer: V785-0024
Trigger mode: 0
Integration Time (sec): 4.000000E-1
Scans to average: 1
Nonlinearity correction enabled: false
Boxcar width: 0
Storing dark spectrum: false
XAxis mode: Wavelengths
Number of Pixels in Spectrum: 1024
>>>>>Begin Spectral Data<<<<<
801.071	2918
801.214	3005
801.356	2876
801.499	2895
801.641	2883
801.783	2929
801.926	3077
802.068	3001
802.211	3024
802.353	3058
802.496	3009
802.638	3001
802.78	3024
802.923	3089
803.065	3005
803.208	2906
803.35	2914
803.492	2960
803.635	2952
803.777	2792
803.919	2864
804.061	3245
804.204	2994
804.346	2933
804.488	2842
804.63	2986
804.773	2895
804.915	2906
805.057	3093
805.199	2956
805.341	2994
805.483	3039
805.626	2971
805.768	2979
805.91	3116
806.052	3097
806.194	3039
806.336	3260
806.478	3020
806.62	2979
806.762	2967
806.904	3051
807.046	3226
807.188	2990
807.33	2937
807.472	2979
807.614	2902
807.756	2971
807.898	2933
808.04	2902
808.182	3017
808.324	2979
808.465	2910
808.607	2899
808.749	2838
808.891	2834
809.033	3009
809.174	2975
809.316	2868
809.458	2929
809.6	2735
809.741	2781
809.883	2788
810.025	2849
810.166	2845
810.308	2819
810.45	2868
810.591	2804
810.733	2769
810.875	2845
811.016	2785
811.158	2769
811.299	2811
811.441	2906
811.582	2933
811.724	2819
811.865	2823
812.007	2929
812.148	2849
812.29	2861
812.431	2891
812.573	2963
812.714	2986
812.855	3070
812.997	3017
813.138	3116
813.279	3074
813.421	2986
813.562	2948
813.703	2857
813.845	2910
813.986	2800
814.127	2758
814.268	2838
814.41	2796
814.551	2834
814.692	2864
814.833	2804
814.974	2887
815.115	2963
815.256	2826
815.397	2807
815.539	2838
815.68	2785
815.821	2796
815.962	2937
816.103	2944
816.244	2849
816.385	2853
816.526	2975
816.666	2925
816.807	2735
816.948	2883
817.089	2868
817.23	2845
817.371	2758
817.512	2773
817.653	2849
817.793	2887
817.934	2906
818.075	2941
818.216	2963
818.356	2998
818.497	2887
818.638	2762
818.778	2830
818.919	2785
819.06	2758
819.2	2849
819.341	2811
819.481	2823
819.622	2941
819.762	3112
819.903	3066
820.043	2876
820.184	2906
820.324	2899
820.465	3066
820.605	3013
820.746	3001
820.886	2933
821.026	3116
821.167	3150
821.307	3279
821.447	3313
821.588	3268
821.728	3237
821.868	3214
822.008	3093
822.149	3214
822.289	3237
822.429	3097
822.569	3135
822.709	3214
822.849	3066
822.99	3077
823.13	3173
823.27	3253
823.41	3119
823.55	3188
823.69	3161
823.83	3241
823.97	3123
824.11	3024
824.25	3028
824.389	3093
824.529	3146
824.669	3157
824.809	3249
824.949	3283
825.089	3237
825.228	3214
825.368	3081
825.508	3051
825.648	3005
825.787	3036
825.927	3070
826.067	3036
826.206	3028
826.346	3112
826.485	3135
826.625	3097
826.765	3291
826.904	3230
827.044	3017
827.183	2948
827.323	2918
827.462	3039
827.601	2971
827.741	2963
827.88	2979
828.02	2902
828.159	3028
828.298	3081
828.437	3161
828.577	3112
828.716	3291
828.855	3081
828.994	2975
829.134	2914
829.273	2956
829.412	2918
829.551	2887
829.69	2933
829.829	2994
829.968	3192
830.107	3036
830.246	3085
830.385	2956
830.524	2933
830.663	2842
830.802	2777
830.941	2705
831.08	2693
831.219	2834
831.357	2769
831.496	2963
831.635	2739
831.774	2686
831.913	2731
832.051	2613
832.19	2644
832.329	2746
832.467	2590
832.606	2541
832.744	2613
832.883	2629
833.022	2629
833.16	2667
833.299	2735
833.437	2739
833.576	2678
833.714	2766
833.852	2788
833.991	2804
834.129	2876
834.267	2864
834.406	2826
834.544	2922
834.682	2933
834.821	2899
834.959	3116
835.097	2925
835.235	3089
835.373	3058
835.511	3043
835.65	2990
835.788	2971
835.926	2834
836.064	2876
836.202	2918
836.34	3127
836.478	3161
836.615	3066
836.753	3127
836.891	3222
837.029	3214
837.167	3108
837.305	3146
837.443	3077
837.58	2982
837.718	3188
837.856	3097
837.993	3062
838.131	3184
838.269	3127
838.406	3142
838.544	3138
838.681	2967
838.819	2914
838.956	2868
839.094	2883
839.231	2971
839.369	3085
839.506	3401
839.643	3264
839.781	3055
839.918	2990
840.055	3097
840.193	3089
840.33	3108
840.467	3161
840.604	3195
840.742	3450
840.879	3131
841.016	3074
841.153	3146
841.29	3340
841.427	3367
841.564	3287
841.701	3389
841.838	3245
841.975	3233
842.112	3241
842.249	3123
842.385	3055
842.522	3310
842.659	3112
842.796	3100
842.933	3100
843.069	3066
843.206	3097
843.343	3218
843.479	3135
843.616	3150
843.752	2941
843.889	2914
844.025	3112
844.162	2914
844.298	3104
844.435	2956
844.571	2948
844.708	3100
844.844	3207
844.98	3245
845.117	3203
845.253	3066
845.389	3036
845.525	3138
845.661	3100
845.798	3032
845.934	3173
846.07	3093
846.206	3226
846.342	3348
846.478	3241
846.614	3108
846.75	3119
846.886	3013
847.022	3226
847.158	3180
847.294	3249
847.429	3256
847.565	3233
847.701	3538
847.837	3066
847.972	3036
848.108	3233
848.244	3188
848.379	3017
848.515	2971
848.65	2971
848.786	2948
848.921	3051
849.057	3089
849.192	3157
849.328	3119
849.463	3138
849.598	3070
849.734	3055
849.869	3005
850.004	2933
850.14	2994
850.275	2944
850.41	2872
850.545	2906
850.68	2979
850.815	2990
850.95	3013
851.085	3207
851.22	3131
851.355	3028
851.49	2998
851.625	3020
851.76	3055
851.895	2982
852.03	2937
852.165	3070
852.299	3161
852.434	3249
852.569	3161
852.703	3173
852.838	3207
852.973	3359
853.107	3374
853.242	3199
853.376	3119
853.511	2990
853.645	3062
853.78	3279
853.914	3127
854.048	3157
854.183	3146
854.317	3184
854.451	3321
854.585	3173
854.72	3123
854.854	3241
854.988	3074
855.122	3127
855.256	3005
855.39	3169
855.524	3256
855.658	3199
855.792	3165
855.926	3241
856.06	3211
856.194	3279
856.327	3222
856.461	3127
856.595	3146
856.729	3135
856.862	3207
856.996	3176
857.13	3222
857.263	3260
857.397	3260
857.53	3169
857.664	3207
857.797	3291
857.931	3272
858.064	3211
858.197	3245
858.331	3150
858.464	3116
858.597	3005
858.731	3138
858.864	3157
858.997	3074
859.13	3188
859.263	3150
859.396	3241
859.529	3123
859.662	3085
859.795	3085
859.928	3142
860.061	3272
860.194	3302
860.327	3142
860.46	3138
860.592	3275
860.725	3306
860.858	3287
860.99	3154
861.123	3081
861.256	3097
861.388	3146
861.521	3857
861.653	3001
861.786	3017
861.918	3005
862.05	3085
862.183	3093
862.315	3173
862.447	3211
862.58	3100
862.712	2998
862.844	2895
862.976	3043
863.108	3005
863.24	3336
863.372	2925
863.504	2975
863.636	2960
863.768	3036
863.9	3039
864.032	2918
864.164	2960
864.296	3017
864.428	3154
864.559	3127
864.691	3097
864.823	3089
864.954	3066
865.086	3028
865.217	3020
865.349	2986
865.48	3001
865.612	3051
865.743	3176
865.875	3024
866.006	2956
866.137	3005
866.269	2937
866.4	2937
866.531	2918
866.662	2944
866.793	2891
866.924	2941
867.055	3001
867.186	2960
867.317	2891
867.448	2857
867.579	2906
867.71	2899
867.841	2830
867.972	2914
868.103	2902
868.233	2899
868.364	2887
868.495	2941
868.625	3097
868.756	3199
868.886	2990
869.017	3028
869.147	3165
869.278	3199
869.408	3093
869.539	3093
869.669	3127
869.799	3032
869.929	3157
870.06	3119
870.19	3348
870.32	3294
870.45	3298
870.58	3382
870.71	3492
870.84	3473
870.97	3310
871.1	3253
871.23	3469
871.36	3462
871.489	3317
871.619	3420
871.749	3393
871.879	3443
872.008	3477
872.138	3367
872.267	3298
872.397	3176
872.526	3157
872.656	3051
872.785	3142
872.915	3264
873.044	3370
873.173	3272
873.303	3287
873.432	3283
873.561	3233
873.69	3165
873.819	3192
873.948	3222
874.077	3112
874.206	3085
874.335	3135
874.464	3226
874.593	3336
874.722	3291
874.851	3412
874.979	3386
875.108	3359
875.237	3230
875.365	3195
875.494	3138
875.623	3272
875.751	3112
875.88	3097
876.008	3245
876.136	3264
876.265	3386
876.393	3511
876.521	3447
876.65	3416
876.778	3374
876.906	3279
877.034	3165
877.162	3237
877.29	3211
877.418	3256
877.546	3253
877.674	3275
877.802	3275
877.93	3222
878.058	3192
878.185	3123
878.313	3226
878.441	3245
878.568	3097
878.696	3127
878.824	3256
878.951	3306
879.079	3443
879.206	3656
879.333	3435
879.461	3310
879.588	3329
879.715	3481
879.842	3625
879.97	3389
880.097	3154
880.224	3138
880.351	3192
880.478	3222
880.605	3218
880.732	3199
880.859	3504
880.986	3332
881.112	3310
881.239	3230
881.366	3085
881.493	3043
881.619	3039
881.746	3108
881.872	3116
881.999	3131
882.125	3184
882.252	3268
882.378	3325
882.505	3431
882.631	3279
882.757	3192
882.883	3230
883.01	3241
883.136	3161
883.262	3165
883.388	3131
883.514	3340
883.64	3416
883.766	3317
883.892	3203
884.018	3245
884.143	3420
884.269	3591
884.395	3184
884.52	3173
884.646	3150
884.772	3173
884.897	3157
885.023	3192
885.148	3351
885.274	3386
885.399	3401
885.524	3298
885.65	3275
885.775	3325
885.9	3321
886.025	3428
886.15	3378
886.275	3317
886.4	3230
886.525	3329
886.65	3272
886.775	3264
886.9	3507
887.025	3690
887.149	3454
887.274	3283
887.399	3184
887.523	3195
887.648	3226
887.773	3226
887.897	3367
888.021	3420
888.146	3310
888.27	3428
888.395	3584
888.519	3454
888.643	3519
888.767	3485
888.891	3310
889.015	3260
889.139	3302
889.263	3245
889.387	3439
889.511	3542
889.635	3443
889.759	3279
889.883	3310
890.006	3397
890.13	3477
890.254	3279
890.377	3340
890.501	3222
890.624	3188
890.748	3310
890.871	3157
890.995	3104
891.118	3100
891.241	3241
891.364	3230
891.488	3275
891.611	3195
891.734	3233
891.857	3310
891.98	3283
892.103	3374
892.226	3283
892.349	3253
892.471	3116
892.594	3272
892.717	3279
892.839	3287
892.962	3310
893.085	3397
893.207	3310
893.33	3203
893.452	3226
893.575	3355
893.697	3313
893.819	3477
893.941	3477
894.064	3435
894.186	3279
894.308	3249
894.43	3424
894.552	3488
894.674	3469
894.796	3279
894.918	3306
895.04	3310
895.161	3481
895.283	3477
895.405	3294
895.526	3386
895.648	3443
895.769	3412
895.891	3431
896.012	3450
896.134	3469
896.255	3405
896.376	3359
896.498	3348
896.619	3389
896.74	3386
896.861	3420
896.982	3690
897.103	3835
897.224	3625
897.345	3523
897.466	3443
897.587	3519
897.708	3614
897.828	3606
897.949	3416
898.07	3351
898.19	3374
898.311	3633
898.431	3405
898.552	3519
898.672	3587
898.792	3584
898.913	3504
899.033	3401
899.153	3310
899.273	3218
899.393	3253
899.513	3332
899.633	3340
899.753	3355
899.873	3344
899.993	3412
900.113	3332
900.232	3397
900.352	3325
900.472	3313
900.591	3241
900.711	3298
900.83	3195
900.95	3389
901.069	3515
901.189	3340
901.308	3188
901.427	3131
901.546	3180
901.665	3268
901.784	3367
901.904	3218
902.023	3161
902.141	3070
902.26	3001
902.379	3131
902.498	3070
902.617	3066
902.735	3218
902.854	3264
902.973	3222
903.091	3036
903.21	3093
903.328	3131
903.446	3108
903.565	3138
903.683	3237
903.801	3150
903.919	3287
904.038	3310
904.156	3173
904.274	3298
904.392	3310
904.51	3291
904.627	3355
904.745	3454
904.863	3496
904.981	3317
905.098	3195
905.216	3237
905.334	3283
905.451	3291
905.569	3325
905.686	3431
905.803	3450
905.921	3336
906.038	3424
906.155	3389
906.272	3291
906.389	3340
906.506	3245
906.623	3245
906.74	3275
906.857	3211
906.974	3253
907.091	3462
907.208	3587
907.324	3477
907.441	3428
907.557	3211
907.674	3237
907.79	3233
907.907	3283
908.023	3370
908.139	3374
908.256	3348
908.372	3351
908.488	3370
908.604	3253
908.72	3226
908.836	3302
908.952	3306
909.068	3340
909.184	3462
909.3	3397
909.415	3492
909.531	3466
909.647	3272
909.762	3313
909.878	3294
909.993	3370
910.108	3344
910.224	3348
910.339	3454
910.454	3321
910.57	3298
910.685	3230
910.8	3584
910.915	3553
911.03	3466
911.145	3272
911.259	3264
911.374	3359
911.489	3317
911.604	3207
911.718	3123
911.833	3161
911.947	3055
912.062	2998
912.176	3161
912.291	3207
912.405	3184
912.519	3439
912.633	3466
912.748	3310
912.862	3283
912.976	3195
913.09	3089
913.204	3138
913.318	3211
913.431	3355
913.545	3340
913.659	3435
913.772	3386
913.886	3207
914	3180
914.113	3367
914.226	3393
914.34	3363
914.453	3222
914.566	3435
914.68	3256
914.793	3298
914.906	3119
915.019	3070
915.132	3077
915.245	3165
915.358	3211
915.47	3211
915.583	3233
915.696	3291
915.809	3435
915.921	3405
916.034	3214
916.146	3264
916.259	3245
916.371	3393
916.483	3336
916.595	3268
916.708	3317
916.82	3340
916.932	3348
917.044	3310
917.156	3374
917.268	3264
917.38	3344
917.491	3287
917.603	3332
917.715	3447
917.826	3466
917.938	3428
918.049	3275
918.161	3443
918.272	3545
918.384	3549
918.495	3500
918.606	3348
918.717	3287
918.828	3386
918.939	3416
919.05	3268
919.161	3378
919.272	3184
919.383	3298
919.494	3538
919.604	3652
919.715	3500
919.826	3420
919.936	3466
920.047	3542
920.157	3557
920.267	3785
920.378	3625
920.488	3561
920.598	3850
920.708	4013
920.818	3838
920.928	3816
921.038	4021
921.148	4029
921.258	3724
921.368	3652
921.477	3603
921.587	3545
921.697	3458
921.806	3675
921.916	3564
922.025	3378
922.134	3374
922.244	3279
922.353	3435
922.462	3279
922.571	3237
922.68	3100
922.789	3070
922.898	3112
923.007	3081
923.116	3237
923.224	3176
923.333	3207
923.442	3097
923.55	3097
923.659	3150
923.767	3214
923.876	3112
923.984	3256
924.092	3093
924.201	3192
924.309	3233
924.417	3222
924.525	3218
924.633	3256
924.741	4196
924.849	3085
924.956	3241
925.064	3074
925.172	3051
925.279	3085
925.387	3199
925.494	3237
925.602	3336
925.709	3317
925.816	3188
925.924	3302
926.031	3382
926.138	3351
926.245	3393
926.352	3245
926.459	3428
926.566	3473
926.673	3283
926.779	3260
926.886	3268
926.993	3150
927.099	3108
927.206	3119
927.312	3146
927.419	3211
927.525	3218
927.631	3287
927.737	3108
927.843	3123
927.95	3043
928.056	3097
928.162	3161
928.267	3253
928.373	3846
928.479	3348
928.585	3070
928.69	3245
928.796	3268
928.901	3157
929.007	3055
929.112	3195
929.218	3161
929.323	3150
929.428	3173
929.533	3306
929.638	3127
929.743	3188
929.848	3268
929.953	3226
930.058	3142
930.163	3032
930.267	3074
930.372	3180
930.477	3032
930.581	3332
930.685	3192
930.79	3058
930.894	3100
930.998	3074
931.103	3275
931.207	2971
931.311	2967
931.415	2937
931.519	2796
931.623	2842
