Data from test_V78500241_1464.txt Node
Date: Fri Mar 25 16:25:20 CST 2022
User: usil
Spectrometer: V785-0024
Trigger mode: 0
Integration Time (sec): 4.000000E-1
Scans to average: 1
Nonlinearity correction enabled: false
Boxcar width: 0
Storing dark spectrum: false
XAxis mode: Wavelengths
Number of Pixels in Spectrum: 1024
>>>>>Begin Spectral Data<<<<<
801.071	2914
801.214	2963
801.356	2876
801.499	2944
801.641	2895
801.783	2910
801.926	3058
802.068	2986
802.211	2994
802.353	3036
802.496	2967
802.638	3077
802.78	3047
802.923	3077
803.065	2994
803.208	2914
803.35	2914
803.492	2933
803.635	2922
803.777	2777
803.919	2872
804.061	3233
804.204	2956
804.346	2887
804.488	2868
804.63	3009
804.773	2872
804.915	2918
805.057	3081
805.199	2918
805.341	3013
805.483	3062
805.626	2998
805.768	2944
805.91	3070
806.052	3112
806.194	3058
806.336	3230
806.478	3051
806.62	2944
806.762	2975
806.904	3036
807.046	3173
807.188	2986
807.33	2906
807.472	2960
807.614	2918
807.756	2963
807.898	2929
808.04	2887
808.182	3013
808.324	2960
808.465	2868
808.607	2857
808.749	2766
808.891	2823
809.033	2956
809.174	2975
809.316	2887
809.458	2887
809.6	2746
809.741	2785
809.883	2750
810.025	2834
810.166	2895
810.308	2826
810.45	2857
810.591	2766
810.733	2781
810.875	2819
811.016	2758
811.158	2769
811.299	2819
811.441	2944
811.582	2914
811.724	2838
811.865	2800
812.007	2891
812.148	2868
812.29	2883
812.431	2883
812.573	2937
812.714	2941
812.855	3081
812.997	3039
813.138	3055
813.279	3001
813.421	3001
813.562	2948
813.703	2906
813.845	2861
813.986	2785
814.127	2701
814.268	2785
814.41	2823
814.551	2815
814.692	2861
814.833	2785
814.974	2883
815.115	2914
815.256	2853
815.397	2773
815.539	2872
815.68	2781
815.821	2773
815.962	2937
816.103	2944
816.244	2849
816.385	2864
816.526	2960
816.666	2952
816.807	2724
816.948	2872
817.089	2883
817.23	2849
817.371	2781
817.512	2807
817.653	2819
817.793	2834
817.934	2849
818.075	2975
818.216	2979
818.356	3013
818.497	2883
818.638	2796
818.778	2807
818.919	2739
819.06	2727
819.2	2872
819.341	2781
819.481	2781
819.622	2906
819.762	3100
819.903	3051
820.043	2933
820.184	2906
820.324	2883
820.465	3009
820.605	3024
820.746	3036
820.886	2910
821.026	3100
821.167	3165
821.307	3264
821.447	3260
821.588	3222
821.728	3214
821.868	3222
822.008	3112
822.149	3184
822.289	3260
822.429	3108
822.569	3097
822.709	3169
822.849	3009
822.99	3062
823.13	3203
823.27	3233
823.41	3131
823.55	3135
823.69	3173
823.83	3207
823.97	3127
824.11	3043
824.25	3028
824.389	3108
824.529	3135
824.669	3089
824.809	3233
824.949	3325
825.089	3272
825.228	3180
825.368	2994
825.508	2990
825.648	3001
825.787	3074
825.927	3058
826.067	3009
826.206	3001
826.346	3058
826.485	3119
826.625	3154
826.765	3310
826.904	3245
827.044	3070
827.183	3001
827.323	2883
827.462	3062
827.601	2963
827.741	2967
827.88	2990
828.02	2895
828.159	3009
828.298	3047
828.437	3150
828.577	3066
828.716	3264
828.855	3138
828.994	2906
829.134	2914
829.273	2948
829.412	2895
829.551	2883
829.69	2895
829.829	3020
829.968	3165
830.107	3039
830.246	3047
830.385	2971
830.524	2914
830.663	2861
830.802	2766
830.941	2693
831.08	2686
831.219	2777
831.357	2804
831.496	2990
831.635	2766
831.774	2689
831.913	2682
832.051	2594
832.19	2610
832.329	2724
832.467	2575
832.606	2564
832.744	2655
832.883	2648
833.022	2632
833.16	2689
833.299	2750
833.437	2724
833.576	2708
833.714	2746
833.852	2781
833.991	2773
834.129	2876
834.267	2849
834.406	2838
834.544	2902
834.682	2948
834.821	2952
834.959	3066
835.097	2902
835.235	3074
835.373	3020
835.511	3089
835.65	2948
835.788	2994
835.926	2838
836.064	2842
836.202	2895
836.34	3142
836.478	3169
836.615	3093
836.753	3176
836.891	3226
837.029	3195
837.167	3089
837.305	3089
837.443	3070
837.58	3028
837.718	3195
837.856	3116
837.993	3058
838.131	3142
838.269	3161
838.406	3108
838.544	3127
838.681	3024
838.819	2963
838.956	2861
839.094	2838
839.231	2963
839.369	3074
839.506	3378
839.643	3291
839.781	3024
839.918	3028
840.055	3116
840.193	3074
840.33	3135
840.467	3142
840.604	3184
840.742	3447
840.879	3085
841.016	3085
841.153	3161
841.29	3363
841.427	3298
841.564	3275
841.701	3359
841.838	3241
841.975	3214
842.112	3226
842.249	3097
842.385	3036
842.522	3260
842.659	3150
842.796	3089
842.933	3135
843.069	3043
843.206	3051
843.343	3184
843.479	3138
843.616	3161
843.752	2914
843.889	2902
844.025	3093
844.162	2910
844.298	3085
844.435	2982
844.571	2922
844.708	3108
844.844	3211
844.98	3256
845.117	3195
845.253	3089
845.389	3051
845.525	3135
845.661	3138
845.798	3055
845.934	3184
846.07	3081
846.206	3211
846.342	3363
846.478	3283
846.614	3085
846.75	3070
846.886	3039
847.022	3279
847.158	3169
847.294	3214
847.429	3256
847.565	3245
847.701	3500
847.837	3032
847.972	3020
848.108	3188
848.244	3157
848.379	2986
848.515	3001
848.65	2956
848.786	2990
848.921	3024
849.057	3081
849.192	3138
849.328	3062
849.463	3157
849.598	3077
849.734	3055
849.869	3032
850.004	2971
850.14	2963
850.275	2933
850.41	2891
850.545	2899
850.68	2986
850.815	2986
850.95	3024
851.085	3214
851.22	3176
851.355	3051
851.49	2994
851.625	3013
851.76	3024
851.895	2929
852.03	2933
852.165	3077
852.299	3123
852.434	3188
852.569	3188
852.703	3203
852.838	3272
852.973	3340
853.107	3329
853.242	3161
853.376	3119
853.511	2979
853.645	3036
853.78	3230
853.914	3154
854.048	3093
854.183	3085
854.317	3214
854.451	3325
854.585	3207
854.72	3108
854.854	3249
854.988	3085
855.122	3131
855.256	2979
855.39	3150
855.524	3241
855.658	3169
855.792	3180
855.926	3207
856.06	3241
856.194	3268
856.327	3192
856.461	3116
856.595	3123
856.729	3119
856.862	3222
856.996	3169
857.13	3218
857.263	3245
857.397	3340
857.53	3146
857.664	3203
857.797	3230
857.931	3302
858.064	3161
858.197	3203
858.331	3157
858.464	3127
858.597	3017
858.731	3127
858.864	3123
858.997	3112
859.13	3165
859.263	3199
859.396	3222
859.529	3089
859.662	3123
859.795	3074
859.928	3161
860.061	3306
860.194	3306
860.327	3150
860.46	3146
860.592	3256
860.725	3279
860.858	3291
860.99	3127
861.123	3112
861.256	3081
861.388	3165
861.521	3838
861.653	3028
861.786	3005
861.918	3017
862.05	3047
862.183	3077
862.315	3184
862.447	3256
862.58	3127
862.712	3005
862.844	2876
862.976	3028
863.108	3028
863.24	3321
863.372	2899
863.504	2963
863.636	2982
863.768	3051
863.9	2990
864.032	2922
864.164	2948
864.296	3039
864.428	3089
864.559	3135
864.691	3077
864.823	3028
864.954	3089
865.086	3051
865.217	2998
865.349	2982
865.48	2994
865.612	3051
865.743	3161
865.875	2982
866.006	2971
866.137	2967
866.269	2979
866.4	2960
866.531	2937
866.662	2929
866.793	2910
866.924	2899
867.055	2944
867.186	2929
867.317	2899
867.448	2853
867.579	2845
867.71	2868
867.841	2883
867.972	2925
868.103	2906
868.233	2887
868.364	2861
868.495	2963
868.625	3123
868.756	3199
868.886	2963
869.017	3043
869.147	3192
869.278	3195
869.408	3077
869.539	3058
869.669	3138
869.799	3036
869.929	3116
870.06	3127
870.19	3329
870.32	3302
870.45	3313
870.58	3382
870.71	3473
870.84	3447
870.97	3310
871.1	3275
871.23	3507
871.36	3469
871.489	3363
871.619	3401
871.749	3420
871.879	3439
872.008	3530
872.138	3367
872.267	3260
872.397	3154
872.526	3131
872.656	3013
872.785	3112
872.915	3256
873.044	3329
873.173	3245
873.303	3260
873.432	3268
873.561	3245
873.69	3192
873.819	3161
873.948	3184
874.077	3135
874.206	3085
874.335	3097
874.464	3283
874.593	3355
874.722	3279
874.851	3386
874.979	3351
875.108	3329
875.237	3211
875.365	3161
875.494	3157
875.623	3275
875.751	3123
875.88	3138
876.008	3188
876.136	3249
876.265	3409
876.393	3542
876.521	3409
876.65	3424
876.778	3363
876.906	3272
877.034	3176
877.162	3253
877.29	3226
877.418	3233
877.546	3241
877.674	3260
877.802	3275
877.93	3264
878.058	3195
878.185	3051
878.313	3180
878.441	3207
878.568	3119
878.696	3169
878.824	3310
878.951	3306
879.079	3450
879.206	3625
879.333	3420
879.461	3389
879.588	3378
879.715	3439
879.842	3633
879.97	3386
880.097	3199
880.224	3116
880.351	3211
880.478	3222
880.605	3211
880.732	3199
880.859	3477
880.986	3325
881.112	3317
881.239	3249
881.366	3135
881.493	3028
881.619	3017
881.746	3097
881.872	3093
881.999	3104
882.125	3180
882.252	3291
882.378	3313
882.505	3435
882.631	3275
882.757	3180
882.883	3218
883.01	3226
883.136	3135
883.262	3116
883.388	3127
883.514	3310
883.64	3382
883.766	3325
883.892	3195
884.018	3241
884.143	3420
884.269	3549
884.395	3169
884.52	3157
884.646	3207
884.772	3161
884.897	3104
885.023	3218
885.148	3344
885.274	3389
885.399	3382
885.524	3321
885.65	3256
885.775	3310
885.9	3302
886.025	3431
886.15	3397
886.275	3317
886.4	3268
886.525	3310
886.65	3294
886.775	3268
886.9	3492
887.025	3641
887.149	3443
887.274	3241
887.399	3195
887.523	3199
887.648	3169
887.773	3203
887.897	3370
888.021	3431
888.146	3298
888.27	3454
888.395	3534
888.519	3450
888.643	3435
888.767	3450
888.891	3336
889.015	3222
889.139	3279
889.263	3214
889.387	3401
889.511	3545
889.635	3477
889.759	3313
889.883	3321
890.006	3370
890.13	3466
890.254	3249
890.377	3363
890.501	3222
890.624	3195
890.748	3329
890.871	3180
890.995	3112
891.118	3062
891.241	3195
891.364	3241
891.488	3329
891.611	3176
891.734	3245
891.857	3321
891.98	3268
892.103	3348
892.226	3294
892.349	3214
892.471	3112
892.594	3241
892.717	3279
892.839	3275
892.962	3348
893.085	3374
893.207	3329
893.33	3169
893.452	3233
893.575	3363
893.697	3218
893.819	3477
893.941	3538
894.064	3447
894.186	3310
894.308	3298
894.43	3458
894.552	3542
894.674	3500
894.796	3287
894.918	3291
895.04	3275
895.161	3447
895.283	3378
895.405	3306
895.526	3382
895.648	3447
895.769	3466
895.891	3420
896.012	3458
896.134	3462
896.255	3416
896.376	3382
896.498	3412
896.619	3397
896.74	3329
896.861	3386
896.982	3720
897.103	3850
897.224	3606
897.345	3542
897.466	3450
897.587	3534
897.708	3610
897.828	3553
897.949	3447
898.07	3340
898.19	3428
898.311	3656
898.431	3447
898.552	3496
898.672	3618
898.792	3587
898.913	3572
899.033	3386
899.153	3302
899.273	3180
899.393	3294
899.513	3340
899.633	3321
899.753	3363
899.873	3310
899.993	3351
900.113	3348
900.232	3363
900.352	3344
900.472	3275
900.591	3214
900.711	3313
900.83	3241
900.95	3401
901.069	3507
901.189	3348
901.308	3169
901.427	3165
901.546	3222
901.665	3321
901.784	3344
901.904	3195
902.023	3165
902.141	3062
902.26	3024
902.379	3142
902.498	3089
902.617	3028
902.735	3214
902.854	3230
902.973	3173
903.091	3032
903.21	3074
903.328	3089
903.446	3077
903.565	3112
903.683	3241
903.801	3123
903.919	3230
904.038	3249
904.156	3157
904.274	3287
904.392	3287
904.51	3287
904.627	3294
904.745	3473
904.863	3485
904.981	3253
905.098	3165
905.216	3211
905.334	3298
905.451	3332
905.569	3291
905.686	3447
905.803	3435
905.921	3283
906.038	3420
906.155	3317
906.272	3253
906.389	3302
906.506	3199
906.623	3237
906.74	3298
906.857	3218
906.974	3279
907.091	3424
907.208	3496
907.324	3523
907.441	3382
907.557	3233
907.674	3268
907.79	3192
907.907	3272
908.023	3386
908.139	3359
908.256	3317
908.372	3382
908.488	3393
908.604	3230
908.72	3264
908.836	3272
908.952	3253
909.068	3340
909.184	3496
909.3	3374
909.415	3473
909.531	3477
909.647	3321
909.762	3294
909.878	3245
909.993	3344
910.108	3344
910.224	3359
910.339	3389
910.454	3351
910.57	3272
910.685	3253
910.8	3572
910.915	3519
911.03	3405
911.145	3287
911.259	3325
911.374	3344
911.489	3260
911.604	3233
911.718	3138
911.833	3123
911.947	3058
912.062	2941
912.176	3157
912.291	3176
912.405	3165
912.519	3409
912.633	3469
912.748	3329
912.862	3279
912.976	3173
913.09	3066
913.204	3138
913.318	3218
913.431	3336
913.545	3340
913.659	3431
913.772	3310
913.886	3245
914	3195
914.113	3348
914.226	3424
914.34	3397
914.453	3245
914.566	3416
914.68	3268
914.793	3340
914.906	3116
915.019	3089
915.132	3070
915.245	3157
915.358	3226
915.47	3233
915.583	3256
915.696	3298
915.809	3439
915.921	3409
916.034	3268
916.146	3230
916.259	3207
916.371	3393
916.483	3351
916.595	3245
916.708	3317
916.82	3325
916.932	3355
917.044	3344
917.156	3363
917.268	3256
917.38	3306
917.491	3321
917.603	3374
917.715	3450
917.826	3431
917.938	3382
918.049	3256
918.161	3439
918.272	3564
918.384	3557
918.495	3534
918.606	3336
918.717	3317
918.828	3355
918.939	3378
919.05	3306
919.161	3344
919.272	3161
919.383	3287
919.494	3511
919.604	3679
919.715	3485
919.826	3412
919.936	3435
920.047	3595
920.157	3545
920.267	3793
920.378	3606
920.488	3606
920.598	3755
920.708	3975
920.818	3850
920.928	3819
921.038	4032
921.148	3983
921.258	3686
921.368	3614
921.477	3591
921.587	3545
921.697	3462
921.806	3622
921.916	3568
922.025	3332
922.134	3363
922.244	3294
922.353	3435
922.462	3298
922.571	3253
922.68	3116
922.789	3089
922.898	3142
923.007	3119
923.116	3203
923.224	3146
923.333	3173
923.442	3097
923.55	3093
923.659	3085
923.767	3260
923.876	3127
923.984	3230
924.092	3097
924.201	3207
924.309	3241
924.417	3241
924.525	3195
924.633	3222
924.741	4200
924.849	3047
924.956	3233
925.064	3081
925.172	3055
925.279	3100
925.387	3199
925.494	3192
925.602	3351
925.709	3344
925.816	3195
925.924	3283
926.031	3382
926.138	3310
926.245	3393
926.352	3218
926.459	3412
926.566	3469
926.673	3313
926.779	3203
926.886	3287
926.993	3161
927.099	3138
927.206	3085
927.312	3184
927.419	3233
927.525	3184
927.631	3237
927.737	3165
927.843	3119
927.95	3005
928.056	3161
928.162	3180
928.267	3283
928.373	3759
928.479	3344
928.585	3077
928.69	3199
928.796	3291
928.901	3146
929.007	3062
929.112	3184
929.218	3142
929.323	3142
929.428	3154
929.533	3283
929.638	3119
929.743	3188
929.848	3226
929.953	3203
930.058	3123
930.163	2986
930.267	3047
930.372	3203
930.477	3051
930.581	3332
930.685	3176
930.79	3055
930.894	3097
930.998	3081
931.103	3264
931.207	2971
931.311	2929
931.415	2910
931.519	2762
931.623	2800
