Data from test_V78500241_666.txt Node
Date: Fri Mar 25 16:19:49 CST 2022
User: usil
Spectrometer: V785-0024
Trigger mode: 0
Integration Time (sec): 4.000000E-1
Scans to average: 1
Nonlinearity correction enabled: false
Boxcar width: 0
Storing dark spectrum: false
XAxis mode: Wavelengths
Number of Pixels in Spectrum: 1024
>>>>>Begin Spectral Data<<<<<
801.071	2933
801.214	2982
801.356	2887
801.499	2891
801.641	2880
801.783	2925
801.926	3062
802.068	2967
802.211	2998
802.353	3074
802.496	2986
802.638	3020
802.78	3036
802.923	3089
803.065	2998
803.208	2944
803.35	2918
803.492	2952
803.635	2902
803.777	2792
803.919	2830
804.061	3222
804.204	2933
804.346	2883
804.488	2845
804.63	2986
804.773	2857
804.915	2925
805.057	3047
805.199	2918
805.341	2990
805.483	3074
805.626	3005
805.768	2952
805.91	3085
806.052	3116
806.194	3024
806.336	3237
806.478	3013
806.62	2944
806.762	2948
806.904	3055
807.046	3138
807.188	2982
807.33	2929
807.472	2979
807.614	2883
807.756	3001
807.898	2887
808.04	2895
808.182	2963
808.324	2979
808.465	2861
808.607	2899
808.749	2819
808.891	2853
809.033	3013
809.174	2975
809.316	2887
809.458	2933
809.6	2792
809.741	2792
809.883	2777
810.025	2849
810.166	2826
810.308	2834
810.45	2853
810.591	2800
810.733	2777
810.875	2842
811.016	2792
811.158	2769
811.299	2773
811.441	2941
811.582	2922
811.724	2811
811.865	2830
812.007	2914
812.148	2876
812.29	2838
812.431	2883
812.573	2941
812.714	2967
812.855	3013
812.997	3032
813.138	3127
813.279	3017
813.421	2975
813.562	2990
813.703	2864
813.845	2880
813.986	2769
814.127	2731
814.268	2815
814.41	2819
814.551	2792
814.692	2868
814.833	2807
814.974	2902
815.115	2914
815.256	2838
815.397	2781
815.539	2823
815.68	2796
815.821	2754
815.962	2933
816.103	2941
816.244	2891
816.385	2864
816.526	2944
816.666	2914
816.807	2754
816.948	2876
817.089	2906
817.23	2834
817.371	2804
817.512	2769
817.653	2830
817.793	2823
817.934	2895
818.075	2967
818.216	2963
818.356	3009
818.497	2876
818.638	2796
818.778	2815
818.919	2788
819.06	2746
819.2	2861
819.341	2811
819.481	2819
819.622	2880
819.762	3097
819.903	3074
820.043	2922
820.184	2883
820.324	2910
820.465	3013
820.605	3001
820.746	3036
820.886	2933
821.026	3051
821.167	3161
821.307	3260
821.447	3298
821.588	3222
821.728	3245
821.868	3222
822.008	3097
822.149	3230
822.289	3260
822.429	3123
822.569	3085
822.709	3169
822.849	3043
822.99	3131
823.13	3195
823.27	3245
823.41	3142
823.55	3184
823.69	3169
823.83	3230
823.97	3150
824.11	3017
824.25	3013
824.389	3093
824.529	3138
824.669	3108
824.809	3207
824.949	3237
825.089	3283
825.228	3214
825.368	3036
825.508	2960
825.648	3024
825.787	3028
825.927	3047
826.067	3017
826.206	3013
826.346	3100
826.485	3104
826.625	3150
826.765	3306
826.904	3253
827.044	3043
827.183	2990
827.323	2906
827.462	3024
827.601	2929
827.741	2975
827.88	2990
828.02	2891
828.159	3062
828.298	3093
828.437	3127
828.577	3097
828.716	3275
828.855	3097
828.994	2979
829.134	2952
829.273	2956
829.412	2891
829.551	2895
829.69	2960
829.829	3024
829.968	3176
830.107	3036
830.246	3039
830.385	2956
830.524	2891
830.663	2864
830.802	2746
830.941	2689
831.08	2682
831.219	2792
831.357	2785
831.496	2982
831.635	2781
831.774	2708
831.913	2724
832.051	2575
832.19	2621
832.329	2693
832.467	2583
832.606	2503
832.744	2621
832.883	2621
833.022	2621
833.16	2670
833.299	2712
833.437	2724
833.576	2746
833.714	2739
833.852	2743
833.991	2811
834.129	2899
834.267	2861
834.406	2845
834.544	2906
834.682	2941
834.821	2941
834.959	3112
835.097	2941
835.235	3089
835.373	3047
835.511	3039
835.65	3009
835.788	2979
835.926	2883
836.064	2895
836.202	2823
836.34	3112
836.478	3169
836.615	3043
836.753	3184
836.891	3214
837.029	3226
837.167	3127
837.305	3112
837.443	3089
837.58	2998
837.718	3173
837.856	3123
837.993	3081
838.131	3150
838.269	3169
838.406	3142
838.544	3108
838.681	2975
838.819	2948
838.956	2857
839.094	2845
839.231	2948
839.369	3058
839.506	3382
839.643	3245
839.781	3066
839.918	2998
840.055	3104
840.193	3123
840.33	3089
840.467	3123
840.604	3169
840.742	3443
840.879	3039
841.016	3074
841.153	3119
841.29	3359
841.427	3336
841.564	3272
841.701	3344
841.838	3279
841.975	3192
842.112	3268
842.249	3131
842.385	3058
842.522	3287
842.659	3146
842.796	3055
842.933	3100
843.069	3116
843.206	3085
843.343	3214
843.479	3150
843.616	3184
843.752	2914
843.889	2914
844.025	3138
844.162	2929
844.298	3085
844.435	2956
844.571	2982
844.708	3104
844.844	3192
844.98	3272
845.117	3203
845.253	3070
845.389	3020
845.525	3142
845.661	3112
845.798	3028
845.934	3146
846.07	3055
846.206	3245
846.342	3340
846.478	3241
846.614	3142
846.75	3081
846.886	3051
847.022	3279
847.158	3150
847.294	3226
847.429	3264
847.565	3241
847.701	3549
847.837	3062
847.972	3009
848.108	3192
848.244	3173
848.379	2998
848.515	2998
848.65	2971
848.786	2963
848.921	3047
849.057	3161
849.192	3135
849.328	3089
849.463	3119
849.598	3081
849.734	3058
849.869	3028
850.004	2929
850.14	2979
850.275	2925
850.41	2880
850.545	2914
850.68	2933
850.815	2994
850.95	2998
851.085	3264
851.22	3131
851.355	3039
851.49	3039
851.625	3047
851.76	3024
851.895	2902
852.03	2914
852.165	3036
852.299	3127
852.434	3180
852.569	3173
852.703	3245
852.838	3291
852.973	3359
853.107	3389
853.242	3165
853.376	3112
853.511	2979
853.645	3066
853.78	3260
853.914	3150
854.048	3142
854.183	3093
854.317	3135
854.451	3287
854.585	3199
854.72	3085
854.854	3211
854.988	3081
855.122	3142
855.256	3020
855.39	3142
855.524	3230
855.658	3211
855.792	3207
855.926	3203
856.06	3275
856.194	3302
856.327	3218
856.461	3074
856.595	3127
856.729	3119
856.862	3226
856.996	3226
857.13	3211
857.263	3279
857.397	3268
857.53	3142
857.664	3199
857.797	3241
857.931	3230
858.064	3157
858.197	3260
858.331	3161
858.464	3138
858.597	3013
858.731	3165
858.864	3138
858.997	3142
859.13	3184
859.263	3218
859.396	3211
859.529	3119
859.662	3127
859.795	3058
859.928	3222
860.061	3287
860.194	3279
860.327	3154
860.46	3112
860.592	3260
860.725	3268
860.858	3233
860.99	3112
861.123	3070
861.256	3104
861.388	3135
861.521	3865
861.653	3066
861.786	3020
861.918	3013
862.05	3112
862.183	3108
862.315	3184
862.447	3253
862.58	3077
862.712	2960
862.844	2910
862.976	3017
863.108	3009
863.24	3458
863.372	2895
863.504	2944
863.636	2994
863.768	3043
863.9	3001
864.032	2933
864.164	2941
864.296	3066
864.428	3127
864.559	3112
864.691	3047
864.823	3066
864.954	3051
865.086	3062
865.217	2994
865.349	2998
865.48	3009
865.612	3032
865.743	3169
865.875	3005
866.006	2971
866.137	2986
866.269	2963
866.4	2975
866.531	2899
866.662	2899
866.793	2941
866.924	2960
867.055	3009
867.186	2956
867.317	2902
867.448	2864
867.579	2853
867.71	2918
867.841	2857
867.972	2929
868.103	2906
868.233	2910
868.364	2895
868.495	2944
868.625	3093
868.756	3154
868.886	2986
869.017	2998
869.147	3188
869.278	3169
869.408	3032
869.539	3043
869.669	3119
869.799	3070
869.929	3165
870.06	3154
870.19	3329
870.32	3313
870.45	3298
870.58	3409
870.71	3504
870.84	3412
870.97	3332
871.1	3249
871.23	3454
871.36	3511
871.489	3370
871.619	3420
871.749	3409
871.879	3492
872.008	3526
872.138	3355
872.267	3241
872.397	3165
872.526	3116
872.656	3043
872.785	3093
872.915	3260
873.044	3340
873.173	3237
873.303	3245
873.432	3233
873.561	3230
873.69	3157
873.819	3131
873.948	3195
874.077	3157
874.206	3058
874.335	3097
874.464	3207
874.593	3386
874.722	3245
874.851	3405
874.979	3351
875.108	3325
875.237	3188
875.365	3142
875.494	3192
875.623	3283
875.751	3074
875.88	3169
876.008	3184
876.136	3241
876.265	3412
876.393	3538
876.521	3466
876.65	3416
876.778	3378
876.906	3233
877.034	3241
877.162	3214
877.29	3226
877.418	3253
877.546	3230
877.674	3260
877.802	3233
877.93	3249
878.058	3165
878.185	3104
878.313	3241
878.441	3203
878.568	3089
878.696	3138
878.824	3253
878.951	3344
879.079	3439
879.206	3603
879.333	3462
879.461	3363
879.588	3367
879.715	3515
879.842	3591
879.97	3382
880.097	3165
880.224	3146
880.351	3211
880.478	3211
880.605	3226
880.732	3184
880.859	3477
880.986	3298
881.112	3329
881.239	3214
881.366	3116
881.493	3047
881.619	3058
881.746	3070
881.872	3127
881.999	3112
882.125	3173
882.252	3249
882.378	3306
882.505	3443
882.631	3279
882.757	3173
882.883	3214
883.01	3237
883.136	3214
883.262	3100
883.388	3127
883.514	3344
883.64	3370
883.766	3310
883.892	3203
884.018	3268
884.143	3409
884.269	3538
884.395	3180
884.52	3150
884.646	3169
884.772	3108
884.897	3119
885.023	3230
885.148	3332
885.274	3435
885.399	3416
885.524	3287
885.65	3302
885.775	3332
885.9	3294
886.025	3439
886.15	3393
886.275	3279
886.4	3294
886.525	3294
886.65	3272
886.775	3279
886.9	3485
887.025	3625
887.149	3420
887.274	3256
887.399	3192
887.523	3195
887.648	3169
887.773	3176
887.897	3393
888.021	3447
888.146	3310
888.27	3447
888.395	3587
888.519	3435
888.643	3462
888.767	3443
888.891	3298
889.015	3241
889.139	3279
889.263	3233
889.387	3389
889.511	3511
889.635	3428
889.759	3317
889.883	3287
890.006	3370
890.13	3519
890.254	3313
890.377	3340
890.501	3203
890.624	3161
890.748	3348
890.871	3184
890.995	3131
891.118	3089
891.241	3199
891.364	3253
891.488	3325
891.611	3176
891.734	3237
891.857	3310
891.98	3245
892.103	3374
892.226	3256
892.349	3203
892.471	3135
892.594	3214
892.717	3291
892.839	3291
892.962	3329
893.085	3374
893.207	3302
893.33	3188
893.452	3218
893.575	3344
893.697	3253
893.819	3450
893.941	3450
894.064	3458
894.186	3256
894.308	3283
894.43	3409
894.552	3553
894.674	3507
894.796	3275
894.918	3310
895.04	3336
895.161	3443
895.283	3359
895.405	3325
895.526	3409
895.648	3435
895.769	3435
895.891	3458
896.012	3477
896.134	3466
896.255	3412
896.376	3409
896.498	3401
896.619	3428
896.74	3374
896.861	3409
896.982	3690
897.103	3838
897.224	3606
897.345	3496
897.466	3401
897.587	3511
897.708	3618
897.828	3549
897.949	3469
898.07	3348
898.19	3416
898.311	3618
898.431	3466
898.552	3561
898.672	3595
898.792	3587
898.913	3591
899.033	3435
899.153	3291
899.273	3222
899.393	3275
899.513	3313
899.633	3306
899.753	3378
899.873	3348
899.993	3382
900.113	3340
900.232	3393
900.352	3351
900.472	3291
900.591	3199
900.711	3294
900.83	3279
900.95	3401
901.069	3507
901.189	3344
901.308	3180
901.427	3161
901.546	3222
901.665	3294
901.784	3329
901.904	3199
902.023	3180
902.141	2998
902.26	3005
902.379	3138
902.498	3077
902.617	3047
902.735	3203
902.854	3230
902.973	3207
903.091	3039
903.21	3089
903.328	3142
903.446	3138
903.565	3066
903.683	3214
903.801	3116
903.919	3260
904.038	3256
904.156	3233
904.274	3260
904.392	3283
904.51	3275
904.627	3355
904.745	3435
904.863	3507
904.981	3222
905.098	3146
905.216	3233
905.334	3310
905.451	3317
905.569	3302
905.686	3469
905.803	3458
905.921	3306
906.038	3458
906.155	3359
906.272	3279
906.389	3321
906.506	3237
906.623	3241
906.74	3272
906.857	3203
906.974	3275
907.091	3458
907.208	3561
907.324	3454
907.441	3424
907.557	3245
907.674	3237
907.79	3207
907.907	3283
908.023	3409
908.139	3370
908.256	3310
908.372	3348
908.488	3367
908.604	3298
908.72	3241
908.836	3279
908.952	3306
909.068	3348
909.184	3504
909.3	3374
909.415	3515
909.531	3469
909.647	3245
909.762	3298
909.878	3260
909.993	3359
910.108	3332
910.224	3351
910.339	3370
910.454	3294
910.57	3287
910.685	3249
910.8	3587
910.915	3542
911.03	3420
911.145	3275
911.259	3287
911.374	3355
911.489	3207
911.604	3268
911.718	3127
911.833	3123
911.947	3028
912.062	3005
912.176	3157
912.291	3207
912.405	3222
912.519	3405
912.633	3443
912.748	3370
912.862	3275
912.976	3154
913.09	3077
913.204	3161
913.318	3222
913.431	3348
913.545	3340
913.659	3420
913.772	3332
913.886	3211
914	3226
914.113	3348
914.226	3428
914.34	3382
914.453	3249
914.566	3405
914.68	3279
914.793	3306
914.906	3165
915.019	3097
915.132	3070
915.245	3165
915.358	3188
915.47	3192
915.583	3256
915.696	3306
915.809	3412
915.921	3424
916.034	3264
916.146	3310
916.259	3226
916.371	3374
916.483	3378
916.595	3287
916.708	3332
916.82	3325
916.932	3351
917.044	3344
917.156	3389
917.268	3260
917.38	3321
917.491	3264
917.603	3374
917.715	3481
917.826	3473
917.938	3405
918.049	3275
918.161	3424
918.272	3515
918.384	3576
918.495	3473
918.606	3359
918.717	3283
918.828	3370
918.939	3428
919.05	3272
919.161	3389
919.272	3161
919.383	3283
919.494	3462
919.604	3682
919.715	3469
919.826	3424
919.936	3466
920.047	3595
920.157	3545
920.267	3770
920.378	3591
920.488	3572
920.598	3816
920.708	3922
920.818	3804
920.928	3838
921.038	3987
921.148	4013
921.258	3713
921.368	3637
921.477	3595
921.587	3545
921.697	3466
921.806	3648
921.916	3477
922.025	3355
922.134	3340
922.244	3332
922.353	3409
922.462	3283
922.571	3203
922.68	3123
922.789	3108
922.898	3150
923.007	3108
923.116	3195
923.224	3188
923.333	3154
923.442	3081
923.55	3100
923.659	3127
923.767	3211
923.876	3108
923.984	3237
924.092	3142
924.201	3218
924.309	3188
924.417	3245
924.525	3142
924.633	3264
924.741	3994
924.849	3051
924.956	3298
925.064	3081
925.172	3047
925.279	3077
925.387	3241
925.494	3192
925.602	3359
925.709	3321
925.816	3207
925.924	3302
926.031	3344
926.138	3294
926.245	3382
926.352	3253
926.459	3382
926.566	3447
926.673	3321
926.779	3275
926.886	3256
926.993	3154
927.099	3142
927.206	3135
927.312	3112
927.419	3275
927.525	3207
927.631	3275
927.737	3150
927.843	3085
927.95	3043
928.056	3154
928.162	3150
928.267	3230
928.373	3762
928.479	3306
928.585	3089
928.69	3211
928.796	3268
928.901	3165
929.007	3039
929.112	3199
929.218	3211
929.323	3161
929.428	3157
929.533	3302
929.638	3135
929.743	3157
929.848	3237
929.953	3211
930.058	3146
930.163	3017
930.267	3047
930.372	3199
930.477	3043
930.581	3332
930.685	3180
930.79	3032
930.894	3100
930.998	3093
931.103	3268
931.207	2971
931.311	2937
931.415	2891
931.519	2758
931.623	2788
