Data from test_V78500241_342.txt Node
Date: Fri Mar 25 16:17:34 CST 2022
User: usil
Spectrometer: V785-0024
Trigger mode: 0
Integration Time (sec): 4.000000E-1
Scans to average: 1
Nonlinearity correction enabled: false
Boxcar width: 0
Storing dark spectrum: false
XAxis mode: Wavelengths
Number of Pixels in Spectrum: 1024
>>>>>Begin Spectral Data<<<<<
801.071	2941
801.214	2956
801.356	2887
801.499	2918
801.641	2876
801.783	2895
801.926	3043
802.068	2975
802.211	2967
802.353	3020
802.496	2944
802.638	3055
802.78	3066
802.923	3100
803.065	3005
803.208	2861
803.35	2925
803.492	2963
803.635	2906
803.777	2762
803.919	2872
804.061	3173
804.204	2933
804.346	2891
804.488	2811
804.63	2994
804.773	2838
804.915	2918
805.057	3077
805.199	2914
805.341	2971
805.483	3051
805.626	3009
805.768	2922
805.91	3043
806.052	3097
806.194	3051
806.336	3237
806.478	3020
806.62	2944
806.762	2963
806.904	3081
807.046	3146
807.188	2956
807.33	2880
807.472	2963
807.614	2880
807.756	2967
807.898	2941
808.04	2887
808.182	2967
808.324	2948
808.465	2902
808.607	2868
808.749	2766
808.891	2823
809.033	2948
809.174	2990
809.316	2887
809.458	2906
809.6	2792
809.741	2781
809.883	2777
810.025	2849
810.166	2842
810.308	2853
810.45	2849
810.591	2758
810.733	2754
810.875	2781
811.016	2788
811.158	2762
811.299	2804
811.441	2899
811.582	2906
811.724	2838
811.865	2838
812.007	2952
812.148	2883
812.29	2830
812.431	2902
812.573	2925
812.714	2933
812.855	3051
812.997	3020
813.138	3116
813.279	3051
813.421	2986
813.562	2975
813.703	2902
813.845	2880
813.986	2773
814.127	2754
814.268	2792
814.41	2849
814.551	2838
814.692	2899
814.833	2800
814.974	2880
815.115	2937
815.256	2826
815.397	2804
815.539	2857
815.68	2769
815.821	2807
815.962	2952
816.103	2933
816.244	2914
816.385	2872
816.526	2952
816.666	2887
816.807	2743
816.948	2883
817.089	2906
817.23	2834
817.371	2762
817.512	2807
817.653	2849
817.793	2796
817.934	2910
818.075	2960
818.216	2967
818.356	3005
818.497	2895
818.638	2815
818.778	2800
818.919	2807
819.06	2743
819.2	2895
819.341	2792
819.481	2819
819.622	2910
819.762	3093
819.903	3024
820.043	2948
820.184	2902
820.324	2887
820.465	3043
820.605	3009
820.746	3028
820.886	2944
821.026	3112
821.167	3157
821.307	3268
821.447	3268
821.588	3207
821.728	3195
821.868	3180
822.008	3081
822.149	3180
822.289	3207
822.429	3093
822.569	3100
822.709	3199
822.849	3017
822.99	3036
823.13	3116
823.27	3245
823.41	3085
823.55	3222
823.69	3138
823.83	3184
823.97	3104
824.11	2982
824.25	3001
824.389	3070
824.529	3104
824.669	3089
824.809	3188
824.949	3253
825.089	3233
825.228	3157
825.368	3043
825.508	2952
825.648	2948
825.787	3020
825.927	3009
826.067	2990
826.206	2944
826.346	3028
826.485	3055
826.625	3131
826.765	3218
826.904	3222
827.044	2986
827.183	2925
827.323	2883
827.462	3005
827.601	2902
827.741	2876
827.88	2944
828.02	2849
828.159	2956
828.298	3005
828.437	3104
828.577	3024
828.716	3233
828.855	3097
828.994	2925
829.134	2872
829.273	2895
829.412	2872
829.551	2895
829.69	2891
829.829	2929
829.968	3104
830.107	2971
830.246	3013
830.385	2918
830.524	2853
830.663	2842
830.802	2727
830.941	2648
831.08	2651
831.219	2800
831.357	2746
831.496	2960
831.635	2731
831.774	2602
831.913	2625
832.051	2526
832.19	2552
832.329	2674
832.467	2564
832.606	2469
832.744	2560
832.883	2556
833.022	2598
833.16	2674
833.299	2659
833.437	2659
833.576	2731
833.714	2682
833.852	2701
833.991	2739
834.129	2842
834.267	2849
834.406	2773
834.544	2838
834.682	2849
834.821	2891
834.959	3066
835.097	2872
835.235	3039
835.373	2990
835.511	3017
835.65	2979
835.788	2933
835.926	2815
836.064	2823
836.202	2823
836.34	3127
836.478	3112
836.615	3047
836.753	3131
836.891	3165
837.029	3195
837.167	3116
837.305	3058
837.443	3043
837.58	2971
837.718	3150
837.856	3089
837.993	3036
838.131	3150
838.269	3116
838.406	3093
838.544	3077
838.681	2925
838.819	2891
838.956	2807
839.094	2849
839.231	2933
839.369	3005
839.506	3416
839.643	3188
839.781	3032
839.918	2937
840.055	3001
840.193	3047
840.33	3062
840.467	3081
840.604	3127
840.742	3397
840.879	3043
841.016	3077
841.153	3112
841.29	3355
841.427	3298
841.564	3253
841.701	3298
841.838	3272
841.975	3188
842.112	3184
842.249	3074
842.385	3036
842.522	3275
842.659	3077
842.796	3047
842.933	3074
843.069	3058
843.206	3005
843.343	3188
843.479	3089
843.616	3138
843.752	2906
843.889	2845
844.025	3112
844.162	2891
844.298	3051
844.435	2933
844.571	2914
844.708	3062
844.844	3226
844.98	3230
845.117	3180
845.253	3077
845.389	3009
845.525	3093
845.661	3081
845.798	2994
845.934	3112
846.07	3013
846.206	3203
846.342	3302
846.478	3230
846.614	3077
846.75	3051
846.886	3013
847.022	3249
847.158	3135
847.294	3173
847.429	3207
847.565	3184
847.701	3462
847.837	3032
847.972	2994
848.108	3169
848.244	3135
848.379	2956
848.515	2910
848.65	2883
848.786	2971
848.921	3013
849.057	3097
849.192	3131
849.328	3077
849.463	3097
849.598	3081
849.734	3062
849.869	2986
850.004	2944
850.14	2956
850.275	2902
850.41	2845
850.545	2887
850.68	2956
850.815	2914
850.95	2952
851.085	3176
851.22	3104
851.355	3020
851.49	2941
851.625	2986
851.76	3032
851.895	2918
852.03	2937
852.165	3051
852.299	3131
852.434	3154
852.569	3093
852.703	3199
852.838	3226
852.973	3340
853.107	3310
853.242	3180
853.376	3108
853.511	2982
853.645	3028
853.78	3233
853.914	3112
854.048	3093
854.183	3074
854.317	3142
854.451	3256
854.585	3112
854.72	3119
854.854	3211
854.988	3039
855.122	3085
855.256	2967
855.39	3142
855.524	3203
855.658	3161
855.792	3184
855.926	3176
856.06	3226
856.194	3226
856.327	3146
856.461	3074
856.595	3066
856.729	3100
856.862	3195
856.996	3195
857.13	3207
857.263	3192
857.397	3272
857.53	3119
857.664	3192
857.797	3230
857.931	3230
858.064	3154
858.197	3188
858.331	3150
858.464	3085
858.597	3036
858.731	3116
858.864	3116
858.997	3074
859.13	3161
859.263	3131
859.396	3195
859.529	3077
859.662	3047
859.795	3058
859.928	3135
860.061	3310
860.194	3279
860.327	3150
860.46	3081
860.592	3264
860.725	3237
860.858	3226
860.99	3066
861.123	3028
861.256	3081
861.388	3127
861.521	3751
861.653	2994
861.786	2979
861.918	2933
862.05	3058
862.183	3074
862.315	3150
862.447	3192
862.58	3108
862.712	2952
862.844	2876
862.976	3024
863.108	3020
863.24	3313
863.372	2891
863.504	2982
863.636	2963
863.768	2998
863.9	2971
864.032	2952
864.164	2948
864.296	3005
864.428	3123
864.559	3112
864.691	3062
864.823	3062
864.954	3047
865.086	3047
865.217	3028
865.349	2967
865.48	2967
865.612	3020
865.743	3135
865.875	2971
866.006	2922
866.137	2971
866.269	2929
866.4	2910
866.531	2914
866.662	2872
866.793	2914
866.924	2895
867.055	2960
867.186	2933
867.317	2872
867.448	2796
867.579	2857
867.71	2842
867.841	2815
867.972	2933
868.103	2887
868.233	2887
868.364	2864
868.495	2899
868.625	3047
868.756	3173
868.886	2941
869.017	3013
869.147	3154
869.278	3154
869.408	3009
869.539	3020
869.669	3055
869.799	3039
869.929	3146
870.06	3074
870.19	3275
870.32	3302
870.45	3275
870.58	3351
870.71	3431
870.84	3481
870.97	3321
871.1	3249
871.23	3504
871.36	3431
871.489	3332
871.619	3382
871.749	3450
871.879	3378
872.008	3492
872.138	3386
872.267	3260
872.397	3131
872.526	3077
872.656	3024
872.785	3081
872.915	3237
873.044	3291
873.173	3222
873.303	3241
873.432	3253
873.561	3241
873.69	3176
873.819	3146
873.948	3165
874.077	3100
874.206	3077
874.335	3039
874.464	3218
874.593	3313
874.722	3253
874.851	3370
874.979	3397
875.108	3336
875.237	3203
875.365	3146
875.494	3176
875.623	3230
875.751	3077
875.88	3112
876.008	3199
876.136	3218
876.265	3370
876.393	3485
876.521	3355
876.65	3386
876.778	3340
876.906	3207
877.034	3180
877.162	3207
877.29	3195
877.418	3230
877.546	3237
877.674	3275
877.802	3249
877.93	3241
878.058	3157
878.185	3093
878.313	3188
878.441	3207
878.568	3100
878.696	3150
878.824	3272
878.951	3313
879.079	3466
879.206	3629
879.333	3424
879.461	3363
879.588	3386
879.715	3469
879.842	3595
879.97	3367
880.097	3157
880.224	3131
880.351	3192
880.478	3192
880.605	3222
880.732	3150
880.859	3454
880.986	3313
881.112	3306
881.239	3211
881.366	3123
881.493	3039
881.619	2975
881.746	3051
881.872	3077
881.999	3100
882.125	3119
882.252	3237
882.378	3302
882.505	3405
882.631	3272
882.757	3150
882.883	3199
883.01	3264
883.136	3131
883.262	3081
883.388	3119
883.514	3294
883.64	3382
883.766	3287
883.892	3195
884.018	3230
884.143	3450
884.269	3526
884.395	3207
884.52	3142
884.646	3161
884.772	3116
884.897	3081
885.023	3203
885.148	3336
885.274	3409
885.399	3367
885.524	3317
885.65	3268
885.775	3313
885.9	3279
886.025	3458
886.15	3370
886.275	3294
886.4	3260
886.525	3279
886.65	3256
886.775	3241
886.9	3492
887.025	3633
887.149	3386
887.274	3214
887.399	3188
887.523	3161
887.648	3180
887.773	3230
887.897	3370
888.021	3397
888.146	3310
888.27	3355
888.395	3515
888.519	3469
888.643	3462
888.767	3458
888.891	3291
889.015	3249
889.139	3298
889.263	3230
889.387	3405
889.511	3519
889.635	3431
889.759	3310
889.883	3283
890.006	3397
890.13	3466
890.254	3249
890.377	3298
890.501	3184
890.624	3161
890.748	3275
890.871	3192
890.995	3119
891.118	3074
891.241	3199
891.364	3233
891.488	3291
891.611	3169
891.734	3237
891.857	3268
891.98	3253
892.103	3355
892.226	3283
892.349	3173
892.471	3119
892.594	3279
892.717	3302
892.839	3256
892.962	3306
893.085	3329
893.207	3298
893.33	3150
893.452	3241
893.575	3329
893.697	3268
893.819	3439
893.941	3466
894.064	3462
894.186	3256
894.308	3260
894.43	3416
894.552	3515
894.674	3485
894.796	3253
894.918	3302
895.04	3294
895.161	3439
895.283	3378
895.405	3310
895.526	3348
895.648	3431
895.769	3428
895.891	3405
896.012	3439
896.134	3393
896.255	3367
896.376	3348
896.498	3313
896.619	3409
896.74	3370
896.861	3397
896.982	3663
897.103	3793
897.224	3557
897.345	3504
897.466	3428
897.587	3481
897.708	3656
897.828	3542
897.949	3439
898.07	3321
898.19	3397
898.311	3614
898.431	3454
898.552	3500
898.672	3625
898.792	3580
898.913	3515
899.033	3431
899.153	3306
899.273	3173
899.393	3287
899.513	3355
899.633	3348
899.753	3287
899.873	3344
899.993	3389
900.113	3348
900.232	3416
900.352	3336
900.472	3294
900.591	3222
900.711	3310
900.83	3291
900.95	3405
901.069	3549
901.189	3386
901.308	3233
901.427	3142
901.546	3237
901.665	3302
901.784	3363
901.904	3203
902.023	3226
902.141	3043
902.26	3051
902.379	3207
902.498	3127
902.617	3116
902.735	3226
902.854	3275
902.973	3218
903.091	3081
903.21	3119
903.328	3173
903.446	3150
903.565	3142
903.683	3264
903.801	3195
903.919	3287
904.038	3340
904.156	3199
904.274	3329
904.392	3283
904.51	3363
904.627	3397
904.745	3443
904.863	3564
904.981	3279
905.098	3222
905.216	3291
905.334	3291
905.451	3363
905.569	3374
905.686	3462
905.803	3504
905.921	3329
906.038	3466
906.155	3389
906.272	3355
906.389	3401
906.506	3249
906.623	3260
906.74	3302
906.857	3256
906.974	3325
907.091	3534
907.208	3564
907.324	3519
907.441	3435
907.557	3272
907.674	3222
907.79	3226
907.907	3329
908.023	3401
908.139	3420
908.256	3351
908.372	3416
908.488	3409
908.604	3302
908.72	3272
908.836	3321
908.952	3351
909.068	3382
909.184	3519
909.3	3435
909.415	3557
909.531	3538
909.647	3325
909.762	3348
909.878	3325
909.993	3420
910.108	3374
910.224	3355
910.339	3450
910.454	3386
910.57	3321
910.685	3306
910.8	3637
910.915	3564
911.03	3431
911.145	3279
911.259	3321
911.374	3378
911.489	3294
911.604	3237
911.718	3176
911.833	3165
911.947	3051
912.062	3005
912.176	3176
912.291	3199
912.405	3283
912.519	3469
912.633	3496
912.748	3389
912.862	3332
912.976	3218
913.09	3093
913.204	3161
913.318	3253
913.431	3367
913.545	3336
913.659	3462
913.772	3348
913.886	3302
914	3256
914.113	3389
914.226	3435
914.34	3412
914.453	3253
914.566	3523
914.68	3359
914.793	3332
914.906	3184
915.019	3150
915.132	3093
915.245	3192
915.358	3203
915.47	3256
915.583	3287
915.696	3332
915.809	3443
915.921	3412
916.034	3275
916.146	3321
916.259	3272
916.371	3416
916.483	3370
916.595	3332
916.708	3370
916.82	3378
916.932	3344
917.044	3382
917.156	3409
917.268	3253
917.38	3370
917.491	3332
917.603	3378
917.715	3485
917.826	3504
917.938	3431
918.049	3313
918.161	3477
918.272	3618
918.384	3606
918.495	3526
918.606	3370
918.717	3340
918.828	3367
918.939	3485
919.05	3317
919.161	3397
919.272	3226
919.383	3317
919.494	3504
919.604	3747
919.715	3545
919.826	3416
919.936	3507
920.047	3614
920.157	3656
920.267	3781
920.378	3606
920.488	3603
920.598	3823
920.708	4036
920.818	3854
920.928	3873
921.038	4074
921.148	4036
921.258	3785
921.368	3663
921.477	3622
921.587	3606
921.697	3492
921.806	3675
921.916	3511
922.025	3359
922.134	3401
922.244	3348
922.353	3450
922.462	3256
922.571	3256
922.68	3119
922.789	3077
922.898	3146
923.007	3119
923.116	3230
923.224	3211
923.333	3256
923.442	3135
923.55	3131
923.659	3195
923.767	3256
923.876	3119
923.984	3283
924.092	3131
924.201	3214
924.309	3211
924.417	3241
924.525	3222
924.633	3256
924.741	4196
924.849	3070
924.956	3279
925.064	3112
925.172	3077
925.279	3169
925.387	3237
925.494	3241
925.602	3336
925.709	3336
925.816	3214
925.924	3298
926.031	3450
926.138	3359
926.245	3389
926.352	3279
926.459	3428
926.566	3515
926.673	3393
926.779	3298
926.886	3279
926.993	3203
927.099	3165
927.206	3161
927.312	3142
927.419	3260
927.525	3253
927.631	3294
927.737	3154
927.843	3142
927.95	3043
928.056	3188
928.162	3222
928.267	3272
928.373	3953
928.479	3363
928.585	3135
928.69	3249
928.796	3260
928.901	3211
929.007	3085
929.112	3241
929.218	3214
929.323	3180
929.428	3192
929.533	3355
929.638	3119
929.743	3199
929.848	3287
929.953	3272
930.058	3199
930.163	3039
930.267	3062
930.372	3226
930.477	3070
930.581	3374
930.685	3211
930.79	3055
930.894	3157
930.998	3112
931.103	3283
931.207	2982
931.311	2967
931.415	2982
931.519	2796
931.623	2807
