Data from test_V78500241_1574.txt Node
Date: Fri Mar 25 16:26:06 CST 2022
User: usil
Spectrometer: V785-0024
Trigger mode: 0
Integration Time (sec): 4.000000E-1
Scans to average: 1
Nonlinearity correction enabled: false
Boxcar width: 0
Storing dark spectrum: false
XAxis mode: Wavelengths
Number of Pixels in Spectrum: 1024
>>>>>Begin Spectral Data<<<<<
801.071	2918
801.214	2960
801.356	2872
801.499	2887
801.641	2849
801.783	2941
801.926	3074
802.068	2914
802.211	3001
802.353	3032
802.496	2952
802.638	3005
802.78	3062
802.923	3081
803.065	2986
803.208	2914
803.35	2914
803.492	2899
803.635	2922
803.777	2750
803.919	2861
804.061	3195
804.204	2925
804.346	2910
804.488	2876
804.63	2998
804.773	2876
804.915	2910
805.057	3043
805.199	2914
805.341	2986
805.483	3036
805.626	3020
805.768	2948
805.91	3081
806.052	3108
806.194	3020
806.336	3226
806.478	3043
806.62	2971
806.762	2944
806.904	3074
807.046	3180
807.188	3013
807.33	2941
807.472	3032
807.614	2910
807.756	2979
807.898	2986
808.04	2895
808.182	2994
808.324	3017
808.465	2902
808.607	2922
808.749	2815
808.891	2914
809.033	3009
809.174	3043
809.316	2918
809.458	2914
809.6	2811
809.741	2807
809.883	2785
810.025	2883
810.166	2880
810.308	2872
810.45	2922
810.591	2804
810.733	2804
810.875	2895
811.016	2842
811.158	2754
811.299	2845
811.441	2971
811.582	2960
811.724	2849
811.865	2864
812.007	2963
812.148	2918
812.29	2906
812.431	2914
812.573	2971
812.714	3017
812.855	3062
812.997	3093
813.138	3157
813.279	3062
813.421	3028
813.562	2948
813.703	2910
813.845	2918
813.986	2800
814.127	2750
814.268	2845
814.41	2845
814.551	2861
814.692	2914
814.833	2864
814.974	2933
815.115	2986
815.256	2872
815.397	2853
815.539	2914
815.68	2823
815.821	2830
815.962	2986
816.103	2944
816.244	2918
816.385	2933
816.526	2963
816.666	2967
816.807	2807
816.948	2963
817.089	2933
817.23	2853
817.371	2815
817.512	2838
817.653	2868
817.793	2819
817.934	2891
818.075	2994
818.216	3043
818.356	3055
818.497	2933
818.638	2830
818.778	2830
818.919	2823
819.06	2781
819.2	2937
819.341	2857
819.481	2853
819.622	2956
819.762	3127
819.903	3066
820.043	2960
820.184	2956
820.324	2918
820.465	3043
820.605	3039
820.746	3051
820.886	2971
821.026	3135
821.167	3195
821.307	3294
821.447	3291
821.588	3268
821.728	3214
821.868	3207
822.008	3119
822.149	3214
822.289	3245
822.429	3085
822.569	3116
822.709	3203
822.849	3058
822.99	3131
823.13	3188
823.27	3256
823.41	3108
823.55	3180
823.69	3199
823.83	3226
823.97	3089
824.11	3013
824.25	3058
824.389	3066
824.529	3135
824.669	3135
824.809	3226
824.949	3291
825.089	3249
825.228	3146
825.368	3001
825.508	2975
825.648	2982
825.787	3009
825.927	3028
826.067	3013
826.206	2994
826.346	3085
826.485	3123
826.625	3146
826.765	3283
826.904	3192
827.044	2998
827.183	2941
827.323	2872
827.462	2990
827.601	2922
827.741	2906
827.88	2990
828.02	2868
828.159	2994
828.298	3081
828.437	3135
828.577	3077
828.716	3306
828.855	3119
828.994	2929
829.134	2906
829.273	2956
829.412	2872
829.551	2876
829.69	2933
829.829	3017
829.968	3180
830.107	3051
830.246	3070
830.385	2979
830.524	2906
830.663	2857
830.802	2743
830.941	2720
831.08	2674
831.219	2777
831.357	2758
831.496	2956
831.635	2758
831.774	2674
831.913	2712
832.051	2575
832.19	2598
832.329	2678
832.467	2560
832.606	2492
832.744	2571
832.883	2617
833.022	2610
833.16	2667
833.299	2712
833.437	2720
833.576	2727
833.714	2762
833.852	2766
833.991	2819
834.129	2883
834.267	2861
834.406	2788
834.544	2887
834.682	2895
834.821	2861
834.959	3104
835.097	2914
835.235	3043
835.373	3024
835.511	3058
835.65	2937
835.788	2956
835.926	2834
836.064	2845
836.202	2880
836.34	3112
836.478	3157
836.615	3085
836.753	3188
836.891	3218
837.029	3157
837.167	3123
837.305	3081
837.443	3062
837.58	3028
837.718	3218
837.856	3077
837.993	3055
838.131	3161
838.269	3097
838.406	3119
838.544	3093
838.681	2967
838.819	2929
838.956	2845
839.094	2849
839.231	2937
839.369	3047
839.506	3386
839.643	3272
839.781	3036
839.918	2967
840.055	3058
840.193	3024
840.33	3100
840.467	3112
840.604	3157
840.742	3370
840.879	3100
841.016	3070
841.153	3165
841.29	3363
841.427	3317
841.564	3298
841.701	3275
841.838	3207
841.975	3188
842.112	3192
842.249	3097
842.385	3070
842.522	3264
842.659	3097
842.796	3097
842.933	3116
843.069	3074
843.206	3070
843.343	3203
843.479	3070
843.616	3176
843.752	2891
843.889	2876
844.025	3077
844.162	2910
844.298	3066
844.435	2975
844.571	2956
844.708	3116
844.844	3180
844.98	3279
845.117	3237
845.253	3066
845.389	3009
845.525	3123
845.661	3127
845.798	3043
845.934	3146
846.07	3070
846.206	3199
846.342	3329
846.478	3214
846.614	3108
846.75	3100
846.886	2982
847.022	3253
847.158	3154
847.294	3249
847.429	3283
847.565	3211
847.701	3500
847.837	3024
847.972	3005
848.108	3173
848.244	3150
848.379	2994
848.515	2922
848.65	2944
848.786	2990
848.921	3043
849.057	3077
849.192	3176
849.328	3108
849.463	3146
849.598	3085
849.734	3047
849.869	2975
850.004	2963
850.14	2994
850.275	2922
850.41	2826
850.545	2914
850.68	2929
850.815	2963
850.95	2998
851.085	3176
851.22	3093
851.355	3013
851.49	2982
851.625	3032
851.76	3051
851.895	2944
852.03	2929
852.165	3047
852.299	3165
852.434	3214
852.569	3169
852.703	3184
852.838	3233
852.973	3348
853.107	3370
853.242	3165
853.376	3066
853.511	2967
853.645	3047
853.78	3253
853.914	3154
854.048	3100
854.183	3119
854.317	3161
854.451	3275
854.585	3161
854.72	3119
854.854	3226
854.988	3070
855.122	3127
855.256	2971
855.39	3150
855.524	3253
855.658	3173
855.792	3138
855.926	3211
856.06	3268
856.194	3264
856.327	3169
856.461	3093
856.595	3100
856.729	3104
856.862	3241
856.996	3173
857.13	3218
857.263	3226
857.397	3321
857.53	3127
857.664	3195
857.797	3264
857.931	3253
858.064	3188
858.197	3264
858.331	3176
858.464	3100
858.597	3020
858.731	3119
858.864	3131
858.997	3070
859.13	3157
859.263	3180
859.396	3207
859.529	3051
859.662	3077
859.795	3089
859.928	3138
860.061	3291
860.194	3291
860.327	3131
860.46	3100
860.592	3230
860.725	3291
860.858	3253
860.99	3138
861.123	3085
861.256	3055
861.388	3169
861.521	3869
861.653	3062
861.786	3009
861.918	3036
862.05	3097
862.183	3119
862.315	3157
862.447	3199
862.58	3058
862.712	2960
862.844	2902
862.976	3051
863.108	3009
863.24	3340
863.372	2880
863.504	2990
863.636	2944
863.768	3074
863.9	3005
864.032	2899
864.164	2971
864.296	3036
864.428	3142
864.559	3131
864.691	3085
864.823	3112
864.954	3047
865.086	3062
865.217	3028
865.349	2944
865.48	2975
865.612	3017
865.743	3157
865.875	2994
866.006	2990
866.137	3009
866.269	2944
866.4	2952
866.531	2929
866.662	2891
866.793	2910
866.924	2922
867.055	3001
867.186	2941
867.317	2910
867.448	2819
867.579	2853
867.71	2906
867.841	2811
867.972	2880
868.103	2895
868.233	2925
868.364	2876
868.495	2937
868.625	3074
868.756	3176
868.886	2994
869.017	3024
869.147	3211
869.278	3161
869.408	3055
869.539	3039
869.669	3097
869.799	3074
869.929	3146
870.06	3112
870.19	3283
870.32	3298
870.45	3306
870.58	3389
870.71	3469
870.84	3473
870.97	3298
871.1	3249
871.23	3538
871.36	3450
871.489	3359
871.619	3386
871.749	3454
871.879	3420
872.008	3466
872.138	3351
872.267	3302
872.397	3146
872.526	3093
872.656	3009
872.785	3104
872.915	3283
873.044	3329
873.173	3260
873.303	3253
873.432	3218
873.561	3260
873.69	3173
873.819	3108
873.948	3188
874.077	3138
874.206	3074
874.335	3097
874.464	3245
874.593	3355
874.722	3275
874.851	3367
874.979	3329
875.108	3298
875.237	3176
875.365	3135
875.494	3188
875.623	3253
875.751	3123
875.88	3112
876.008	3169
876.136	3203
876.265	3378
876.393	3526
876.521	3439
876.65	3401
876.778	3344
876.906	3264
877.034	3245
877.162	3249
877.29	3165
877.418	3260
877.546	3199
877.674	3245
877.802	3256
877.93	3264
878.058	3154
878.185	3093
878.313	3188
878.441	3264
878.568	3093
878.696	3157
878.824	3275
878.951	3287
879.079	3447
879.206	3595
879.333	3443
879.461	3310
879.588	3336
879.715	3504
879.842	3564
879.97	3340
880.097	3150
880.224	3138
880.351	3173
880.478	3188
880.605	3230
880.732	3154
880.859	3507
880.986	3298
881.112	3359
881.239	3211
881.366	3085
881.493	3032
881.619	3024
881.746	3051
881.872	3074
881.999	3077
882.125	3192
882.252	3264
882.378	3291
882.505	3435
882.631	3287
882.757	3161
882.883	3226
883.01	3203
883.136	3161
883.262	3127
883.388	3146
883.514	3378
883.64	3363
883.766	3321
883.892	3207
884.018	3245
884.143	3405
884.269	3584
884.395	3203
884.52	3131
884.646	3154
884.772	3157
884.897	3089
885.023	3214
885.148	3378
885.274	3450
885.399	3386
885.524	3313
885.65	3279
885.775	3317
885.9	3306
886.025	3431
886.15	3367
886.275	3264
886.4	3256
886.525	3336
886.65	3283
886.775	3272
886.9	3507
887.025	3671
887.149	3431
887.274	3230
887.399	3195
887.523	3180
887.648	3203
887.773	3218
887.897	3363
888.021	3367
888.146	3279
888.27	3431
888.395	3500
888.519	3466
888.643	3477
888.767	3462
888.891	3325
889.015	3256
889.139	3310
889.263	3241
889.387	3405
889.511	3515
889.635	3458
889.759	3291
889.883	3279
890.006	3393
890.13	3485
890.254	3272
890.377	3351
890.501	3192
890.624	3203
890.748	3275
890.871	3184
890.995	3108
891.118	3077
891.241	3161
891.364	3195
891.488	3325
891.611	3169
891.734	3199
891.857	3294
891.98	3222
892.103	3329
892.226	3245
892.349	3195
892.471	3127
892.594	3283
892.717	3325
892.839	3275
892.962	3332
893.085	3340
893.207	3275
893.33	3127
893.452	3207
893.575	3336
893.697	3245
893.819	3485
893.941	3519
894.064	3462
894.186	3260
894.308	3272
894.43	3469
894.552	3549
894.674	3488
894.796	3279
894.918	3275
895.04	3256
895.161	3428
895.283	3351
895.405	3291
895.526	3363
895.648	3431
895.769	3439
895.891	3469
896.012	3504
896.134	3485
896.255	3420
896.376	3397
896.498	3363
896.619	3412
896.74	3355
896.861	3386
896.982	3648
897.103	3850
897.224	3584
897.345	3511
897.466	3473
897.587	3545
897.708	3576
897.828	3580
897.949	3458
898.07	3336
898.19	3412
898.311	3561
898.431	3428
898.552	3530
898.672	3606
898.792	3576
898.913	3564
899.033	3393
899.153	3268
899.273	3207
899.393	3291
899.513	3313
899.633	3287
899.753	3344
899.873	3264
899.993	3367
900.113	3359
900.232	3409
900.352	3340
900.472	3283
900.591	3203
900.711	3283
900.83	3241
900.95	3416
901.069	3454
901.189	3317
901.308	3165
901.427	3093
901.546	3192
901.665	3313
901.784	3332
901.904	3253
902.023	3135
902.141	3036
902.26	3001
902.379	3116
902.498	3062
902.617	3051
902.735	3173
902.854	3260
902.973	3207
903.091	3039
903.21	3081
903.328	3131
903.446	3119
903.565	3131
903.683	3233
903.801	3127
903.919	3268
904.038	3283
904.156	3199
904.274	3310
904.392	3253
904.51	3310
904.627	3294
904.745	3431
904.863	3511
904.981	3233
905.098	3195
905.216	3230
905.334	3298
905.451	3306
905.569	3287
905.686	3435
905.803	3435
905.921	3306
906.038	3405
906.155	3374
906.272	3279
906.389	3340
906.506	3214
906.623	3222
906.74	3264
906.857	3188
906.974	3245
907.091	3496
907.208	3519
907.324	3462
907.441	3367
907.557	3233
907.674	3237
907.79	3211
907.907	3253
908.023	3401
908.139	3389
908.256	3325
908.372	3412
908.488	3359
908.604	3298
908.72	3176
908.836	3249
908.952	3287
909.068	3374
909.184	3473
909.3	3397
909.415	3534
909.531	3485
909.647	3253
909.762	3287
909.878	3275
909.993	3302
910.108	3287
910.224	3348
910.339	3431
910.454	3313
910.57	3329
910.685	3256
910.8	3606
910.915	3507
911.03	3435
911.145	3268
911.259	3294
911.374	3329
911.489	3279
911.604	3199
911.718	3104
911.833	3157
911.947	2994
912.062	3013
912.176	3176
912.291	3188
912.405	3195
912.519	3397
912.633	3469
912.748	3329
912.862	3249
912.976	3142
913.09	3085
913.204	3169
913.318	3226
913.431	3310
913.545	3325
913.659	3389
913.772	3283
913.886	3230
914	3233
914.113	3367
914.226	3397
914.34	3351
914.453	3211
914.566	3389
914.68	3279
914.793	3313
914.906	3161
915.019	3108
915.132	3108
915.245	3161
915.358	3226
915.47	3226
915.583	3291
915.696	3275
915.809	3393
915.921	3412
916.034	3260
916.146	3249
916.259	3249
916.371	3405
916.483	3344
916.595	3241
916.708	3344
916.82	3317
916.932	3332
917.044	3329
917.156	3348
917.268	3226
917.38	3272
917.491	3268
917.603	3359
917.715	3462
917.826	3492
917.938	3393
918.049	3325
918.161	3424
918.272	3606
918.384	3591
918.495	3462
918.606	3321
918.717	3294
918.828	3348
918.939	3416
919.05	3302
919.161	3344
919.272	3214
919.383	3306
919.494	3492
919.604	3701
919.715	3488
919.826	3428
919.936	3447
920.047	3568
920.157	3515
920.267	3724
920.378	3610
920.488	3572
920.598	3785
920.708	3975
920.818	3819
920.928	3846
921.038	4036
921.148	3991
921.258	3679
921.368	3641
921.477	3580
921.587	3549
921.697	3431
921.806	3622
921.916	3485
922.025	3340
922.134	3348
922.244	3325
922.353	3435
922.462	3283
922.571	3203
922.68	3077
922.789	3089
922.898	3112
923.007	3066
923.116	3230
923.224	3146
923.333	3195
923.442	3093
923.55	3097
923.659	3169
923.767	3279
923.876	3123
923.984	3192
924.092	3127
924.201	3180
924.309	3222
924.417	3245
924.525	3199
924.633	3279
924.741	4166
924.849	3032
924.956	3268
925.064	3108
925.172	3051
925.279	3081
925.387	3131
925.494	3195
925.602	3378
925.709	3275
925.816	3222
925.924	3268
926.031	3355
926.138	3298
926.245	3340
926.352	3268
926.459	3393
926.566	3447
926.673	3329
926.779	3222
926.886	3253
926.993	3150
927.099	3142
927.206	3112
927.312	3119
927.419	3249
927.525	3207
927.631	3256
927.737	3165
927.843	3112
927.95	3028
928.056	3165
928.162	3135
928.267	3214
928.373	3884
928.479	3348
928.585	3104
928.69	3211
928.796	3268
928.901	3176
929.007	3066
929.112	3233
929.218	3214
929.323	3138
929.428	3138
929.533	3329
929.638	3119
929.743	3161
929.848	3222
929.953	3199
930.058	3138
930.163	3005
930.267	3047
930.372	3218
930.477	3032
930.581	3363
930.685	3157
930.79	3055
930.894	3108
930.998	3131
931.103	3283
931.207	2960
931.311	2986
931.415	2902
931.519	2781
931.623	2823
