Data from test_V78500241_1546.txt Node
Date: Fri Mar 25 16:25:54 CST 2022
User: usil
Spectrometer: V785-0024
Trigger mode: 0
Integration Time (sec): 4.000000E-1
Scans to average: 1
Nonlinearity correction enabled: false
Boxcar width: 0
Storing dark spectrum: false
XAxis mode: Wavelengths
Number of Pixels in Spectrum: 1024
>>>>>Begin Spectral Data<<<<<
801.071	2895
801.214	2979
801.356	2864
801.499	2941
801.641	2872
801.783	2899
801.926	3081
802.068	2967
802.211	3009
802.353	3017
802.496	2990
802.638	3028
802.78	3005
802.923	3077
803.065	2986
803.208	2902
803.35	2933
803.492	2933
803.635	2918
803.777	2758
803.919	2857
804.061	3184
804.204	2906
804.346	2918
804.488	2853
804.63	3009
804.773	2899
804.915	2910
805.057	3058
805.199	2956
805.341	2956
805.483	3032
805.626	3013
805.768	2956
805.91	3085
806.052	3104
806.194	3036
806.336	3222
806.478	3032
806.62	2944
806.762	2998
806.904	3024
807.046	3180
807.188	2986
807.33	2895
807.472	2979
807.614	2883
807.756	2994
807.898	2937
808.04	2883
808.182	2944
808.324	2952
808.465	2887
808.607	2857
808.749	2792
808.891	2823
809.033	2986
809.174	2963
809.316	2887
809.458	2880
809.6	2743
809.741	2746
809.883	2777
810.025	2868
810.166	2838
810.308	2868
810.45	2887
810.591	2804
810.733	2762
810.875	2804
811.016	2792
811.158	2781
811.299	2766
811.441	2910
811.582	2895
811.724	2834
811.865	2826
812.007	2925
812.148	2864
812.29	2853
812.431	2895
812.573	2906
812.714	2944
812.855	3009
812.997	3055
813.138	3066
813.279	3001
813.421	2967
813.562	2963
813.703	2872
813.845	2891
813.986	2750
814.127	2693
814.268	2804
814.41	2800
814.551	2811
814.692	2849
814.833	2785
814.974	2868
815.115	2948
815.256	2792
815.397	2804
815.539	2876
815.68	2727
815.821	2766
815.962	2933
816.103	2929
816.244	2872
816.385	2891
816.526	2937
816.666	2918
816.807	2746
816.948	2910
817.089	2910
817.23	2830
817.371	2777
817.512	2800
817.653	2804
817.793	2811
817.934	2906
818.075	2933
818.216	2975
818.356	3024
818.497	2895
818.638	2807
818.778	2823
818.919	2777
819.06	2773
819.2	2849
819.341	2796
819.481	2788
819.622	2929
819.762	3089
819.903	3058
820.043	2929
820.184	2883
820.324	2910
820.465	3039
820.605	2975
820.746	3005
820.886	2944
821.026	3070
821.167	3146
821.307	3279
821.447	3272
821.588	3253
821.728	3230
821.868	3222
822.008	3051
822.149	3184
822.289	3264
822.429	3097
822.569	3093
822.709	3188
822.849	3028
822.99	3036
823.13	3112
823.27	3211
823.41	3085
823.55	3154
823.69	3161
823.83	3203
823.97	3077
824.11	2994
824.25	3001
824.389	3051
824.529	3097
824.669	3039
824.809	3184
824.949	3260
825.089	3203
825.228	3157
825.368	3013
825.508	2960
825.648	2971
825.787	3009
825.927	3055
826.067	2944
826.206	2979
826.346	3032
826.485	3047
826.625	3097
826.765	3260
826.904	3157
827.044	2998
827.183	2918
827.323	2849
827.462	2982
827.601	2918
827.741	2918
827.88	2910
828.02	2857
828.159	2990
828.298	3013
828.437	3093
828.577	3028
828.716	3253
828.855	3085
828.994	2891
829.134	2872
829.273	2906
829.412	2830
829.551	2864
829.69	2902
829.829	2956
829.968	3123
830.107	2998
830.246	2979
830.385	2910
830.524	2868
830.663	2807
830.802	2712
830.941	2648
831.08	2636
831.219	2773
831.357	2758
831.496	2918
831.635	2746
831.774	2640
831.913	2629
832.051	2522
832.19	2583
832.329	2697
832.467	2492
832.606	2526
832.744	2598
832.883	2583
833.022	2625
833.16	2663
833.299	2667
833.437	2686
833.576	2674
833.714	2727
833.852	2724
833.991	2750
834.129	2861
834.267	2811
834.406	2766
834.544	2868
834.682	2887
834.821	2849
834.959	3074
835.097	2899
835.235	3051
835.373	2986
835.511	2990
835.65	2952
835.788	2933
835.926	2796
836.064	2785
836.202	2842
836.34	3085
836.478	3112
836.615	3036
836.753	3116
836.891	3192
837.029	3180
837.167	3112
837.305	3085
837.443	3017
837.58	2925
837.718	3127
837.856	3062
837.993	3039
838.131	3112
838.269	3089
838.406	3104
838.544	3055
838.681	2906
838.819	2925
838.956	2773
839.094	2823
839.231	2933
839.369	3017
839.506	3321
839.643	3150
839.781	2986
839.918	2956
840.055	3024
840.193	3055
840.33	3077
840.467	3116
840.604	3173
840.742	3393
840.879	3032
841.016	3066
841.153	3093
841.29	3329
841.427	3256
841.564	3256
841.701	3302
841.838	3203
841.975	3203
842.112	3199
842.249	3089
842.385	3051
842.522	3260
842.659	3119
842.796	3058
842.933	3074
843.069	3036
843.206	3028
843.343	3165
843.479	3089
843.616	3169
843.752	2880
843.889	2887
844.025	3085
844.162	2895
844.298	3074
844.435	2948
844.571	2883
844.708	3085
844.844	3192
844.98	3237
845.117	3188
845.253	3032
845.389	2986
845.525	3074
845.661	3066
845.798	2971
845.934	3119
846.07	3032
846.206	3226
846.342	3287
846.478	3203
846.614	3104
846.75	3047
846.886	3066
847.022	3211
847.158	3119
847.294	3203
847.429	3237
847.565	3218
847.701	3496
847.837	3051
847.972	2986
848.108	3131
848.244	3127
848.379	2998
848.515	2929
848.65	2933
848.786	2941
848.921	2975
849.057	3070
849.192	3173
849.328	3077
849.463	3104
849.598	3047
849.734	3024
849.869	2998
850.004	2933
850.14	2986
850.275	2861
850.41	2823
850.545	2887
850.68	2952
850.815	2956
850.95	2982
851.085	3161
851.22	3074
851.355	3039
851.49	2956
851.625	2990
851.76	3039
851.895	2922
852.03	2941
852.165	3013
852.299	3089
852.434	3192
852.569	3146
852.703	3173
852.838	3253
852.973	3313
853.107	3310
853.242	3173
853.376	3062
853.511	2963
853.645	3058
853.78	3237
853.914	3123
854.048	3085
854.183	3039
854.317	3131
854.451	3313
854.585	3146
854.72	3070
854.854	3176
854.988	3058
855.122	3138
855.256	2982
855.39	3097
855.524	3253
855.658	3142
855.792	3176
855.926	3203
856.06	3207
856.194	3237
856.327	3142
856.461	3055
856.595	3047
856.729	3070
856.862	3207
856.996	3180
857.13	3138
857.263	3237
857.397	3275
857.53	3135
857.664	3192
857.797	3226
857.931	3253
858.064	3154
858.197	3180
858.331	3165
858.464	3104
858.597	3013
858.731	3123
858.864	3104
858.997	3058
859.13	3108
859.263	3169
859.396	3184
859.529	3097
859.662	3093
859.795	3051
859.928	3112
860.061	3226
860.194	3287
860.327	3104
860.46	3089
860.592	3264
860.725	3226
860.858	3207
860.99	3131
861.123	3043
861.256	3017
861.388	3123
861.521	3953
861.653	3028
861.786	2990
861.918	3001
862.05	3062
862.183	3119
862.315	3161
862.447	3203
862.58	3047
862.712	2979
862.844	2883
862.976	3051
863.108	2982
863.24	3321
863.372	2868
863.504	2967
863.636	2956
863.768	3024
863.9	2963
864.032	2880
864.164	2967
864.296	3028
864.428	3081
864.559	3112
864.691	3089
864.823	3051
864.954	3013
865.086	3032
865.217	2960
865.349	2960
865.48	2971
865.612	3017
865.743	3100
865.875	2967
866.006	2902
866.137	2990
866.269	2933
866.4	2941
866.531	2941
866.662	2899
866.793	2880
866.924	2906
867.055	2990
867.186	2910
867.317	2857
867.448	2823
867.579	2849
867.71	2842
867.841	2842
867.972	2880
868.103	2910
868.233	2868
868.364	2876
868.495	2902
868.625	3062
868.756	3161
868.886	2967
869.017	3039
869.147	3142
869.278	3169
869.408	3062
869.539	2998
869.669	3081
869.799	3013
869.929	3070
870.06	3123
870.19	3325
870.32	3317
870.45	3283
870.58	3386
870.71	3435
870.84	3469
870.97	3291
871.1	3268
871.23	3466
871.36	3439
871.489	3374
871.619	3416
871.749	3405
871.879	3428
872.008	3450
872.138	3367
872.267	3260
872.397	3142
872.526	3097
872.656	2998
872.785	3062
872.915	3241
873.044	3302
873.173	3211
873.303	3249
873.432	3226
873.561	3222
873.69	3116
873.819	3127
873.948	3157
874.077	3112
874.206	3036
874.335	3043
874.464	3256
874.593	3325
874.722	3218
874.851	3397
874.979	3321
875.108	3306
875.237	3188
875.365	3203
875.494	3195
875.623	3279
875.751	3081
875.88	3089
876.008	3173
876.136	3211
876.265	3374
876.393	3519
876.521	3435
876.65	3359
876.778	3317
876.906	3249
877.034	3184
877.162	3199
877.29	3180
877.418	3233
877.546	3230
877.674	3260
877.802	3230
877.93	3233
878.058	3146
878.185	3066
878.313	3180
878.441	3207
878.568	3043
878.696	3138
878.824	3275
878.951	3302
879.079	3462
879.206	3641
879.333	3393
879.461	3279
879.588	3329
879.715	3473
879.842	3580
879.97	3386
880.097	3142
880.224	3104
880.351	3165
880.478	3199
880.605	3188
880.732	3169
880.859	3439
880.986	3283
881.112	3310
881.239	3218
881.366	3070
881.493	3024
881.619	3028
881.746	3074
881.872	3085
881.999	3112
882.125	3142
882.252	3218
882.378	3283
882.505	3435
882.631	3279
882.757	3142
882.883	3226
883.01	3233
883.136	3165
883.262	3135
883.388	3127
883.514	3321
883.64	3382
883.766	3321
883.892	3199
884.018	3192
884.143	3405
884.269	3511
884.395	3214
884.52	3184
884.646	3188
884.772	3097
884.897	3104
885.023	3226
885.148	3325
885.274	3416
885.399	3389
885.524	3348
885.65	3291
885.775	3268
885.9	3268
886.025	3466
886.15	3351
886.275	3306
886.4	3237
886.525	3264
886.65	3241
886.775	3245
886.9	3496
887.025	3652
887.149	3382
887.274	3256
887.399	3192
887.523	3218
887.648	3157
887.773	3222
887.897	3363
888.021	3370
888.146	3268
888.27	3401
888.395	3530
888.519	3405
888.643	3412
888.767	3450
888.891	3329
889.015	3268
889.139	3272
889.263	3275
889.387	3401
889.511	3515
889.635	3439
889.759	3264
889.883	3336
890.006	3340
890.13	3473
890.254	3272
890.377	3310
890.501	3203
890.624	3211
890.748	3310
890.871	3211
890.995	3104
891.118	3066
891.241	3176
891.364	3207
891.488	3306
891.611	3165
891.734	3173
891.857	3245
891.98	3173
892.103	3329
892.226	3298
892.349	3245
892.471	3116
892.594	3218
892.717	3264
892.839	3287
892.962	3298
893.085	3355
893.207	3302
893.33	3169
893.452	3188
893.575	3313
893.697	3253
893.819	3450
893.941	3488
894.064	3450
894.186	3298
894.308	3272
894.43	3439
894.552	3538
894.674	3473
894.796	3222
894.918	3325
895.04	3287
895.161	3401
895.283	3355
895.405	3298
895.526	3359
895.648	3420
895.769	3458
895.891	3454
896.012	3507
896.134	3439
896.255	3401
896.376	3393
896.498	3389
896.619	3424
896.74	3329
896.861	3374
896.982	3698
897.103	3816
897.224	3576
897.345	3481
897.466	3416
897.587	3466
897.708	3580
897.828	3557
897.949	3454
898.07	3325
898.19	3428
898.311	3587
898.431	3439
898.552	3526
898.672	3610
898.792	3591
898.913	3542
899.033	3443
899.153	3283
899.273	3195
899.393	3287
899.513	3348
899.633	3291
899.753	3313
899.873	3313
899.993	3389
900.113	3310
900.232	3367
900.352	3325
900.472	3287
900.591	3176
900.711	3302
900.83	3272
900.95	3389
901.069	3507
901.189	3325
901.308	3173
901.427	3146
901.546	3180
901.665	3268
901.784	3340
901.904	3214
902.023	3154
902.141	2982
902.26	2967
902.379	3138
902.498	3112
902.617	3039
902.735	3184
902.854	3214
902.973	3180
903.091	3074
903.21	3077
903.328	3161
903.446	3070
903.565	3127
903.683	3169
903.801	3138
903.919	3256
904.038	3298
904.156	3195
904.274	3294
904.392	3230
904.51	3283
904.627	3302
904.745	3454
904.863	3507
904.981	3230
905.098	3157
905.216	3211
905.334	3260
905.451	3291
905.569	3253
905.686	3450
905.803	3477
905.921	3268
906.038	3393
906.155	3321
906.272	3283
906.389	3340
906.506	3245
906.623	3233
906.74	3302
906.857	3214
906.974	3279
907.091	3454
907.208	3595
907.324	3488
907.441	3416
907.557	3230
907.674	3237
907.79	3180
907.907	3264
908.023	3367
908.139	3355
908.256	3340
908.372	3363
908.488	3363
908.604	3249
908.72	3222
908.836	3310
908.952	3260
909.068	3313
909.184	3454
909.3	3393
909.415	3481
909.531	3454
909.647	3272
909.762	3294
909.878	3272
909.993	3351
910.108	3329
910.224	3313
910.339	3405
910.454	3317
910.57	3275
910.685	3241
910.8	3587
910.915	3545
911.03	3485
911.145	3253
911.259	3256
911.374	3340
911.489	3245
911.604	3233
911.718	3123
911.833	3150
911.947	3028
912.062	2956
912.176	3161
912.291	3184
912.405	3218
912.519	3412
912.633	3469
912.748	3348
912.862	3272
912.976	3146
913.09	3032
913.204	3165
913.318	3233
913.431	3287
913.545	3317
913.659	3401
913.772	3321
913.886	3253
914	3226
914.113	3367
914.226	3409
914.34	3344
914.453	3192
914.566	3424
914.68	3272
914.793	3306
914.906	3142
915.019	3108
915.132	3077
915.245	3176
915.358	3188
915.47	3184
915.583	3249
915.696	3310
915.809	3416
915.921	3382
916.034	3233
916.146	3260
916.259	3184
916.371	3393
916.483	3340
916.595	3264
916.708	3313
916.82	3325
916.932	3355
917.044	3340
917.156	3332
917.268	3256
917.38	3275
917.491	3279
917.603	3340
917.715	3439
917.826	3488
917.938	3378
918.049	3294
918.161	3447
918.272	3572
918.384	3549
918.495	3469
918.606	3332
918.717	3287
918.828	3363
918.939	3420
919.05	3313
919.161	3363
919.272	3180
919.383	3283
919.494	3481
919.604	3682
919.715	3504
919.826	3367
919.936	3450
920.047	3580
920.157	3542
920.267	3740
920.378	3622
920.488	3564
920.598	3797
920.708	3918
920.818	3857
920.928	3838
921.038	3994
921.148	4010
921.258	3671
921.368	3622
921.477	3584
921.587	3481
921.697	3473
921.806	3637
921.916	3477
922.025	3389
922.134	3348
922.244	3302
922.353	3401
922.462	3275
922.571	3226
922.68	3112
922.789	3062
922.898	3150
923.007	3077
923.116	3226
923.224	3180
923.333	3180
923.442	3085
923.55	3074
923.659	3150
923.767	3226
923.876	3077
923.984	3203
924.092	3097
924.201	3165
924.309	3214
924.417	3268
924.525	3199
924.633	3226
924.741	4124
924.849	3081
924.956	3237
925.064	3055
925.172	3062
925.279	3093
925.387	3199
925.494	3192
925.602	3378
925.709	3325
925.816	3184
925.924	3302
926.031	3397
926.138	3329
926.245	3367
926.352	3241
926.459	3374
926.566	3500
926.673	3321
926.779	3211
926.886	3233
926.993	3154
927.099	3093
927.206	3074
927.312	3154
927.419	3237
927.525	3180
927.631	3275
927.737	3138
927.843	3108
927.95	3039
928.056	3157
928.162	3169
928.267	3287
928.373	3770
928.479	3321
928.585	3085
928.69	3222
928.796	3241
928.901	3192
929.007	3043
929.112	3199
929.218	3218
929.323	3157
929.428	3150
929.533	3306
929.638	3131
929.743	3135
929.848	3245
929.953	3192
930.058	3150
930.163	3047
930.267	3047
930.372	3173
930.477	3051
930.581	3325
930.685	3146
930.79	3074
930.894	3119
930.998	3074
931.103	3272
931.207	2952
931.311	2971
931.415	2922
931.519	2773
931.623	2819
