Data from test_V78500241_1096.txt Node
Date: Fri Mar 25 16:22:47 CST 2022
User: usil
Spectrometer: V785-0024
Trigger mode: 0
Integration Time (sec): 4.000000E-1
Scans to average: 1
Nonlinearity correction enabled: false
Boxcar width: 0
Storing dark spectrum: false
XAxis mode: Wavelengths
Number of Pixels in Spectrum: 1024
>>>>>Begin Spectral Data<<<<<
801.071	2891
801.214	2929
801.356	2864
801.499	2899
801.641	2849
801.783	2914
801.926	3032
802.068	2971
802.211	2956
802.353	3009
802.496	2994
802.638	2998
802.78	3066
802.923	3070
803.065	2967
803.208	2842
803.35	2941
803.492	2902
803.635	2925
803.777	2754
803.919	2838
804.061	3214
804.204	2971
804.346	2902
804.488	2807
804.63	2986
804.773	2887
804.915	2929
805.057	3108
805.199	2944
805.341	2975
805.483	3055
805.626	2982
805.768	2960
805.91	3058
806.052	3074
806.194	3062
806.336	3218
806.478	3013
806.62	2933
806.762	2998
806.904	3081
807.046	3176
807.188	2971
807.33	2902
807.472	3017
807.614	2929
807.756	2982
807.898	2910
808.04	2902
808.182	2956
808.324	2937
808.465	2876
808.607	2872
808.749	2792
808.891	2830
809.033	2967
809.174	2990
809.316	2883
809.458	2937
809.6	2773
809.741	2769
809.883	2746
810.025	2826
810.166	2868
810.308	2849
810.45	2834
810.591	2796
810.733	2762
810.875	2826
811.016	2807
811.158	2792
811.299	2804
811.441	2922
811.582	2929
811.724	2838
811.865	2807
812.007	2922
812.148	2895
812.29	2861
812.431	2883
812.573	2956
812.714	2971
812.855	3066
812.997	3009
813.138	3135
813.279	3028
813.421	2979
813.562	2960
813.703	2891
813.845	2880
813.986	2804
814.127	2701
814.268	2807
814.41	2826
814.551	2800
814.692	2887
814.833	2819
814.974	2906
815.115	2971
815.256	2830
815.397	2819
815.539	2891
815.68	2792
815.821	2815
815.962	2956
816.103	2929
816.244	2849
816.385	2861
816.526	2960
816.666	2902
816.807	2743
816.948	2868
817.089	2929
817.23	2845
817.371	2769
817.512	2804
817.653	2830
817.793	2823
817.934	2876
818.075	2933
818.216	2918
818.356	3017
818.497	2914
818.638	2785
818.778	2845
818.919	2807
819.06	2773
819.2	2906
819.341	2773
819.481	2823
819.622	2941
819.762	3081
819.903	2998
820.043	2899
820.184	2948
820.324	2868
820.465	3013
820.605	2990
820.746	3085
820.886	2929
821.026	3093
821.167	3131
821.307	3249
821.447	3287
821.588	3226
821.728	3180
821.868	3211
822.008	3058
822.149	3188
822.289	3249
822.429	3123
822.569	3058
822.709	3161
822.849	3032
822.99	3074
823.13	3165
823.27	3176
823.41	3116
823.55	3127
823.69	3127
823.83	3176
823.97	3116
824.11	3032
824.25	2971
824.389	3070
824.529	3119
824.669	3077
824.809	3169
824.949	3260
825.089	3214
825.228	3150
825.368	2986
825.508	2941
825.648	2994
825.787	3039
825.927	3005
826.067	2971
826.206	2971
826.346	3020
826.485	3028
826.625	3131
826.765	3260
826.904	3199
827.044	2979
827.183	2902
827.323	2857
827.462	2960
827.601	2902
827.741	2899
827.88	2956
828.02	2830
828.159	2963
828.298	3017
828.437	3127
828.577	3039
828.716	3192
828.855	3070
828.994	2895
829.134	2906
829.273	2925
829.412	2872
829.551	2876
829.69	2876
829.829	2998
829.968	3138
830.107	3017
830.246	2998
830.385	2899
830.524	2864
830.663	2811
830.802	2735
830.941	2621
831.08	2674
831.219	2739
831.357	2762
831.496	2937
831.635	2720
831.774	2640
831.913	2663
832.051	2545
832.19	2602
832.329	2667
832.467	2526
832.606	2469
832.744	2575
832.883	2556
833.022	2583
833.16	2640
833.299	2693
833.437	2720
833.576	2724
833.714	2720
833.852	2758
833.991	2758
834.129	2800
834.267	2811
834.406	2815
834.544	2823
834.682	2876
834.821	2876
834.959	3055
835.097	2880
835.235	3055
835.373	3013
835.511	2990
835.65	2929
835.788	2925
835.926	2845
836.064	2800
836.202	2845
836.34	3077
836.478	3146
836.615	3077
836.753	3154
836.891	3218
837.029	3138
837.167	3119
837.305	3077
837.443	3001
837.58	2941
837.718	3131
837.856	3062
837.993	3028
838.131	3119
838.269	3070
838.406	3108
838.544	3047
838.681	2899
838.819	2948
838.956	2807
839.094	2864
839.231	2906
839.369	3020
839.506	3363
839.643	3192
839.781	3013
839.918	2960
840.055	3055
840.193	3032
840.33	3058
840.467	3116
840.604	3119
840.742	3389
840.879	3074
841.016	3051
841.153	3085
841.29	3298
841.427	3313
841.564	3260
841.701	3306
841.838	3230
841.975	3150
842.112	3256
842.249	3062
842.385	3028
842.522	3253
842.659	3089
842.796	3074
842.933	3116
843.069	3036
843.206	3039
843.343	3173
843.479	3100
843.616	3154
843.752	2906
843.889	2842
844.025	3047
844.162	2891
844.298	3070
844.435	2918
844.571	2929
844.708	3081
844.844	3165
844.98	3260
845.117	3226
845.253	3039
845.389	3020
845.525	3112
845.661	3138
845.798	3017
845.934	3112
846.07	3017
846.206	3226
846.342	3291
846.478	3184
846.614	3066
846.75	3036
846.886	3017
847.022	3211
847.158	3142
847.294	3173
847.429	3249
847.565	3184
847.701	3496
847.837	3017
847.972	3028
848.108	3150
848.244	3154
848.379	2982
848.515	2948
848.65	2887
848.786	2982
848.921	3039
849.057	3089
849.192	3146
849.328	3066
849.463	3123
849.598	3047
849.734	3013
849.869	2975
850.004	2941
850.14	2937
850.275	2883
850.41	2838
850.545	2902
850.68	2910
850.815	2937
850.95	2960
851.085	3211
851.22	3077
851.355	3013
851.49	2963
851.625	2956
851.76	3024
851.895	2937
852.03	2937
852.165	3017
852.299	3097
852.434	3169
852.569	3154
852.703	3154
852.838	3275
852.973	3325
853.107	3329
853.242	3104
853.376	3081
853.511	3005
853.645	3100
853.78	3222
853.914	3100
854.048	3097
854.183	3112
854.317	3108
854.451	3291
854.585	3119
854.72	3070
854.854	3233
854.988	3070
855.122	3070
855.256	2967
855.39	3089
855.524	3214
855.658	3180
855.792	3188
855.926	3199
856.06	3188
856.194	3256
856.327	3127
856.461	3047
856.595	3112
856.729	3077
856.862	3245
856.996	3131
857.13	3165
857.263	3222
857.397	3256
857.53	3119
857.664	3180
857.797	3268
857.931	3264
858.064	3176
858.197	3199
858.331	3127
858.464	3089
858.597	3005
858.731	3104
858.864	3104
858.997	3093
859.13	3119
859.263	3184
859.396	3154
859.529	3074
859.662	3058
859.795	3036
859.928	3123
860.061	3253
860.194	3279
860.327	3150
860.46	3077
860.592	3253
860.725	3230
860.858	3237
860.99	3108
861.123	3005
861.256	3047
861.388	3169
861.521	3679
861.653	3070
861.786	2986
861.918	2990
862.05	3051
862.183	3119
862.315	3135
862.447	3176
862.58	3100
862.712	2941
862.844	2849
862.976	3017
863.108	2960
863.24	3397
863.372	2899
863.504	2941
863.636	2925
863.768	3013
863.9	2986
864.032	2922
864.164	2922
864.296	3017
864.428	3085
864.559	3093
864.691	3093
864.823	3062
864.954	3013
865.086	3032
865.217	3020
865.349	2937
865.48	3005
865.612	3017
865.743	3157
865.875	2948
866.006	2956
866.137	2979
866.269	2971
866.4	2952
866.531	2925
866.662	2902
866.793	2906
866.924	2868
867.055	2986
867.186	2887
867.317	2872
867.448	2819
867.579	2853
867.71	2845
867.841	2777
867.972	2906
868.103	2891
868.233	2845
868.364	2849
868.495	2922
868.625	3077
868.756	3150
868.886	2944
869.017	3005
869.147	3127
869.278	3157
869.408	3047
869.539	3032
869.669	3112
869.799	3039
869.929	3127
870.06	3127
870.19	3310
870.32	3291
870.45	3294
870.58	3363
870.71	3409
870.84	3428
870.97	3256
871.1	3207
871.23	3485
871.36	3412
871.489	3340
871.619	3412
871.749	3401
871.879	3431
872.008	3485
872.138	3336
872.267	3275
872.397	3131
872.526	3100
872.656	2990
872.785	3097
872.915	3256
873.044	3340
873.173	3226
873.303	3298
873.432	3253
873.561	3233
873.69	3161
873.819	3161
873.948	3199
874.077	3085
874.206	3036
874.335	3081
874.464	3199
874.593	3336
874.722	3249
874.851	3409
874.979	3325
875.108	3275
875.237	3214
875.365	3161
875.494	3135
875.623	3211
875.751	3085
875.88	3097
876.008	3173
876.136	3253
876.265	3317
876.393	3485
876.521	3397
876.65	3378
876.778	3291
876.906	3264
877.034	3214
877.162	3199
877.29	3184
877.418	3268
877.546	3226
877.674	3233
877.802	3230
877.93	3249
878.058	3161
878.185	3097
878.313	3199
878.441	3188
878.568	3055
878.696	3119
878.824	3233
878.951	3272
879.079	3450
879.206	3629
879.333	3431
879.461	3351
879.588	3336
879.715	3469
879.842	3580
879.97	3409
880.097	3176
880.224	3138
880.351	3199
880.478	3176
880.605	3180
880.732	3173
880.859	3504
880.986	3264
881.112	3302
881.239	3180
881.366	3100
881.493	2986
881.619	3043
881.746	3093
881.872	3077
881.999	3093
882.125	3119
882.252	3230
882.378	3272
882.505	3420
882.631	3287
882.757	3161
882.883	3226
883.01	3237
883.136	3135
883.262	3089
883.388	3104
883.514	3275
883.64	3363
883.766	3233
883.892	3180
884.018	3199
884.143	3458
884.269	3561
884.395	3188
884.52	3173
884.646	3211
884.772	3146
884.897	3104
885.023	3199
885.148	3351
885.274	3428
885.399	3363
885.524	3306
885.65	3222
885.775	3321
885.9	3241
886.025	3466
886.15	3348
886.275	3294
886.4	3241
886.525	3298
886.65	3245
886.775	3279
886.9	3477
887.025	3648
887.149	3374
887.274	3260
887.399	3169
887.523	3207
887.648	3161
887.773	3169
887.897	3393
888.021	3435
888.146	3256
888.27	3409
888.395	3515
888.519	3439
888.643	3431
888.767	3450
888.891	3317
889.015	3214
889.139	3302
889.263	3264
889.387	3405
889.511	3481
889.635	3405
889.759	3283
889.883	3279
890.006	3378
890.13	3477
890.254	3287
890.377	3378
890.501	3211
890.624	3203
890.748	3291
890.871	3180
890.995	3135
891.118	3070
891.241	3184
891.364	3211
891.488	3321
891.611	3180
891.734	3199
891.857	3268
891.98	3218
892.103	3374
892.226	3260
892.349	3195
892.471	3077
892.594	3233
892.717	3302
892.839	3287
892.962	3306
893.085	3325
893.207	3291
893.33	3146
893.452	3188
893.575	3302
893.697	3241
893.819	3454
893.941	3488
894.064	3412
894.186	3272
894.308	3344
894.43	3424
894.552	3534
894.674	3447
894.796	3260
894.918	3329
895.04	3275
895.161	3435
895.283	3367
895.405	3298
895.526	3340
895.648	3424
895.769	3412
895.891	3397
896.012	3469
896.134	3431
896.255	3370
896.376	3367
896.498	3409
896.619	3420
896.74	3348
896.861	3386
896.982	3675
897.103	3816
897.224	3568
897.345	3466
897.466	3405
897.587	3485
897.708	3633
897.828	3542
897.949	3439
898.07	3302
898.19	3397
898.311	3603
898.431	3435
898.552	3485
898.672	3610
898.792	3538
898.913	3504
899.033	3367
899.153	3336
899.273	3207
899.393	3294
899.513	3340
899.633	3325
899.753	3363
899.873	3287
899.993	3363
900.113	3321
900.232	3378
900.352	3329
900.472	3298
900.591	3184
900.711	3256
900.83	3230
900.95	3409
901.069	3481
901.189	3359
901.308	3173
901.427	3135
901.546	3214
901.665	3294
901.784	3332
901.904	3241
902.023	3154
902.141	3047
902.26	3017
902.379	3161
902.498	3043
902.617	3032
902.735	3218
902.854	3249
902.973	3169
903.091	3005
903.21	3070
903.328	3131
903.446	3100
903.565	3127
903.683	3165
903.801	3074
903.919	3241
904.038	3287
904.156	3135
904.274	3294
904.392	3272
904.51	3294
904.627	3302
904.745	3481
904.863	3488
904.981	3253
905.098	3192
905.216	3192
905.334	3310
905.451	3313
905.569	3283
905.686	3431
905.803	3469
905.921	3287
906.038	3409
906.155	3325
906.272	3256
906.389	3272
906.506	3184
906.623	3260
906.74	3230
906.857	3169
906.974	3245
907.091	3397
907.208	3561
907.324	3477
907.441	3363
907.557	3203
907.674	3230
907.79	3233
907.907	3294
908.023	3378
908.139	3355
908.256	3321
908.372	3363
908.488	3348
908.604	3218
908.72	3203
908.836	3245
908.952	3317
909.068	3340
909.184	3504
909.3	3378
909.415	3504
909.531	3458
909.647	3310
909.762	3283
909.878	3249
909.993	3420
910.108	3378
910.224	3310
910.339	3382
910.454	3321
910.57	3310
910.685	3264
910.8	3606
910.915	3523
911.03	3466
911.145	3272
911.259	3272
911.374	3325
911.489	3253
911.604	3188
911.718	3093
911.833	3169
911.947	3024
912.062	2952
912.176	3135
912.291	3199
912.405	3222
912.519	3439
912.633	3477
912.748	3363
912.862	3268
912.976	3161
913.09	3051
913.204	3150
913.318	3192
913.431	3329
913.545	3294
913.659	3386
913.772	3313
913.886	3275
914	3188
914.113	3367
914.226	3435
914.34	3359
914.453	3230
914.566	3370
914.68	3283
914.793	3332
914.906	3146
915.019	3119
915.132	3074
915.245	3154
915.358	3192
915.47	3226
915.583	3306
915.696	3275
915.809	3397
915.921	3374
916.034	3260
916.146	3249
916.259	3222
916.371	3412
916.483	3374
916.595	3272
916.708	3329
916.82	3317
916.932	3298
917.044	3332
917.156	3359
917.268	3264
917.38	3302
917.491	3306
917.603	3378
917.715	3412
917.826	3450
917.938	3374
918.049	3264
918.161	3397
918.272	3553
918.384	3553
918.495	3450
918.606	3351
918.717	3283
918.828	3370
918.939	3382
919.05	3317
919.161	3363
919.272	3188
919.383	3283
919.494	3473
919.604	3656
919.715	3492
919.826	3412
919.936	3447
920.047	3584
920.157	3530
920.267	3770
920.378	3572
920.488	3553
920.598	3781
920.708	3941
920.818	3835
920.928	3838
921.038	4029
921.148	4006
921.258	3660
921.368	3675
921.477	3519
921.587	3500
921.697	3420
921.806	3618
921.916	3538
922.025	3340
922.134	3393
922.244	3336
922.353	3424
922.462	3279
922.571	3211
922.68	3100
922.789	3104
922.898	3157
923.007	3104
923.116	3195
923.224	3131
923.333	3188
923.442	3108
923.55	3081
923.659	3131
923.767	3260
923.876	3131
923.984	3256
924.092	3150
924.201	3218
924.309	3207
924.417	3287
924.525	3188
924.633	3230
924.741	4021
924.849	3024
924.956	3260
925.064	3089
925.172	3070
925.279	3104
925.387	3165
925.494	3169
925.602	3367
925.709	3332
925.816	3176
925.924	3272
926.031	3355
926.138	3321
926.245	3382
926.352	3272
926.459	3424
926.566	3473
926.673	3325
926.779	3264
926.886	3275
926.993	3176
927.099	3138
927.206	3093
927.312	3112
927.419	3245
927.525	3264
927.631	3268
927.737	3157
927.843	3119
927.95	3017
928.056	3138
928.162	3127
928.267	3218
928.373	3838
928.479	3317
928.585	3070
928.69	3195
928.796	3302
928.901	3146
929.007	2982
929.112	3188
929.218	3169
929.323	3142
929.428	3127
929.533	3283
929.638	3093
929.743	3161
929.848	3264
929.953	3218
930.058	3154
930.163	3009
930.267	3032
930.372	3169
930.477	3020
930.581	3321
930.685	3176
930.79	3055
930.894	3142
930.998	3108
931.103	3275
931.207	2982
931.311	2929
931.415	2933
931.519	2766
931.623	2800
