Data from test_V78500241_678.txt Node
Date: Fri Mar 25 16:19:54 CST 2022
User: usil
Spectrometer: V785-0024
Trigger mode: 0
Integration Time (sec): 4.000000E-1
Scans to average: 1
Nonlinearity correction enabled: false
Boxcar width: 0
Storing dark spectrum: false
XAxis mode: Wavelengths
Number of Pixels in Spectrum: 1024
>>>>>Begin Spectral Data<<<<<
801.071	2914
801.214	2960
801.356	2868
801.499	2910
801.641	2895
801.783	2933
801.926	3055
802.068	3020
802.211	3005
802.353	3032
802.496	3005
802.638	3036
802.78	3077
802.923	3051
803.065	2998
803.208	2937
803.35	2918
803.492	2891
803.635	2929
803.777	2758
803.919	2842
804.061	3180
804.204	2948
804.346	2918
804.488	2823
804.63	2952
804.773	2906
804.915	2922
805.057	3085
805.199	2944
805.341	2944
805.483	3055
805.626	3028
805.768	2975
805.91	3081
806.052	3100
806.194	3036
806.336	3233
806.478	3009
806.62	2914
806.762	2956
806.904	3055
807.046	3157
807.188	2994
807.33	2929
807.472	3017
807.614	2902
807.756	2967
807.898	2906
808.04	2902
808.182	2979
808.324	2975
808.465	2906
808.607	2906
808.749	2773
808.891	2849
809.033	2994
809.174	2979
809.316	2868
809.458	2899
809.6	2754
809.741	2796
809.883	2750
810.025	2815
810.166	2857
810.308	2868
810.45	2845
810.591	2739
810.733	2750
810.875	2830
811.016	2800
811.158	2750
811.299	2842
811.441	2948
811.582	2876
811.724	2819
811.865	2834
812.007	2929
812.148	2861
812.29	2815
812.431	2876
812.573	2925
812.714	2967
812.855	3058
812.997	3043
813.138	3119
813.279	2998
813.421	2994
813.562	2914
813.703	2868
813.845	2864
813.986	2773
814.127	2716
814.268	2823
814.41	2823
814.551	2800
814.692	2849
814.833	2815
814.974	2861
815.115	2990
815.256	2804
815.397	2811
815.539	2811
815.68	2781
815.821	2769
815.962	2952
816.103	2902
816.244	2864
816.385	2842
816.526	2956
816.666	2922
816.807	2727
816.948	2887
817.089	2914
817.23	2834
817.371	2762
817.512	2788
817.653	2815
817.793	2815
817.934	2880
818.075	2933
818.216	2975
818.356	3036
818.497	2883
818.638	2762
818.778	2853
818.919	2773
819.06	2766
819.2	2845
819.341	2819
819.481	2815
819.622	2960
819.762	3047
819.903	3039
820.043	2948
820.184	2891
820.324	2906
820.465	3009
820.605	2986
820.746	3013
820.886	2895
821.026	3104
821.167	3142
821.307	3249
821.447	3291
821.588	3237
821.728	3188
821.868	3161
822.008	3066
822.149	3169
822.289	3192
822.429	3047
822.569	3085
822.709	3195
822.849	3020
822.99	3081
823.13	3207
823.27	3169
823.41	3097
823.55	3150
823.69	3116
823.83	3199
823.97	3100
824.11	2982
824.25	2998
824.389	3043
824.529	3077
824.669	3062
824.809	3173
824.949	3249
825.089	3192
825.228	3131
825.368	2990
825.508	2948
825.648	2952
825.787	2990
825.927	2998
826.067	3001
826.206	2948
826.346	3051
826.485	3062
826.625	3089
826.765	3279
826.904	3211
827.044	3001
827.183	2944
827.323	2842
827.462	2948
827.601	2914
827.741	2918
827.88	2937
828.02	2796
828.159	2967
828.298	3024
828.437	3089
828.577	3017
828.716	3218
828.855	3097
828.994	2937
829.134	2883
829.273	2906
829.412	2845
829.551	2868
829.69	2880
829.829	2956
829.968	3104
830.107	3024
830.246	3013
830.385	2933
830.524	2853
830.663	2834
830.802	2689
830.941	2632
831.08	2640
831.219	2766
831.357	2754
831.496	2914
831.635	2739
831.774	2636
831.913	2663
832.051	2541
832.19	2583
832.329	2663
832.467	2530
832.606	2454
832.744	2533
832.883	2560
833.022	2590
833.16	2655
833.299	2670
833.437	2697
833.576	2674
833.714	2750
833.852	2705
833.991	2731
834.129	2796
834.267	2811
834.406	2792
834.544	2864
834.682	2845
834.821	2872
834.959	3085
835.097	2925
835.235	3028
835.373	2998
835.511	3024
835.65	2963
835.788	2937
835.926	2823
836.064	2830
836.202	2826
836.34	3055
836.478	3123
836.615	3058
836.753	3119
836.891	3214
837.029	3157
837.167	3085
837.305	3036
837.443	3047
837.58	2956
837.718	3135
837.856	3036
837.993	3036
838.131	3097
838.269	3100
838.406	3104
838.544	3055
838.681	2914
838.819	2914
838.956	2811
839.094	2785
839.231	2887
839.369	2994
839.506	3367
839.643	3222
839.781	3020
839.918	2960
840.055	3020
840.193	2998
840.33	3024
840.467	3089
840.604	3173
840.742	3389
840.879	3058
841.016	3039
841.153	3100
841.29	3272
841.427	3340
841.564	3249
841.701	3306
841.838	3192
841.975	3169
842.112	3207
842.249	3066
842.385	3032
842.522	3272
842.659	3074
842.796	3051
842.933	3112
843.069	3039
843.206	3036
843.343	3176
843.479	3089
843.616	3161
843.752	2883
843.889	2864
844.025	3066
844.162	2861
844.298	3074
844.435	2971
844.571	2895
844.708	3058
844.844	3195
844.98	3180
845.117	3180
845.253	3028
845.389	2998
845.525	3047
845.661	3070
845.798	2990
845.934	3093
846.07	3051
846.206	3214
846.342	3302
846.478	3233
846.614	3051
846.75	3020
846.886	3001
847.022	3245
847.158	3123
847.294	3214
847.429	3218
847.565	3199
847.701	3500
847.837	3020
847.972	2986
848.108	3169
848.244	3119
848.379	2982
848.515	2941
848.65	2910
848.786	2944
848.921	2994
849.057	3127
849.192	3150
849.328	3055
849.463	3074
849.598	3070
849.734	3028
849.869	2952
850.004	2918
850.14	2941
850.275	2910
850.41	2834
850.545	2838
850.68	2895
850.815	2922
850.95	2975
851.085	3199
851.22	3055
851.355	2986
851.49	2963
851.625	3005
851.76	3005
851.895	2960
852.03	2914
852.165	3055
852.299	3119
852.434	3150
852.569	3161
852.703	3188
852.838	3222
852.973	3294
853.107	3302
853.242	3157
853.376	3058
853.511	2944
853.645	3039
853.78	3214
853.914	3131
854.048	3112
854.183	3051
854.317	3184
854.451	3272
854.585	3100
854.72	3097
854.854	3199
854.988	3013
855.122	3066
855.256	2963
855.39	3077
855.524	3264
855.658	3195
855.792	3169
855.926	3165
856.06	3203
856.194	3275
856.327	3146
856.461	3066
856.595	3104
856.729	3051
856.862	3195
856.996	3127
857.13	3180
857.263	3237
857.397	3233
857.53	3127
857.664	3176
857.797	3230
857.931	3268
858.064	3150
858.197	3199
858.331	3108
858.464	3100
858.597	2986
858.731	3108
858.864	3119
858.997	3062
859.13	3138
859.263	3184
859.396	3169
859.529	3070
859.662	3093
859.795	3066
859.928	3123
860.061	3264
860.194	3268
860.327	3074
860.46	3085
860.592	3226
860.725	3214
860.858	3218
860.99	3077
861.123	3024
861.256	3055
861.388	3146
861.521	3968
861.653	3001
861.786	3013
861.918	2948
862.05	3055
862.183	3077
862.315	3154
862.447	3207
862.58	3051
862.712	2929
862.844	2823
862.976	3028
863.108	3017
863.24	3431
863.372	2872
863.504	2982
863.636	2937
863.768	3074
863.9	2975
864.032	2910
864.164	2941
864.296	2963
864.428	3093
864.559	3085
864.691	3032
864.823	3070
864.954	2998
865.086	3009
865.217	2982
865.349	2960
865.48	2960
865.612	3051
865.743	3131
865.875	2979
866.006	2967
866.137	2952
866.269	2929
866.4	2918
866.531	2902
866.662	2887
866.793	2891
866.924	2880
867.055	2967
867.186	2914
867.317	2880
867.448	2819
867.579	2834
867.71	2807
867.841	2807
867.972	2914
868.103	2887
868.233	2929
868.364	2876
868.495	2883
868.625	3104
868.756	3169
868.886	2963
869.017	2952
869.147	3165
869.278	3195
869.408	3047
869.539	3017
869.669	3089
869.799	3020
869.929	3127
870.06	3093
870.19	3336
870.32	3272
870.45	3294
870.58	3370
870.71	3424
870.84	3386
870.97	3256
871.1	3176
871.23	3492
871.36	3431
871.489	3397
871.619	3382
871.749	3435
871.879	3420
872.008	3466
872.138	3359
872.267	3272
872.397	3104
872.526	3093
872.656	2998
872.785	3066
872.915	3222
873.044	3310
873.173	3199
873.303	3249
873.432	3226
873.561	3222
873.69	3138
873.819	3127
873.948	3173
874.077	3085
874.206	3047
874.335	3074
874.464	3218
874.593	3321
874.722	3237
874.851	3389
874.979	3332
875.108	3275
875.237	3203
875.365	3123
875.494	3150
875.623	3260
875.751	3119
875.88	3127
876.008	3188
876.136	3233
876.265	3378
876.393	3450
876.521	3378
876.65	3382
876.778	3298
876.906	3218
877.034	3169
877.162	3264
877.29	3142
877.418	3211
877.546	3211
877.674	3211
877.802	3203
877.93	3203
878.058	3154
878.185	3119
878.313	3211
878.441	3199
878.568	3062
878.696	3161
878.824	3230
878.951	3313
879.079	3378
879.206	3633
879.333	3420
879.461	3313
879.588	3325
879.715	3473
879.842	3584
879.97	3336
880.097	3176
880.224	3081
880.351	3150
880.478	3188
880.605	3211
880.732	3188
880.859	3450
880.986	3317
881.112	3310
881.239	3180
881.366	3081
881.493	3043
881.619	3024
881.746	3081
881.872	3066
881.999	3039
882.125	3112
882.252	3249
882.378	3260
882.505	3382
882.631	3272
882.757	3146
882.883	3188
883.01	3214
883.136	3108
883.262	3058
883.388	3112
883.514	3306
883.64	3351
883.766	3313
883.892	3214
884.018	3253
884.143	3397
884.269	3523
884.395	3214
884.52	3173
884.646	3127
884.772	3119
884.897	3085
885.023	3218
885.148	3355
885.274	3412
885.399	3321
885.524	3256
885.65	3256
885.775	3279
885.9	3260
886.025	3431
886.15	3340
886.275	3329
886.4	3245
886.525	3317
886.65	3253
886.775	3287
886.9	3466
887.025	3641
887.149	3428
887.274	3222
887.399	3203
887.523	3188
887.648	3218
887.773	3222
887.897	3405
888.021	3397
888.146	3344
888.27	3439
888.395	3549
888.519	3458
888.643	3431
888.767	3473
888.891	3344
889.015	3249
889.139	3336
889.263	3291
889.387	3462
889.511	3530
889.635	3515
889.759	3317
889.883	3348
890.006	3409
890.13	3523
890.254	3336
890.377	3393
890.501	3237
890.624	3207
890.748	3313
890.871	3226
890.995	3119
891.118	3131
891.241	3241
891.364	3253
891.488	3370
891.611	3184
891.734	3272
891.857	3329
891.98	3245
892.103	3359
892.226	3329
892.349	3256
892.471	3127
892.594	3329
892.717	3302
892.839	3287
892.962	3317
893.085	3386
893.207	3340
893.33	3192
893.452	3222
893.575	3370
893.697	3291
893.819	3492
893.941	3549
894.064	3500
894.186	3313
894.308	3332
894.43	3477
894.552	3561
894.674	3504
894.796	3291
894.918	3355
895.04	3302
895.161	3462
895.283	3428
895.405	3336
895.526	3393
895.648	3466
895.769	3481
895.891	3507
896.012	3534
896.134	3504
896.255	3450
896.376	3439
896.498	3367
896.619	3447
896.74	3386
896.861	3450
896.982	3690
897.103	3835
897.224	3644
897.345	3595
897.466	3447
897.587	3504
897.708	3652
897.828	3545
897.949	3462
898.07	3363
898.19	3405
898.311	3595
898.431	3473
898.552	3519
898.672	3595
898.792	3629
898.913	3576
899.033	3454
899.153	3306
899.273	3226
899.393	3332
899.513	3374
899.633	3336
899.753	3321
899.873	3329
899.993	3409
900.113	3359
900.232	3428
900.352	3321
900.472	3359
900.591	3218
900.711	3325
900.83	3306
900.95	3466
901.069	3523
901.189	3389
901.308	3237
901.427	3116
901.546	3230
901.665	3340
901.784	3359
901.904	3268
902.023	3176
902.141	3062
902.26	3028
902.379	3142
902.498	3116
902.617	3100
902.735	3233
902.854	3256
902.973	3207
903.091	3058
903.21	3108
903.328	3161
903.446	3150
903.565	3135
903.683	3218
903.801	3146
903.919	3253
904.038	3279
904.156	3207
904.274	3283
904.392	3272
904.51	3294
904.627	3340
904.745	3443
904.863	3538
904.981	3302
905.098	3192
905.216	3283
905.334	3351
905.451	3313
905.569	3317
905.686	3447
905.803	3439
905.921	3310
906.038	3466
906.155	3386
906.272	3313
906.389	3374
906.506	3279
906.623	3302
906.74	3298
906.857	3211
906.974	3275
907.091	3485
907.208	3599
907.324	3500
907.441	3412
907.557	3249
907.674	3268
907.79	3237
907.907	3340
908.023	3382
908.139	3389
908.256	3329
908.372	3393
908.488	3382
908.604	3310
908.72	3283
908.836	3306
908.952	3321
909.068	3329
909.184	3469
909.3	3481
909.415	3477
909.531	3526
909.647	3321
909.762	3321
909.878	3287
909.993	3397
910.108	3374
910.224	3378
910.339	3431
910.454	3355
910.57	3359
910.685	3279
910.8	3633
910.915	3561
911.03	3485
911.145	3310
911.259	3287
911.374	3351
911.489	3256
911.604	3275
911.718	3173
911.833	3138
911.947	3024
912.062	3024
912.176	3226
912.291	3218
912.405	3260
912.519	3424
912.633	3526
912.748	3355
912.862	3329
912.976	3192
913.09	3077
913.204	3154
913.318	3249
913.431	3359
913.545	3382
913.659	3420
913.772	3374
913.886	3264
914	3218
914.113	3393
914.226	3382
914.34	3412
914.453	3233
914.566	3416
914.68	3302
914.793	3329
914.906	3169
915.019	3173
915.132	3085
915.245	3256
915.358	3237
915.47	3256
915.583	3260
915.696	3317
915.809	3412
915.921	3431
916.034	3310
916.146	3294
916.259	3245
916.371	3397
916.483	3393
916.595	3291
916.708	3370
916.82	3355
916.932	3336
917.044	3351
917.156	3389
917.268	3275
917.38	3283
917.491	3332
917.603	3409
917.715	3481
917.826	3488
917.938	3386
918.049	3302
918.161	3481
918.272	3599
918.384	3599
918.495	3542
918.606	3351
918.717	3306
918.828	3401
918.939	3431
919.05	3329
919.161	3401
919.272	3207
919.383	3340
919.494	3515
919.604	3732
919.715	3519
919.826	3447
919.936	3504
920.047	3625
920.157	3603
920.267	3751
920.378	3644
920.488	3545
920.598	3808
920.708	3953
920.818	3812
920.928	3876
921.038	4010
921.148	4013
921.258	3713
921.368	3675
921.477	3591
921.587	3587
921.697	3507
921.806	3698
921.916	3519
922.025	3370
922.134	3386
922.244	3348
922.353	3469
922.462	3310
922.571	3249
922.68	3135
922.789	3138
922.898	3165
923.007	3104
923.116	3207
923.224	3207
923.333	3180
923.442	3138
923.55	3127
923.659	3150
923.767	3253
923.876	3142
923.984	3287
924.092	3138
924.201	3241
924.309	3218
924.417	3294
924.525	3214
924.633	3230
924.741	4017
924.849	3051
924.956	3310
925.064	3127
925.172	3085
925.279	3150
925.387	3245
925.494	3222
925.602	3389
925.709	3359
925.816	3253
925.924	3291
926.031	3405
926.138	3310
926.245	3367
926.352	3279
926.459	3428
926.566	3488
926.673	3340
926.779	3313
926.886	3256
926.993	3169
927.099	3161
927.206	3131
927.312	3116
927.419	3253
927.525	3169
927.631	3264
927.737	3138
927.843	3127
927.95	3047
928.056	3135
928.162	3169
928.267	3275
928.373	3732
928.479	3332
928.585	3066
928.69	3241
928.796	3298
928.901	3195
929.007	3070
929.112	3268
929.218	3195
929.323	3165
929.428	3176
929.533	3344
929.638	3195
929.743	3203
929.848	3287
929.953	3245
930.058	3192
930.163	3024
930.267	3077
930.372	3203
930.477	3039
930.581	3306
930.685	3203
930.79	3066
930.894	3097
930.998	3127
931.103	3302
931.207	2975
931.311	2963
931.415	2956
931.519	2785
931.623	2849
