Data from test_V78500241_1548.txt Node
Date: Fri Mar 25 16:25:55 CST 2022
User: usil
Spectrometer: V785-0024
Trigger mode: 0
Integration Time (sec): 4.000000E-1
Scans to average: 1
Nonlinearity correction enabled: false
Boxcar width: 0
Storing dark spectrum: false
XAxis mode: Wavelengths
Number of Pixels in Spectrum: 1024
>>>>>Begin Spectral Data<<<<<
801.071	2922
801.214	2944
801.356	2830
801.499	2952
801.641	2880
801.783	2925
801.926	3036
802.068	3001
802.211	3028
802.353	3020
802.496	2944
802.638	3020
802.78	3062
802.923	3085
803.065	3013
803.208	2910
803.35	2937
803.492	2979
803.635	2960
803.777	2777
803.919	2883
804.061	3218
804.204	2986
804.346	2918
804.488	2815
804.63	3020
804.773	2887
804.915	2918
805.057	3097
805.199	2956
805.341	3032
805.483	3051
805.626	3009
805.768	2982
805.91	3131
806.052	3138
806.194	3089
806.336	3275
806.478	3070
806.62	2956
806.762	3001
806.904	3089
807.046	3161
807.188	2990
807.33	2952
807.472	2998
807.614	2929
807.756	3047
807.898	2952
808.04	2975
808.182	2956
808.324	3032
808.465	2880
808.607	2887
808.749	2830
808.891	2876
809.033	3028
809.174	2994
809.316	2929
809.458	2944
809.6	2834
809.741	2777
809.883	2796
810.025	2876
810.166	2906
810.308	2895
810.45	2883
810.591	2785
810.733	2769
810.875	2891
811.016	2857
811.158	2826
811.299	2880
811.441	2952
811.582	2914
811.724	2876
811.865	2849
812.007	2975
812.148	2910
812.29	2864
812.431	2902
812.573	2982
812.714	2979
812.855	3070
812.997	3055
813.138	3138
813.279	3070
813.421	3020
813.562	2956
813.703	2887
813.845	2925
813.986	2781
814.127	2766
814.268	2906
814.41	2914
814.551	2853
814.692	2872
814.833	2834
814.974	2925
815.115	2994
815.256	2853
815.397	2811
815.539	2933
815.68	2792
815.821	2796
815.962	2971
816.103	2967
816.244	2941
816.385	2899
816.526	3017
816.666	2967
816.807	2781
816.948	2910
817.089	2998
817.23	2899
817.371	2807
817.512	2807
817.653	2868
817.793	2891
817.934	2952
818.075	3032
818.216	2956
818.356	3070
818.497	2922
818.638	2807
818.778	2853
818.919	2830
819.06	2754
819.2	2906
819.341	2819
819.481	2819
819.622	2937
819.762	3097
819.903	3062
820.043	2933
820.184	2952
820.324	2922
820.465	3032
820.605	3047
820.746	3077
820.886	2933
821.026	3131
821.167	3157
821.307	3264
821.447	3306
821.588	3245
821.728	3214
821.868	3260
822.008	3066
822.149	3192
822.289	3260
822.429	3142
822.569	3123
822.709	3207
822.849	2998
822.99	3093
823.13	3176
823.27	3211
823.41	3146
823.55	3150
823.69	3165
823.83	3207
823.97	3119
824.11	3036
824.25	3009
824.389	3089
824.529	3169
824.669	3123
824.809	3211
824.949	3287
825.089	3233
825.228	3203
825.368	3047
825.508	2971
825.648	2994
825.787	3032
825.927	3051
826.067	3017
826.206	2990
826.346	3066
826.485	3127
826.625	3135
826.765	3272
826.904	3218
827.044	3032
827.183	2971
827.323	2887
827.462	3020
827.601	2960
827.741	2975
827.88	2960
828.02	2861
828.159	3017
828.298	3070
828.437	3146
828.577	3062
828.716	3298
828.855	3097
828.994	2948
829.134	2899
829.273	2963
829.412	2891
829.551	2895
829.69	2952
829.829	3001
829.968	3161
830.107	3066
830.246	3058
830.385	2963
830.524	2906
830.663	2838
830.802	2762
830.941	2693
831.08	2670
831.219	2746
831.357	2785
831.496	2963
831.635	2746
831.774	2701
831.913	2674
832.051	2564
832.19	2590
832.329	2716
832.467	2564
832.606	2533
832.744	2587
832.883	2602
833.022	2632
833.16	2644
833.299	2693
833.437	2697
833.576	2727
833.714	2731
833.852	2773
833.991	2781
834.129	2861
834.267	2883
834.406	2830
834.544	2902
834.682	2880
834.821	2883
834.959	3055
835.097	2902
835.235	3062
835.373	3039
835.511	3039
835.65	2952
835.788	2979
835.926	2864
836.064	2807
836.202	2849
836.34	3116
836.478	3184
836.615	3043
836.753	3169
836.891	3245
837.029	3150
837.167	3123
837.305	3043
837.443	3070
837.58	2967
837.718	3154
837.856	3097
837.993	3043
838.131	3123
838.269	3146
838.406	3104
838.544	3089
838.681	2971
838.819	2933
838.956	2830
839.094	2849
839.231	2922
839.369	3062
839.506	3424
839.643	3226
839.781	3017
839.918	2971
840.055	3074
840.193	3066
840.33	3070
840.467	3131
840.604	3157
840.742	3420
840.879	3085
841.016	3058
841.153	3104
841.29	3298
841.427	3355
841.564	3256
841.701	3313
841.838	3226
841.975	3211
842.112	3214
842.249	3116
842.385	3051
842.522	3260
842.659	3116
842.796	3066
842.933	3112
843.069	3043
843.206	3058
843.343	3207
843.479	3108
843.616	3135
843.752	2872
843.889	2876
844.025	3093
844.162	2868
844.298	3100
844.435	2975
844.571	2971
844.708	3097
844.844	3173
844.98	3260
845.117	3218
845.253	3070
845.389	3028
845.525	3108
845.661	3093
845.798	3039
845.934	3116
846.07	3093
846.206	3226
846.342	3351
846.478	3222
846.614	3081
846.75	3051
846.886	3043
847.022	3222
847.158	3180
847.294	3241
847.429	3256
847.565	3222
847.701	3504
847.837	3032
847.972	3043
848.108	3154
848.244	3157
848.379	3032
848.515	2971
848.65	2941
848.786	2979
848.921	3047
849.057	3135
849.192	3188
849.328	3112
849.463	3104
849.598	3123
849.734	3028
849.869	2994
850.004	2883
850.14	2956
850.275	2929
850.41	2819
850.545	2922
850.68	2937
850.815	2937
850.95	2994
851.085	3184
851.22	3116
851.355	3036
851.49	2990
851.625	3017
851.76	3051
851.895	2941
852.03	2956
852.165	3074
852.299	3142
852.434	3199
852.569	3165
852.703	3188
852.838	3275
852.973	3332
853.107	3363
853.242	3173
853.376	3070
853.511	3005
853.645	3062
853.78	3249
853.914	3138
854.048	3146
854.183	3085
854.317	3157
854.451	3302
854.585	3123
854.72	3135
854.854	3253
854.988	3043
855.122	3085
855.256	2963
855.39	3135
855.524	3245
855.658	3173
855.792	3123
855.926	3180
856.06	3226
856.194	3264
856.327	3207
856.461	3077
856.595	3112
856.729	3070
856.862	3226
856.996	3142
857.13	3192
857.263	3237
857.397	3317
857.53	3108
857.664	3203
857.797	3233
857.931	3253
858.064	3207
858.197	3249
858.331	3135
858.464	3138
858.597	3028
858.731	3150
858.864	3154
858.997	3097
859.13	3173
859.263	3138
859.396	3249
859.529	3070
859.662	3097
859.795	3055
859.928	3146
860.061	3264
860.194	3302
860.327	3150
860.46	3066
860.592	3230
860.725	3256
860.858	3264
860.99	3100
861.123	3081
861.256	3062
861.388	3203
861.521	3968
861.653	3051
861.786	3036
861.918	3032
862.05	3051
862.183	3100
862.315	3169
862.447	3211
862.58	3138
862.712	2956
862.844	2895
862.976	3043
863.108	3001
863.24	3294
863.372	2872
863.504	2994
863.636	2979
863.768	3039
863.9	3028
864.032	2891
864.164	2933
864.296	3055
864.428	3131
864.559	3104
864.691	3081
864.823	3077
864.954	3036
865.086	3058
865.217	3020
865.349	2975
865.48	3001
865.612	3024
865.743	3146
865.875	2956
866.006	2914
866.137	2963
866.269	2933
866.4	2933
866.531	2941
866.662	2902
866.793	2895
866.924	2914
867.055	3013
867.186	2906
867.317	2880
867.448	2838
867.579	2883
867.71	2838
867.841	2819
867.972	2906
868.103	2910
868.233	2872
868.364	2857
868.495	2918
868.625	3108
868.756	3195
868.886	2986
869.017	3032
869.147	3150
869.278	3150
869.408	3039
869.539	3032
869.669	3108
869.799	3036
869.929	3146
870.06	3119
870.19	3336
870.32	3283
870.45	3313
870.58	3336
870.71	3431
870.84	3458
870.97	3325
871.1	3260
871.23	3469
871.36	3515
871.489	3389
871.619	3420
871.749	3428
871.879	3447
872.008	3500
872.138	3363
872.267	3287
872.397	3180
872.526	3119
872.656	2979
872.785	3093
872.915	3241
873.044	3355
873.173	3230
873.303	3275
873.432	3260
873.561	3222
873.69	3165
873.819	3150
873.948	3192
874.077	3097
874.206	3055
874.335	3108
874.464	3233
874.593	3374
874.722	3222
874.851	3435
874.979	3355
875.108	3325
875.237	3154
875.365	3176
875.494	3173
875.623	3256
875.751	3081
875.88	3104
876.008	3184
876.136	3222
876.265	3363
876.393	3469
876.521	3439
876.65	3367
876.778	3310
876.906	3268
877.034	3199
877.162	3260
877.29	3180
877.418	3260
877.546	3245
877.674	3241
877.802	3256
877.93	3222
878.058	3142
878.185	3104
878.313	3214
878.441	3203
878.568	3055
878.696	3138
878.824	3226
878.951	3325
879.079	3439
879.206	3633
879.333	3435
879.461	3329
879.588	3367
879.715	3485
879.842	3576
879.97	3355
880.097	3161
880.224	3169
880.351	3176
880.478	3241
880.605	3180
880.732	3199
880.859	3530
880.986	3355
881.112	3344
881.239	3230
881.366	3097
881.493	3062
881.619	3020
881.746	3077
881.872	3116
881.999	3097
882.125	3123
882.252	3241
882.378	3302
882.505	3382
882.631	3306
882.757	3154
882.883	3214
883.01	3233
883.136	3176
883.262	3104
883.388	3093
883.514	3317
883.64	3367
883.766	3317
883.892	3207
884.018	3260
884.143	3374
884.269	3545
884.395	3207
884.52	3188
884.646	3188
884.772	3108
884.897	3138
885.023	3192
885.148	3340
885.274	3405
885.399	3355
885.524	3291
885.65	3260
885.775	3283
885.9	3321
886.025	3435
886.15	3344
886.275	3298
886.4	3241
886.525	3294
886.65	3268
886.775	3287
886.9	3492
887.025	3633
887.149	3405
887.274	3245
887.399	3176
887.523	3211
887.648	3188
887.773	3195
887.897	3370
888.021	3386
888.146	3313
888.27	3454
888.395	3485
888.519	3439
888.643	3424
888.767	3485
888.891	3291
889.015	3199
889.139	3294
889.263	3245
889.387	3393
889.511	3515
889.635	3431
889.759	3283
889.883	3275
890.006	3401
890.13	3507
890.254	3275
890.377	3329
890.501	3207
890.624	3192
890.748	3306
890.871	3173
890.995	3104
891.118	3062
891.241	3169
891.364	3207
891.488	3313
891.611	3150
891.734	3245
891.857	3287
891.98	3260
892.103	3313
892.226	3230
892.349	3184
892.471	3135
892.594	3195
892.717	3294
892.839	3287
892.962	3302
893.085	3370
893.207	3306
893.33	3138
893.452	3226
893.575	3344
893.697	3253
893.819	3492
893.941	3530
894.064	3500
894.186	3256
894.308	3260
894.43	3435
894.552	3515
894.674	3462
894.796	3313
894.918	3332
895.04	3283
895.161	3420
895.283	3405
895.405	3329
895.526	3359
895.648	3420
895.769	3401
895.891	3447
896.012	3469
896.134	3496
896.255	3409
896.376	3378
896.498	3370
896.619	3428
896.74	3355
896.861	3409
896.982	3667
897.103	3873
897.224	3568
897.345	3511
897.466	3412
897.587	3507
897.708	3610
897.828	3553
897.949	3458
898.07	3329
898.19	3412
898.311	3595
898.431	3462
898.552	3545
898.672	3564
898.792	3564
898.913	3530
899.033	3405
899.153	3283
899.273	3188
899.393	3313
899.513	3321
899.633	3344
899.753	3329
899.873	3302
899.993	3374
900.113	3329
900.232	3393
900.352	3340
900.472	3302
900.591	3157
900.711	3275
900.83	3253
900.95	3393
901.069	3450
901.189	3370
901.308	3176
901.427	3142
901.546	3192
901.665	3317
901.784	3325
901.904	3199
902.023	3157
902.141	3028
902.26	2963
902.379	3138
902.498	3066
902.617	3074
902.735	3233
902.854	3207
902.973	3199
903.091	3028
903.21	3081
903.328	3108
903.446	3104
903.565	3123
903.683	3180
903.801	3116
903.919	3241
904.038	3249
904.156	3127
904.274	3302
904.392	3218
904.51	3291
904.627	3359
904.745	3420
904.863	3485
904.981	3241
905.098	3150
905.216	3241
905.334	3272
905.451	3306
905.569	3310
905.686	3401
905.803	3458
905.921	3317
906.038	3431
906.155	3294
906.272	3291
906.389	3317
906.506	3218
906.623	3222
906.74	3279
906.857	3184
906.974	3275
907.091	3458
907.208	3568
907.324	3481
907.441	3317
907.557	3192
907.674	3218
907.79	3176
907.907	3291
908.023	3401
908.139	3378
908.256	3298
908.372	3386
908.488	3340
908.604	3260
908.72	3237
908.836	3230
908.952	3275
909.068	3291
909.184	3454
909.3	3401
909.415	3504
909.531	3485
909.647	3268
909.762	3268
909.878	3222
909.993	3370
910.108	3340
910.224	3329
910.339	3397
910.454	3310
910.57	3310
910.685	3222
910.8	3580
910.915	3515
911.03	3420
911.145	3268
911.259	3294
911.374	3294
911.489	3260
911.604	3222
911.718	3165
911.833	3142
911.947	3017
912.062	2982
912.176	3180
912.291	3195
912.405	3222
912.519	3431
912.633	3458
912.748	3344
912.862	3264
912.976	3173
913.09	3074
913.204	3131
913.318	3203
913.431	3351
913.545	3344
913.659	3401
913.772	3336
913.886	3211
914	3211
914.113	3374
914.226	3420
914.34	3367
914.453	3222
914.566	3397
914.68	3275
914.793	3310
914.906	3142
915.019	3104
915.132	3100
915.245	3180
915.358	3222
915.47	3237
915.583	3256
915.696	3260
915.809	3397
915.921	3462
916.034	3279
916.146	3249
916.259	3218
916.371	3401
916.483	3329
916.595	3268
916.708	3325
916.82	3382
916.932	3317
917.044	3348
917.156	3344
917.268	3253
917.38	3287
917.491	3298
917.603	3363
917.715	3424
917.826	3454
917.938	3367
918.049	3287
918.161	3428
918.272	3572
918.384	3549
918.495	3496
918.606	3332
918.717	3291
918.828	3397
918.939	3401
919.05	3310
919.161	3370
919.272	3150
919.383	3245
919.494	3466
919.604	3694
919.715	3477
919.826	3348
919.936	3447
920.047	3564
920.157	3492
920.267	3694
920.378	3595
920.488	3561
920.598	3804
920.708	3953
920.818	3800
920.928	3827
921.038	4010
921.148	3968
921.258	3698
921.368	3614
921.477	3538
921.587	3542
921.697	3466
921.806	3690
921.916	3564
922.025	3367
922.134	3313
922.244	3310
922.353	3386
922.462	3268
922.571	3249
922.68	3074
922.789	3085
922.898	3097
923.007	3097
923.116	3211
923.224	3157
923.333	3180
923.442	3112
923.55	3127
923.659	3119
923.767	3233
923.876	3097
923.984	3211
924.092	3093
924.201	3192
924.309	3218
924.417	3226
924.525	3192
924.633	3233
924.741	4101
924.849	3017
924.956	3264
925.064	3051
925.172	3036
925.279	3097
925.387	3214
925.494	3188
925.602	3340
925.709	3310
925.816	3188
925.924	3275
926.031	3382
926.138	3302
926.245	3344
926.352	3256
926.459	3420
926.566	3466
926.673	3313
926.779	3237
926.886	3237
926.993	3116
927.099	3100
927.206	3089
927.312	3123
927.419	3218
927.525	3157
927.631	3283
927.737	3138
927.843	3131
927.95	3013
928.056	3119
928.162	3176
928.267	3245
928.373	3759
928.479	3298
928.585	3062
928.69	3218
928.796	3233
928.901	3188
929.007	3013
929.112	3211
929.218	3138
929.323	3142
929.428	3123
929.533	3340
929.638	3135
929.743	3169
929.848	3256
929.953	3214
930.058	3146
930.163	3013
930.267	3024
930.372	3176
930.477	3039
930.581	3340
930.685	3176
930.79	3070
930.894	3108
930.998	3093
931.103	3264
931.207	3001
931.311	2952
931.415	2887
931.519	2781
931.623	2826
