Data from test_V78500241_279.txt Node
Date: Fri Mar 25 16:17:08 CST 2022
User: usil
Spectrometer: V785-0024
Trigger mode: 0
Integration Time (sec): 4.000000E-1
Scans to average: 1
Nonlinearity correction enabled: false
Boxcar width: 0
Storing dark spectrum: false
XAxis mode: Wavelengths
Number of Pixels in Spectrum: 1024
>>>>>Begin Spectral Data<<<<<
801.071	2998
801.214	2990
801.356	2899
801.499	2979
801.641	2925
801.783	2998
801.926	3104
802.068	3001
802.211	3024
802.353	3081
802.496	2990
802.638	3066
802.78	3077
802.923	3131
803.065	3089
803.208	2933
803.35	2948
803.492	2963
803.635	2967
803.777	2811
803.919	2918
804.061	3237
804.204	3001
804.346	2956
804.488	2872
804.63	3028
804.773	2929
804.915	2979
805.057	3123
805.199	2982
805.341	2956
805.483	3077
805.626	2994
805.768	2990
805.91	3097
806.052	3142
806.194	3058
806.336	3264
806.478	3062
806.62	3009
806.762	3028
806.904	3093
807.046	3203
807.188	2975
807.33	2933
807.472	3058
807.614	2925
807.756	2998
807.898	2963
808.04	2929
808.182	3001
808.324	2982
808.465	2952
808.607	2899
808.749	2883
808.891	2883
809.033	3013
809.174	3020
809.316	2906
809.458	2922
809.6	2788
809.741	2815
809.883	2769
810.025	2861
810.166	2872
810.308	2861
810.45	2899
810.591	2834
810.733	2800
810.875	2899
811.016	2823
811.158	2773
811.299	2830
811.441	2937
811.582	2948
811.724	2861
811.865	2868
812.007	2918
812.148	2922
812.29	2910
812.431	2948
812.573	2975
812.714	2952
812.855	3047
812.997	3066
813.138	3127
813.279	3032
813.421	3005
813.562	2986
813.703	2899
813.845	2910
813.986	2819
814.127	2743
814.268	2853
814.41	2899
814.551	2819
814.692	2906
814.833	2834
814.974	2891
815.115	2948
815.256	2849
815.397	2857
815.539	2880
815.68	2800
815.821	2819
815.962	2967
816.103	2952
816.244	2929
816.385	2880
816.526	2990
816.666	2960
816.807	2781
816.948	2902
817.089	2967
817.23	2887
817.371	2826
817.512	2830
817.653	2849
817.793	2891
817.934	2883
818.075	2960
818.216	2979
818.356	3066
818.497	2925
818.638	2800
818.778	2857
818.919	2800
819.06	2800
819.2	2948
819.341	2830
819.481	2815
819.622	2937
819.762	3131
819.903	3070
820.043	2982
820.184	2944
820.324	2937
820.465	3055
820.605	3051
820.746	3032
820.886	2998
821.026	3112
821.167	3214
821.307	3264
821.447	3310
821.588	3256
821.728	3203
821.868	3253
822.008	3127
822.149	3237
822.289	3264
822.429	3142
822.569	3127
822.709	3199
822.849	3047
822.99	3093
823.13	3180
823.27	3195
823.41	3138
823.55	3180
823.69	3116
823.83	3211
823.97	3131
824.11	3001
824.25	3036
824.389	3055
824.529	3131
824.669	3116
824.809	3279
824.949	3264
825.089	3230
825.228	3188
825.368	3024
825.508	3001
825.648	3005
825.787	3009
825.927	3077
826.067	2967
826.206	3013
826.346	3039
826.485	3100
826.625	3116
826.765	3253
826.904	3230
827.044	3032
827.183	2967
827.323	2899
827.462	3013
827.601	2956
827.741	2960
827.88	2982
828.02	2891
828.159	2982
828.298	3074
828.437	3066
828.577	3097
828.716	3298
828.855	3131
828.994	2929
829.134	2906
829.273	2933
829.412	2883
829.551	2910
829.69	2902
829.829	3039
829.968	3161
830.107	3039
830.246	3077
830.385	2948
830.524	2944
830.663	2876
830.802	2731
830.941	2670
831.08	2670
831.219	2796
831.357	2804
831.496	2952
831.635	2762
831.774	2670
831.913	2701
832.051	2590
832.19	2606
832.329	2716
832.467	2575
832.606	2503
832.744	2625
832.883	2598
833.022	2629
833.16	2667
833.299	2743
833.437	2701
833.576	2735
833.714	2727
833.852	2754
833.991	2781
834.129	2883
834.267	2864
834.406	2792
834.544	2864
834.682	2883
834.821	2895
834.959	3138
835.097	2922
835.235	3081
835.373	3028
835.511	3051
835.65	2982
835.788	2971
835.926	2883
836.064	2830
836.202	2868
836.34	3097
836.478	3165
836.615	3055
836.753	3157
836.891	3237
837.029	3173
837.167	3146
837.305	3112
837.443	3024
837.58	2986
837.718	3192
837.856	3058
837.993	3070
838.131	3119
838.269	3123
838.406	3131
838.544	3116
838.681	2967
838.819	2963
838.956	2857
839.094	2857
839.231	2925
839.369	3077
839.506	3397
839.643	3230
839.781	3070
839.918	2952
840.055	3043
840.193	3062
840.33	3093
840.467	3077
840.604	3157
840.742	3405
840.879	3077
841.016	3074
841.153	3123
841.29	3370
841.427	3355
841.564	3264
841.701	3321
841.838	3230
841.975	3207
842.112	3230
842.249	3062
842.385	3055
842.522	3283
842.659	3104
842.796	3032
842.933	3150
843.069	3074
843.206	3062
843.343	3214
843.479	3112
843.616	3169
843.752	2933
843.889	2887
844.025	3100
844.162	2895
844.298	3116
844.435	2956
844.571	2963
844.708	3119
844.844	3226
844.98	3241
845.117	3199
845.253	3089
845.389	3001
845.525	3119
845.661	3097
845.798	3032
845.934	3104
846.07	3058
846.206	3245
846.342	3336
846.478	3233
846.614	3169
846.75	3047
846.886	3051
847.022	3283
847.158	3127
847.294	3230
847.429	3241
847.565	3199
847.701	3504
847.837	3051
847.972	3028
848.108	3161
848.244	3138
848.379	3036
848.515	2986
848.65	2933
848.786	2986
848.921	3043
849.057	3131
849.192	3188
849.328	3070
849.463	3116
849.598	3070
849.734	3081
849.869	2975
850.004	2937
850.14	2998
850.275	2960
850.41	2853
850.545	2906
850.68	2937
850.815	2956
850.95	3013
851.085	3195
851.22	3108
851.355	3062
851.49	2982
851.625	3013
851.76	3028
851.895	2944
852.03	2906
852.165	3062
852.299	3108
852.434	3195
852.569	3157
852.703	3203
852.838	3249
852.973	3344
853.107	3306
853.242	3165
853.376	3097
853.511	2979
853.645	3100
853.78	3245
853.914	3154
854.048	3127
854.183	3089
854.317	3138
854.451	3321
854.585	3150
854.72	3097
854.854	3237
854.988	3062
855.122	3116
855.256	2998
855.39	3123
855.524	3256
855.658	3195
855.792	3199
855.926	3199
856.06	3268
856.194	3298
856.327	3165
856.461	3093
856.595	3066
856.729	3123
856.862	3207
856.996	3165
857.13	3207
857.263	3245
857.397	3313
857.53	3142
857.664	3211
857.797	3245
857.931	3256
858.064	3188
858.197	3226
858.331	3123
858.464	3085
858.597	3051
858.731	3150
858.864	3135
858.997	3108
859.13	3169
859.263	3207
859.396	3218
859.529	3104
859.662	3066
859.795	3043
859.928	3131
860.061	3302
860.194	3302
860.327	3146
860.46	3112
860.592	3260
860.725	3253
860.858	3253
860.99	3093
861.123	3047
861.256	3074
861.388	3195
861.521	3854
861.653	3032
861.786	2990
861.918	3020
862.05	3074
862.183	3104
862.315	3150
862.447	3199
862.58	3070
862.712	2956
862.844	2891
862.976	3001
863.108	3024
863.24	3336
863.372	2857
863.504	2979
863.636	2963
863.768	3032
863.9	3009
864.032	2937
864.164	2963
864.296	3028
864.428	3070
864.559	3089
864.691	3058
864.823	3077
864.954	3066
865.086	3093
865.217	3043
865.349	2944
865.48	2986
865.612	3001
865.743	3135
865.875	3017
866.006	2975
866.137	3036
866.269	2944
866.4	2971
866.531	2971
866.662	2902
866.793	2895
866.924	2937
867.055	2990
867.186	2929
867.317	2861
867.448	2838
867.579	2861
867.71	2864
867.841	2834
867.972	2922
868.103	2902
868.233	2883
868.364	2876
868.495	2937
868.625	3081
868.756	3199
868.886	2982
869.017	3032
869.147	3176
869.278	3161
869.408	3028
869.539	3028
869.669	3055
869.799	3074
869.929	3119
870.06	3119
870.19	3359
870.32	3283
870.45	3291
870.58	3405
870.71	3469
870.84	3450
870.97	3272
871.1	3241
871.23	3488
871.36	3488
871.489	3363
871.619	3397
871.749	3447
871.879	3420
872.008	3507
872.138	3355
872.267	3260
872.397	3131
872.526	3093
872.656	3024
872.785	3093
872.915	3260
873.044	3336
873.173	3275
873.303	3214
873.432	3253
873.561	3237
873.69	3195
873.819	3112
873.948	3214
874.077	3123
874.206	3070
874.335	3081
874.464	3203
874.593	3382
874.722	3256
874.851	3401
874.979	3393
875.108	3302
875.237	3192
875.365	3211
875.494	3138
875.623	3287
875.751	3112
875.88	3123
876.008	3169
876.136	3214
876.265	3397
876.393	3549
876.521	3443
876.65	3389
876.778	3321
876.906	3291
877.034	3192
877.162	3230
877.29	3184
877.418	3226
877.546	3233
877.674	3241
877.802	3233
877.93	3226
878.058	3127
878.185	3123
878.313	3214
878.441	3268
878.568	3104
878.696	3184
878.824	3230
878.951	3275
879.079	3466
879.206	3641
879.333	3412
879.461	3348
879.588	3401
879.715	3485
879.842	3591
879.97	3389
880.097	3157
880.224	3169
880.351	3173
880.478	3207
880.605	3233
880.732	3161
880.859	3485
880.986	3321
881.112	3325
881.239	3214
881.366	3097
881.493	3043
881.619	3058
881.746	3062
881.872	3058
881.999	3108
882.125	3154
882.252	3218
882.378	3287
882.505	3447
882.631	3317
882.757	3123
882.883	3222
883.01	3173
883.136	3218
883.262	3119
883.388	3093
883.514	3317
883.64	3363
883.766	3287
883.892	3188
884.018	3253
884.143	3401
884.269	3530
884.395	3203
884.52	3180
884.646	3161
884.772	3154
884.897	3131
885.023	3214
885.148	3344
885.274	3439
885.399	3367
885.524	3275
885.65	3283
885.775	3321
885.9	3302
886.025	3435
886.15	3370
886.275	3306
886.4	3176
886.525	3321
886.65	3241
886.775	3283
886.9	3519
887.025	3671
887.149	3397
887.274	3249
887.399	3165
887.523	3226
887.648	3188
887.773	3188
887.897	3393
888.021	3397
888.146	3348
888.27	3450
888.395	3526
888.519	3401
888.643	3439
888.767	3485
888.891	3313
889.015	3253
889.139	3272
889.263	3256
889.387	3405
889.511	3523
889.635	3466
889.759	3245
889.883	3306
890.006	3393
890.13	3511
890.254	3310
890.377	3359
890.501	3203
890.624	3195
890.748	3287
890.871	3207
890.995	3161
891.118	3058
891.241	3195
891.364	3230
891.488	3329
891.611	3150
891.734	3264
891.857	3283
891.98	3230
892.103	3340
892.226	3291
892.349	3218
892.471	3138
892.594	3283
892.717	3317
892.839	3233
892.962	3283
893.085	3378
893.207	3317
893.33	3165
893.452	3237
893.575	3355
893.697	3241
893.819	3439
893.941	3496
894.064	3447
894.186	3253
894.308	3302
894.43	3443
894.552	3564
894.674	3462
894.796	3245
894.918	3344
895.04	3275
895.161	3420
895.283	3420
895.405	3294
895.526	3378
895.648	3473
895.769	3431
895.891	3473
896.012	3477
896.134	3462
896.255	3454
896.376	3416
896.498	3332
896.619	3462
896.74	3348
896.861	3424
896.982	3717
897.103	3846
897.224	3549
897.345	3519
897.466	3420
897.587	3500
897.708	3591
897.828	3561
897.949	3469
898.07	3363
898.19	3370
898.311	3572
898.431	3412
898.552	3549
898.672	3591
898.792	3564
898.913	3492
899.033	3447
899.153	3310
899.273	3195
899.393	3268
899.513	3367
899.633	3279
899.753	3321
899.873	3329
899.993	3355
900.113	3317
900.232	3363
900.352	3363
900.472	3325
900.591	3203
900.711	3294
900.83	3272
900.95	3412
901.069	3481
901.189	3370
901.308	3161
901.427	3123
901.546	3180
901.665	3291
901.784	3298
901.904	3214
902.023	3150
902.141	2998
902.26	2998
902.379	3127
902.498	3077
902.617	3043
902.735	3230
902.854	3264
902.973	3211
903.091	3077
903.21	3089
903.328	3169
903.446	3123
903.565	3135
903.683	3226
903.801	3104
903.919	3203
904.038	3264
904.156	3173
904.274	3294
904.392	3275
904.51	3317
904.627	3325
904.745	3420
904.863	3496
904.981	3256
905.098	3195
905.216	3203
905.334	3321
905.451	3298
905.569	3344
905.686	3416
905.803	3450
905.921	3291
906.038	3458
906.155	3351
906.272	3283
906.389	3344
906.506	3237
906.623	3268
906.74	3283
906.857	3199
906.974	3249
907.091	3454
907.208	3545
907.324	3458
907.441	3363
907.557	3260
907.674	3226
907.79	3192
907.907	3291
908.023	3367
908.139	3351
908.256	3317
908.372	3386
908.488	3367
908.604	3237
908.72	3230
908.836	3302
908.952	3294
909.068	3283
909.184	3507
909.3	3397
909.415	3500
909.531	3466
909.647	3272
909.762	3313
909.878	3241
909.993	3363
910.108	3321
910.224	3321
910.339	3420
910.454	3367
910.57	3291
910.685	3260
910.8	3591
910.915	3572
911.03	3492
911.145	3283
911.259	3272
911.374	3306
911.489	3218
911.604	3211
911.718	3093
911.833	3123
911.947	3039
912.062	2986
912.176	3157
912.291	3211
912.405	3165
912.519	3424
912.633	3477
912.748	3329
912.862	3302
912.976	3188
913.09	3066
913.204	3161
913.318	3218
913.431	3313
913.545	3336
913.659	3424
913.772	3359
913.886	3230
914	3188
914.113	3332
914.226	3420
914.34	3393
914.453	3207
914.566	3439
914.68	3287
914.793	3329
914.906	3157
915.019	3146
915.132	3043
915.245	3150
915.358	3199
915.47	3211
915.583	3233
915.696	3317
915.809	3370
915.921	3485
916.034	3241
916.146	3253
916.259	3222
916.371	3382
916.483	3374
916.595	3283
916.708	3332
916.82	3332
916.932	3359
917.044	3393
917.156	3386
917.268	3291
917.38	3310
917.491	3241
917.603	3355
917.715	3447
917.826	3496
917.938	3389
918.049	3291
918.161	3454
918.272	3545
918.384	3561
918.495	3557
918.606	3329
918.717	3287
918.828	3370
918.939	3344
919.05	3272
919.161	3382
919.272	3195
919.383	3329
919.494	3496
919.604	3679
919.715	3507
919.826	3412
919.936	3454
920.047	3603
920.157	3557
920.267	3770
920.378	3610
920.488	3587
920.598	3755
920.708	3956
920.818	3812
920.928	3823
921.038	4040
921.148	3994
921.258	3690
921.368	3629
921.477	3580
921.587	3526
921.697	3458
921.806	3656
921.916	3507
922.025	3355
922.134	3359
922.244	3325
922.353	3389
922.462	3291
922.571	3226
922.68	3116
922.789	3081
922.898	3127
923.007	3131
923.116	3214
923.224	3173
923.333	3203
923.442	3104
923.55	3081
923.659	3127
923.767	3211
923.876	3119
923.984	3203
924.092	3085
924.201	3218
924.309	3214
924.417	3294
924.525	3161
924.633	3256
924.741	4185
924.849	3028
924.956	3260
925.064	3047
925.172	3070
925.279	3108
925.387	3199
925.494	3184
925.602	3393
925.709	3321
925.816	3169
925.924	3283
926.031	3416
926.138	3329
926.245	3336
926.352	3249
926.459	3420
926.566	3492
926.673	3310
926.779	3237
926.886	3203
926.993	3150
927.099	3123
927.206	3081
927.312	3123
927.419	3237
927.525	3230
927.631	3272
927.737	3146
927.843	3123
927.95	2998
928.056	3146
928.162	3165
928.267	3226
928.373	3861
928.479	3298
928.585	3089
928.69	3184
928.796	3272
928.901	3154
929.007	3036
929.112	3222
929.218	3169
929.323	3173
929.428	3138
929.533	3329
929.638	3135
929.743	3173
929.848	3218
929.953	3237
930.058	3142
930.163	3020
930.267	3066
930.372	3192
930.477	3028
930.581	3306
930.685	3157
930.79	3081
930.894	3108
930.998	3108
931.103	3256
931.207	2929
931.311	2971
931.415	2941
931.519	2777
931.623	2804
