Data from test_V78500241_1902.txt Node
Date: Fri Mar 25 16:28:22 CST 2022
User: usil
Spectrometer: V785-0024
Trigger mode: 0
Integration Time (sec): 4.000000E-1
Scans to average: 1
Nonlinearity correction enabled: false
Boxcar width: 0
Storing dark spectrum: false
XAxis mode: Wavelengths
Number of Pixels in Spectrum: 1024
>>>>>Begin Spectral Data<<<<<
801.071	2925
801.214	2979
801.356	2883
801.499	2937
801.641	2906
801.783	2971
801.926	3058
802.068	2975
802.211	3036
802.353	3093
802.496	3017
802.638	3043
802.78	3066
802.923	3123
803.065	3036
803.208	2922
803.35	2963
803.492	2975
803.635	2937
803.777	2781
803.919	2861
804.061	3188
804.204	2994
804.346	2887
804.488	2857
804.63	3020
804.773	2899
804.915	2925
805.057	3097
805.199	2952
805.341	2990
805.483	3051
805.626	2998
805.768	2975
805.91	3070
806.052	3119
806.194	3028
806.336	3260
806.478	3066
806.62	2956
806.762	2990
806.904	3089
807.046	3207
807.188	3013
807.33	2944
807.472	2975
807.614	2944
807.756	3013
807.898	2929
808.04	2918
808.182	2990
808.324	2975
808.465	2910
808.607	2918
808.749	2800
808.891	2834
809.033	2948
809.174	2910
809.316	2883
809.458	2899
809.6	2834
809.741	2804
809.883	2796
810.025	2864
810.166	2906
810.308	2864
810.45	2895
810.591	2807
810.733	2792
810.875	2853
811.016	2796
811.158	2777
811.299	2792
811.441	2895
811.582	2902
811.724	2876
811.865	2868
812.007	2941
812.148	2899
812.29	2842
812.431	2883
812.573	2956
812.714	2979
812.855	3066
812.997	3081
813.138	3123
813.279	3020
813.421	2998
813.562	2967
813.703	2899
813.845	2895
813.986	2804
814.127	2720
814.268	2857
814.41	2826
814.551	2792
814.692	2925
814.833	2864
814.974	2906
815.115	2979
815.256	2823
815.397	2819
815.539	2864
815.68	2766
815.821	2773
815.962	2998
816.103	2929
816.244	2864
816.385	2853
816.526	2956
816.666	2918
816.807	2766
816.948	2902
817.089	2906
817.23	2842
817.371	2823
817.512	2788
817.653	2838
817.793	2883
817.934	2883
818.075	2937
818.216	2971
818.356	3028
818.497	2925
818.638	2823
818.778	2842
818.919	2830
819.06	2777
819.2	2853
819.341	2838
819.481	2815
819.622	2902
819.762	3116
819.903	3043
820.043	2971
820.184	2929
820.324	2922
820.465	3024
820.605	3020
820.746	3066
820.886	2967
821.026	3169
821.167	3161
821.307	3245
821.447	3264
821.588	3230
821.728	3214
821.868	3180
822.008	3104
822.149	3150
822.289	3214
822.429	3119
822.569	3119
822.709	3207
822.849	3024
822.99	3066
823.13	3146
823.27	3195
823.41	3104
823.55	3169
823.69	3161
823.83	3195
823.97	3123
824.11	3028
824.25	3024
824.389	3085
824.529	3138
824.669	3074
824.809	3173
824.949	3253
825.089	3214
825.228	3180
825.368	3013
825.508	2956
825.648	2971
825.787	3047
825.927	3047
826.067	2975
826.206	2975
826.346	3028
826.485	3104
826.625	3138
826.765	3287
826.904	3218
827.044	3005
827.183	2956
827.323	2883
827.462	2998
827.601	2925
827.741	2944
827.88	2979
828.02	2834
828.159	2994
828.298	3058
828.437	3123
828.577	3028
828.716	3233
828.855	3108
828.994	2910
829.134	2891
829.273	2902
829.412	2864
829.551	2864
829.69	2872
829.829	2990
829.968	3150
830.107	3001
830.246	3055
830.385	2918
830.524	2929
830.663	2819
830.802	2727
830.941	2655
831.08	2651
831.219	2762
831.357	2750
831.496	2960
831.635	2727
831.774	2636
831.913	2678
832.051	2568
832.19	2606
832.329	2724
832.467	2552
832.606	2461
832.744	2583
832.883	2590
833.022	2575
833.16	2678
833.299	2693
833.437	2724
833.576	2716
833.714	2716
833.852	2735
833.991	2777
834.129	2845
834.267	2834
834.406	2811
834.544	2857
834.682	2823
834.821	2853
834.959	3108
835.097	2906
835.235	3047
835.373	3028
835.511	3051
835.65	2956
835.788	2971
835.926	2838
836.064	2811
836.202	2838
836.34	3081
836.478	3154
836.615	3051
836.753	3108
836.891	3233
837.029	3165
837.167	3119
837.305	3039
837.443	3047
837.58	2975
837.718	3108
837.856	3089
837.993	3028
838.131	3097
838.269	3157
838.406	3112
838.544	3127
838.681	2937
838.819	2899
838.956	2811
839.094	2849
839.231	2922
839.369	3013
839.506	3424
839.643	3218
839.781	3028
839.918	2952
840.055	3020
840.193	3036
840.33	3074
840.467	3142
840.604	3180
840.742	3420
840.879	3043
841.016	3043
841.153	3100
841.29	3291
841.427	3344
841.564	3268
841.701	3325
841.838	3233
841.975	3161
842.112	3195
842.249	3062
842.385	3013
842.522	3230
842.659	3081
842.796	3055
842.933	3104
843.069	3028
843.206	3001
843.343	3165
843.479	3112
843.616	3123
843.752	2922
843.889	2845
844.025	3036
844.162	2887
844.298	3104
844.435	2941
844.571	2956
844.708	3066
844.844	3176
844.98	3211
845.117	3173
845.253	3036
845.389	2979
845.525	3100
845.661	3077
845.798	3009
845.934	3104
846.07	3051
846.206	3226
846.342	3275
846.478	3222
846.614	3066
846.75	3051
846.886	3032
847.022	3249
847.158	3138
847.294	3188
847.429	3253
847.565	3226
847.701	3477
847.837	3055
847.972	3020
848.108	3127
848.244	3165
848.379	2979
848.515	2937
848.65	2902
848.786	2910
848.921	2990
849.057	3085
849.192	3154
849.328	3055
849.463	3077
849.598	3043
849.734	3036
849.869	3001
850.004	2895
850.14	2990
850.275	2864
850.41	2857
850.545	2868
850.68	2918
850.815	2944
850.95	2963
851.085	3188
851.22	3138
851.355	3047
851.49	2990
851.625	3013
851.76	3001
851.895	2952
852.03	2899
852.165	3024
852.299	3097
852.434	3195
852.569	3127
852.703	3199
852.838	3294
852.973	3340
853.107	3359
853.242	3123
853.376	3108
853.511	3024
853.645	3047
853.78	3275
853.914	3112
854.048	3116
854.183	3066
854.317	3176
854.451	3325
854.585	3180
854.72	3108
854.854	3245
854.988	3093
855.122	3131
855.256	3051
855.39	3127
855.524	3283
855.658	3192
855.792	3184
855.926	3184
856.06	3214
856.194	3325
856.327	3188
856.461	3074
856.595	3097
856.729	3135
856.862	3222
856.996	3195
857.13	3218
857.263	3268
857.397	3302
857.53	3157
857.664	3218
857.797	3298
857.931	3279
858.064	3165
858.197	3279
858.331	3169
858.464	3157
858.597	3039
858.731	3142
858.864	3157
858.997	3085
859.13	3192
859.263	3241
859.396	3226
859.529	3135
859.662	3077
859.795	3043
859.928	3161
860.061	3313
860.194	3321
860.327	3176
860.46	3135
860.592	3283
860.725	3264
860.858	3283
860.99	3146
861.123	3093
861.256	3074
861.388	3165
861.521	3861
861.653	3066
861.786	3024
861.918	3039
862.05	3097
862.183	3123
862.315	3165
862.447	3279
862.58	3135
862.712	3020
862.844	2941
862.976	3043
863.108	3051
863.24	3313
863.372	2933
863.504	3001
863.636	2986
863.768	3055
863.9	3013
864.032	2960
864.164	2967
864.296	3081
864.428	3123
864.559	3165
864.691	3108
864.823	3085
864.954	3070
865.086	3066
865.217	3013
865.349	2982
865.48	3024
865.612	3009
865.743	3154
865.875	3024
866.006	2986
866.137	3009
866.269	3001
866.4	2971
866.531	3001
866.662	2906
866.793	2899
866.924	2906
867.055	2982
867.186	2963
867.317	2883
867.448	2883
867.579	2891
867.71	2880
867.841	2838
867.972	2937
868.103	2925
868.233	2891
868.364	2910
868.495	2952
868.625	3089
868.756	3230
868.886	2994
869.017	2998
869.147	3207
869.278	3214
869.408	3032
869.539	3051
869.669	3097
869.799	3108
869.929	3161
870.06	3138
870.19	3344
870.32	3332
870.45	3336
870.58	3393
870.71	3492
870.84	3496
870.97	3340
871.1	3233
871.23	3492
871.36	3523
871.489	3370
871.619	3466
871.749	3409
871.879	3447
872.008	3469
872.138	3374
872.267	3306
872.397	3199
872.526	3119
872.656	3051
872.785	3146
872.915	3313
873.044	3344
873.173	3264
873.303	3283
873.432	3291
873.561	3283
873.69	3222
873.819	3116
873.948	3222
874.077	3157
874.206	3039
874.335	3138
874.464	3272
874.593	3374
874.722	3245
874.851	3428
874.979	3378
875.108	3355
875.237	3222
875.365	3218
875.494	3226
875.623	3253
875.751	3097
875.88	3131
876.008	3230
876.136	3294
876.265	3389
876.393	3568
876.521	3435
876.65	3450
876.778	3367
876.906	3272
877.034	3230
877.162	3218
877.29	3211
877.418	3306
877.546	3279
877.674	3302
877.802	3237
877.93	3230
878.058	3188
878.185	3131
878.313	3211
878.441	3226
878.568	3127
878.696	3157
878.824	3268
878.951	3363
879.079	3477
879.206	3625
879.333	3481
879.461	3321
879.588	3409
879.715	3481
879.842	3622
879.97	3439
880.097	3218
880.224	3127
880.351	3199
880.478	3222
880.605	3237
880.732	3214
880.859	3488
880.986	3298
881.112	3370
881.239	3211
881.366	3176
881.493	3093
881.619	3081
881.746	3081
881.872	3138
881.999	3127
882.125	3161
882.252	3264
882.378	3329
882.505	3469
882.631	3310
882.757	3195
882.883	3233
883.01	3245
883.136	3211
883.262	3077
883.388	3131
883.514	3351
883.64	3466
883.766	3329
883.892	3256
884.018	3253
884.143	3424
884.269	3542
884.395	3207
884.52	3195
884.646	3184
884.772	3150
884.897	3123
885.023	3199
885.148	3363
885.274	3431
885.399	3405
885.524	3329
885.65	3325
885.775	3325
885.9	3283
886.025	3473
886.15	3439
886.275	3332
886.4	3294
886.525	3325
886.65	3325
886.775	3310
886.9	3511
887.025	3641
887.149	3462
887.274	3302
887.399	3245
887.523	3226
887.648	3165
887.773	3233
887.897	3386
888.021	3443
888.146	3306
888.27	3458
888.395	3549
888.519	3469
888.643	3473
888.767	3485
888.891	3359
889.015	3279
889.139	3291
889.263	3230
889.387	3439
889.511	3545
889.635	3462
889.759	3317
889.883	3336
890.006	3389
890.13	3549
890.254	3310
890.377	3321
890.501	3237
890.624	3180
890.748	3340
890.871	3226
890.995	3097
891.118	3081
891.241	3226
891.364	3256
891.488	3321
891.611	3199
891.734	3218
891.857	3279
891.98	3256
892.103	3393
892.226	3283
892.349	3218
892.471	3100
892.594	3272
892.717	3325
892.839	3260
892.962	3321
893.085	3363
893.207	3370
893.33	3203
893.452	3222
893.575	3359
893.697	3291
893.819	3477
893.941	3580
894.064	3504
894.186	3298
894.308	3279
894.43	3428
894.552	3572
894.674	3477
894.796	3298
894.918	3332
895.04	3306
895.161	3454
895.283	3416
895.405	3306
895.526	3409
895.648	3424
895.769	3409
895.891	3519
896.012	3496
896.134	3519
896.255	3435
896.376	3386
896.498	3382
896.619	3447
896.74	3397
896.861	3435
896.982	3701
897.103	3876
897.224	3610
897.345	3523
897.466	3416
897.587	3507
897.708	3679
897.828	3549
897.949	3469
898.07	3382
898.19	3397
898.311	3614
898.431	3469
898.552	3534
898.672	3572
898.792	3576
898.913	3519
899.033	3431
899.153	3306
899.273	3230
899.393	3298
899.513	3287
899.633	3329
899.753	3325
899.873	3313
899.993	3401
900.113	3351
900.232	3389
900.352	3386
900.472	3306
900.591	3237
900.711	3325
900.83	3249
900.95	3435
901.069	3500
901.189	3378
901.308	3119
901.427	3135
901.546	3241
901.665	3321
901.784	3310
901.904	3233
902.023	3157
902.141	3017
902.26	3020
902.379	3214
902.498	3100
902.617	3070
902.735	3211
902.854	3249
902.973	3211
903.091	3089
903.21	3047
903.328	3169
903.446	3123
903.565	3116
903.683	3245
903.801	3142
903.919	3245
904.038	3306
904.156	3169
904.274	3332
904.392	3268
904.51	3283
904.627	3336
904.745	3409
904.863	3507
904.981	3272
905.098	3203
905.216	3222
905.334	3298
905.451	3313
905.569	3294
905.686	3454
905.803	3473
905.921	3306
906.038	3424
906.155	3374
906.272	3291
906.389	3351
906.506	3222
906.623	3249
906.74	3268
906.857	3203
906.974	3283
907.091	3458
907.208	3576
907.324	3515
907.441	3382
907.557	3241
907.674	3283
907.79	3218
907.907	3275
908.023	3389
908.139	3409
908.256	3321
908.372	3393
908.488	3382
908.604	3294
908.72	3275
908.836	3329
908.952	3302
909.068	3359
909.184	3485
909.3	3409
909.415	3504
909.531	3477
909.647	3249
909.762	3306
909.878	3279
909.993	3378
910.108	3355
910.224	3367
910.339	3416
910.454	3329
910.57	3279
910.685	3294
910.8	3622
910.915	3545
911.03	3450
911.145	3249
911.259	3313
911.374	3336
911.489	3306
911.604	3245
911.718	3142
911.833	3169
911.947	3085
912.062	3009
912.176	3165
912.291	3237
912.405	3226
912.519	3439
912.633	3481
912.748	3313
912.862	3253
912.976	3230
913.09	3066
913.204	3173
913.318	3230
913.431	3370
913.545	3355
913.659	3416
913.772	3348
913.886	3233
914	3207
914.113	3359
914.226	3439
914.34	3389
914.453	3214
914.566	3450
914.68	3329
914.793	3279
914.906	3150
915.019	3089
915.132	3032
915.245	3184
915.358	3222
915.47	3222
915.583	3260
915.696	3332
915.809	3462
915.921	3431
916.034	3253
916.146	3237
916.259	3268
916.371	3382
916.483	3374
916.595	3317
916.708	3336
916.82	3351
916.932	3302
917.044	3401
917.156	3348
917.268	3245
917.38	3329
917.491	3287
917.603	3348
917.715	3477
917.826	3447
917.938	3370
918.049	3275
918.161	3439
918.272	3564
918.384	3580
918.495	3557
918.606	3378
918.717	3310
918.828	3336
918.939	3431
919.05	3332
919.161	3412
919.272	3180
919.383	3351
919.494	3458
919.604	3690
919.715	3523
919.826	3420
919.936	3420
920.047	3572
920.157	3557
920.267	3774
920.378	3614
920.488	3595
920.598	3804
920.708	3945
920.818	3892
920.928	3827
921.038	4032
921.148	3991
921.258	3713
921.368	3656
921.477	3564
921.587	3530
921.697	3473
921.806	3644
921.916	3561
922.025	3355
922.134	3340
922.244	3340
922.353	3424
922.462	3268
922.571	3233
922.68	3150
922.789	3070
922.898	3135
923.007	3085
923.116	3188
923.224	3226
923.333	3203
923.442	3093
923.55	3112
923.659	3188
923.767	3214
923.876	3123
923.984	3310
924.092	3112
924.201	3222
924.309	3180
924.417	3256
924.525	3218
924.633	3237
924.741	4002
924.849	3066
924.956	3245
925.064	3127
925.172	3058
925.279	3077
925.387	3203
925.494	3222
925.602	3363
925.709	3378
925.816	3195
925.924	3283
926.031	3405
926.138	3325
926.245	3393
926.352	3253
926.459	3420
926.566	3454
926.673	3317
926.779	3264
926.886	3264
926.993	3176
927.099	3142
927.206	3100
927.312	3127
927.419	3233
927.525	3214
927.631	3272
927.737	3184
927.843	3157
927.95	3081
928.056	3108
928.162	3169
928.267	3241
928.373	3888
928.479	3348
928.585	3081
928.69	3214
928.796	3260
928.901	3165
929.007	3066
929.112	3218
929.218	3161
929.323	3165
929.428	3176
929.533	3283
929.638	3116
929.743	3165
929.848	3294
929.953	3249
930.058	3150
930.163	2975
930.267	3039
930.372	3192
930.477	3062
930.581	3332
930.685	3199
930.79	3066
930.894	3123
930.998	3123
931.103	3268
931.207	3009
931.311	2979
931.415	2929
931.519	2788
931.623	2823
