Data from test_V78500241_1598.txt Node
Date: Fri Mar 25 16:26:16 CST 2022
User: usil
Spectrometer: V785-0024
Trigger mode: 0
Integration Time (sec): 4.000000E-1
Scans to average: 1
Nonlinearity correction enabled: false
Boxcar width: 0
Storing dark spectrum: false
XAxis mode: Wavelengths
Number of Pixels in Spectrum: 1024
>>>>>Begin Spectral Data<<<<<
801.071	2906
801.214	2910
801.356	2868
801.499	2880
801.641	2872
801.783	2895
801.926	3032
802.068	2922
802.211	2975
802.353	3032
802.496	2944
802.638	2971
802.78	3028
802.923	3062
803.065	2998
803.208	2902
803.35	2902
803.492	2937
803.635	2883
803.777	2724
803.919	2880
804.061	3169
804.204	2933
804.346	2857
804.488	2861
804.63	2944
804.773	2887
804.915	2902
805.057	3062
805.199	2944
805.341	2956
805.483	3020
805.626	2975
805.768	2967
805.91	3062
806.052	3119
806.194	3039
806.336	3214
806.478	2998
806.62	2914
806.762	2952
806.904	3058
807.046	3112
807.188	2937
807.33	2845
807.472	2967
807.614	2880
807.756	2975
807.898	2922
808.04	2864
808.182	2937
808.324	2952
808.465	2899
808.607	2826
808.749	2766
808.891	2807
809.033	2998
809.174	2952
809.316	2868
809.458	2887
809.6	2758
809.741	2743
809.883	2739
810.025	2864
810.166	2845
810.308	2785
810.45	2823
810.591	2762
810.733	2758
810.875	2823
811.016	2773
811.158	2743
811.299	2792
811.441	2944
811.582	2887
811.724	2830
811.865	2834
812.007	2941
812.148	2883
812.29	2868
812.431	2876
812.573	2948
812.714	2948
812.855	3032
812.997	3058
813.138	3116
813.279	2998
813.421	2963
813.562	2967
813.703	2819
813.845	2864
813.986	2807
814.127	2720
814.268	2804
814.41	2834
814.551	2804
814.692	2880
814.833	2800
814.974	2876
815.115	2933
815.256	2834
815.397	2769
815.539	2891
815.68	2785
815.821	2766
815.962	2906
816.103	2914
816.244	2876
816.385	2838
816.526	2948
816.666	2929
816.807	2743
816.948	2880
817.089	2925
817.23	2819
817.371	2773
817.512	2800
817.653	2815
817.793	2823
817.934	2864
818.075	2986
818.216	3001
818.356	3020
818.497	2880
818.638	2781
818.778	2804
818.919	2807
819.06	2743
819.2	2864
819.341	2826
819.481	2800
819.622	2880
819.762	3112
819.903	3058
820.043	2864
820.184	2887
820.324	2902
820.465	2986
820.605	3043
820.746	2979
820.886	2918
821.026	3104
821.167	3150
821.307	3253
821.447	3245
821.588	3211
821.728	3180
821.868	3173
822.008	3013
822.149	3169
822.289	3211
822.429	3062
822.569	3039
822.709	3146
822.849	3001
822.99	3051
823.13	3146
823.27	3165
823.41	3093
823.55	3108
823.69	3180
823.83	3180
823.97	3100
824.11	2990
824.25	2986
824.389	3036
824.529	3097
824.669	3036
824.809	3184
824.949	3237
825.089	3222
825.228	3135
825.368	2986
825.508	2925
825.648	2933
825.787	3009
825.927	3009
826.067	3005
826.206	2967
826.346	3051
826.485	3093
826.625	3135
826.765	3272
826.904	3195
827.044	2975
827.183	2933
827.323	2876
827.462	3001
827.601	2914
827.741	2948
827.88	2975
828.02	2864
828.159	2986
828.298	3051
828.437	3135
828.577	3074
828.716	3241
828.855	3093
828.994	2937
829.134	2922
829.273	2971
829.412	2906
829.551	2887
829.69	2918
829.829	3013
829.968	3173
830.107	3028
830.246	3104
830.385	2975
830.524	2948
830.663	2872
830.802	2792
830.941	2743
831.08	2670
831.219	2811
831.357	2785
831.496	2963
831.635	2758
831.774	2640
831.913	2743
832.051	2594
832.19	2617
832.329	2727
832.467	2594
832.606	2514
832.744	2610
832.883	2625
833.022	2663
833.16	2693
833.299	2766
833.437	2712
833.576	2746
833.714	2769
833.852	2785
833.991	2792
834.129	2899
834.267	2864
834.406	2826
834.544	2899
834.682	2899
834.821	2929
834.959	3089
835.097	2986
835.235	3116
835.373	3043
835.511	3077
835.65	3005
835.788	3001
835.926	2895
836.064	2880
836.202	2883
836.34	3142
836.478	3226
836.615	3047
836.753	3192
836.891	3249
837.029	3188
837.167	3146
837.305	3077
837.443	3047
837.58	3001
837.718	3135
837.856	3089
837.993	3058
838.131	3127
838.269	3180
838.406	3161
838.544	3127
838.681	2994
838.819	2937
838.956	2861
839.094	2857
839.231	2941
839.369	3043
839.506	3447
839.643	3264
839.781	3024
839.918	2982
840.055	3077
840.193	3131
840.33	3085
840.467	3138
840.604	3195
840.742	3431
840.879	3070
841.016	3089
841.153	3176
841.29	3374
841.427	3306
841.564	3287
841.701	3306
841.838	3226
841.975	3199
842.112	3245
842.249	3154
842.385	3093
842.522	3283
842.659	3127
842.796	3119
842.933	3135
843.069	3089
843.206	3070
843.343	3211
843.479	3131
843.616	3211
843.752	2906
843.889	2922
844.025	3093
844.162	2918
844.298	3135
844.435	2952
844.571	2952
844.708	3077
844.844	3222
844.98	3298
845.117	3230
845.253	3077
845.389	3036
845.525	3157
845.661	3112
845.798	3028
845.934	3097
846.07	3089
846.206	3253
846.342	3336
846.478	3237
846.614	3119
846.75	3074
846.886	3058
847.022	3272
847.158	3138
847.294	3237
847.429	3279
847.565	3260
847.701	3454
847.837	3051
847.972	3017
848.108	3199
848.244	3157
848.379	3005
848.515	2963
848.65	2967
848.786	3020
848.921	3074
849.057	3146
849.192	3207
849.328	3058
849.463	3169
849.598	3097
849.734	3036
849.869	3013
850.004	2960
850.14	2944
850.275	2956
850.41	2857
850.545	2910
850.68	2963
850.815	2994
850.95	3001
851.085	3233
851.22	3150
851.355	3066
851.49	3032
851.625	3036
851.76	3051
851.895	2952
852.03	2925
852.165	3077
852.299	3165
852.434	3230
852.569	3173
852.703	3211
852.838	3279
852.973	3374
853.107	3310
853.242	3180
853.376	3108
853.511	2967
853.645	3089
853.78	3222
853.914	3097
854.048	3100
854.183	3131
854.317	3188
854.451	3310
854.585	3127
854.72	3104
854.854	3226
854.988	3093
855.122	3104
855.256	2990
855.39	3154
855.524	3249
855.658	3207
855.792	3146
855.926	3233
856.06	3207
856.194	3298
856.327	3165
856.461	3116
856.595	3127
856.729	3116
856.862	3230
856.996	3195
857.13	3203
857.263	3222
857.397	3298
857.53	3146
857.664	3256
857.797	3237
857.931	3245
858.064	3222
858.197	3226
858.331	3165
858.464	3100
858.597	3028
858.731	3154
858.864	3142
858.997	3089
859.13	3192
859.263	3142
859.396	3233
859.529	3116
859.662	3089
859.795	3055
859.928	3173
860.061	3279
860.194	3321
860.327	3169
860.46	3161
860.592	3275
860.725	3256
860.858	3268
860.99	3142
861.123	3055
861.256	3066
861.388	3195
861.521	3854
861.653	3043
861.786	3028
861.918	3051
862.05	3112
862.183	3108
862.315	3165
862.447	3233
862.58	3093
862.712	2975
862.844	2902
862.976	3024
863.108	3070
863.24	3325
863.372	2891
863.504	2982
863.636	2937
863.768	3066
863.9	2982
864.032	2941
864.164	2948
864.296	3020
864.428	3131
864.559	3127
864.691	3116
864.823	3066
864.954	3058
865.086	3051
865.217	2971
865.349	2979
865.48	3009
865.612	3047
865.743	3169
865.875	2971
866.006	2971
866.137	3017
866.269	2944
866.4	2948
866.531	2937
866.662	2956
866.793	2925
866.924	2910
867.055	2982
867.186	2933
867.317	2891
867.448	2864
867.579	2891
867.71	2864
867.841	2857
867.972	2895
868.103	2922
868.233	2906
868.364	2891
868.495	2910
868.625	3081
868.756	3211
868.886	2986
869.017	3024
869.147	3176
869.278	3214
869.408	3047
869.539	3039
869.669	3108
869.799	3039
869.929	3176
870.06	3161
870.19	3336
870.32	3340
870.45	3329
870.58	3386
870.71	3504
870.84	3488
870.97	3340
871.1	3272
871.23	3530
871.36	3458
871.489	3393
871.619	3412
871.749	3431
871.879	3511
872.008	3500
872.138	3359
872.267	3313
872.397	3154
872.526	3108
872.656	3013
872.785	3112
872.915	3256
873.044	3359
873.173	3233
873.303	3253
873.432	3275
873.561	3256
873.69	3169
873.819	3146
873.948	3180
874.077	3112
874.206	3070
874.335	3108
874.464	3245
874.593	3340
874.722	3241
874.851	3374
874.979	3336
875.108	3317
875.237	3199
875.365	3211
875.494	3226
875.623	3317
875.751	3119
875.88	3131
876.008	3222
876.136	3218
876.265	3374
876.393	3549
876.521	3428
876.65	3409
876.778	3340
876.906	3287
877.034	3226
877.162	3249
877.29	3199
877.418	3294
877.546	3283
877.674	3279
877.802	3279
877.93	3218
878.058	3188
878.185	3131
878.313	3199
878.441	3188
878.568	3074
878.696	3165
878.824	3283
878.951	3287
879.079	3458
879.206	3667
879.333	3443
879.461	3374
879.588	3382
879.715	3538
879.842	3610
879.97	3431
880.097	3192
880.224	3131
880.351	3241
880.478	3230
880.605	3207
880.732	3180
880.859	3507
880.986	3329
881.112	3336
881.239	3222
881.366	3085
881.493	3058
881.619	3043
881.746	3089
881.872	3112
881.999	3123
882.125	3161
882.252	3237
882.378	3302
882.505	3439
882.631	3329
882.757	3165
882.883	3214
883.01	3249
883.136	3173
883.262	3123
883.388	3093
883.514	3351
883.64	3397
883.766	3332
883.892	3207
884.018	3264
884.143	3439
884.269	3572
884.395	3245
884.52	3222
884.646	3207
884.772	3116
884.897	3150
885.023	3199
885.148	3336
885.274	3416
885.399	3393
885.524	3298
885.65	3287
885.775	3344
885.9	3329
886.025	3420
886.15	3386
886.275	3329
886.4	3226
886.525	3329
886.65	3256
886.775	3294
886.9	3488
887.025	3629
887.149	3424
887.274	3241
887.399	3207
887.523	3169
887.648	3211
887.773	3222
887.897	3359
888.021	3382
888.146	3348
888.27	3397
888.395	3591
888.519	3420
888.643	3435
888.767	3485
888.891	3317
889.015	3245
889.139	3287
889.263	3245
889.387	3412
889.511	3549
889.635	3447
889.759	3253
889.883	3287
890.006	3424
890.13	3496
890.254	3272
890.377	3370
890.501	3195
890.624	3188
890.748	3313
890.871	3211
890.995	3108
891.118	3062
891.241	3184
891.364	3279
891.488	3336
891.611	3195
891.734	3233
891.857	3294
891.98	3264
892.103	3374
892.226	3321
892.349	3241
892.471	3142
892.594	3237
892.717	3298
892.839	3291
892.962	3310
893.085	3412
893.207	3336
893.33	3157
893.452	3241
893.575	3363
893.697	3279
893.819	3500
893.941	3526
894.064	3492
894.186	3272
894.308	3275
894.43	3450
894.552	3561
894.674	3481
894.796	3291
894.918	3317
895.04	3332
895.161	3458
895.283	3405
895.405	3336
895.526	3359
895.648	3428
895.769	3450
895.891	3466
896.012	3507
896.134	3466
896.255	3386
896.376	3389
896.498	3332
896.619	3466
896.74	3351
896.861	3443
896.982	3686
897.103	3823
897.224	3595
897.345	3511
897.466	3466
897.587	3504
897.708	3641
897.828	3553
897.949	3428
898.07	3340
898.19	3393
898.311	3572
898.431	3454
898.552	3485
898.672	3580
898.792	3610
898.913	3504
899.033	3424
899.153	3287
899.273	3230
899.393	3279
899.513	3275
899.633	3321
899.753	3317
899.873	3325
899.993	3393
900.113	3378
900.232	3420
900.352	3313
900.472	3283
900.591	3180
900.711	3291
900.83	3272
900.95	3462
901.069	3496
901.189	3355
901.308	3195
901.427	3131
901.546	3211
901.665	3260
901.784	3378
901.904	3245
902.023	3173
902.141	3028
902.26	3009
902.379	3169
902.498	3131
902.617	3074
902.735	3230
902.854	3245
902.973	3218
903.091	3070
903.21	3097
903.328	3146
903.446	3108
903.565	3165
903.683	3233
903.801	3169
903.919	3294
904.038	3321
904.156	3169
904.274	3336
904.392	3268
904.51	3355
904.627	3340
904.745	3504
904.863	3515
904.981	3302
905.098	3233
905.216	3275
905.334	3374
905.451	3348
905.569	3359
905.686	3492
905.803	3477
905.921	3344
906.038	3466
906.155	3374
906.272	3317
906.389	3405
906.506	3302
906.623	3294
906.74	3329
906.857	3211
906.974	3310
907.091	3473
907.208	3644
907.324	3549
907.441	3420
907.557	3249
907.674	3264
907.79	3222
907.907	3351
908.023	3439
908.139	3428
908.256	3386
908.372	3439
908.488	3431
908.604	3313
908.72	3294
908.836	3329
908.952	3336
909.068	3370
909.184	3530
909.3	3416
909.415	3538
909.531	3507
909.647	3302
909.762	3340
909.878	3291
909.993	3348
910.108	3370
910.224	3389
910.339	3405
910.454	3370
910.57	3374
910.685	3313
910.8	3660
910.915	3572
911.03	3458
911.145	3348
911.259	3325
911.374	3367
911.489	3275
911.604	3256
911.718	3184
911.833	3214
911.947	3089
912.062	2982
912.176	3211
912.291	3203
912.405	3256
912.519	3439
912.633	3496
912.748	3344
912.862	3325
912.976	3211
913.09	3058
913.204	3176
913.318	3283
913.431	3332
913.545	3389
913.659	3458
913.772	3370
913.886	3207
914	3237
914.113	3367
914.226	3462
914.34	3397
914.453	3226
914.566	3454
914.68	3294
914.793	3325
914.906	3192
915.019	3161
915.132	3123
915.245	3192
915.358	3260
915.47	3245
915.583	3344
915.696	3367
915.809	3462
915.921	3447
916.034	3306
916.146	3294
916.259	3237
916.371	3416
916.483	3424
916.595	3332
916.708	3340
916.82	3397
916.932	3367
917.044	3329
917.156	3393
917.268	3268
917.38	3325
917.491	3321
917.603	3367
917.715	3462
917.826	3492
917.938	3420
918.049	3272
918.161	3466
918.272	3648
918.384	3606
918.495	3549
918.606	3355
918.717	3332
918.828	3420
918.939	3443
919.05	3321
919.161	3409
919.272	3188
919.383	3298
919.494	3488
919.604	3736
919.715	3515
919.826	3466
919.936	3458
920.047	3557
920.157	3542
920.267	3778
920.378	3652
920.488	3576
920.598	3800
920.708	3972
920.818	3873
920.928	3873
921.038	4032
921.148	4002
921.258	3747
921.368	3629
921.477	3641
921.587	3538
921.697	3496
921.806	3629
921.916	3557
922.025	3405
922.134	3443
922.244	3370
922.353	3443
922.462	3306
922.571	3233
922.68	3165
922.789	3066
922.898	3150
923.007	3142
923.116	3233
923.224	3233
923.333	3195
923.442	3138
923.55	3150
923.659	3184
923.767	3233
923.876	3173
923.984	3291
924.092	3131
924.201	3161
924.309	3233
924.417	3298
924.525	3241
924.633	3264
924.741	4223
924.849	3081
924.956	3291
925.064	3146
925.172	3058
925.279	3154
925.387	3199
925.494	3241
925.602	3401
925.709	3355
925.816	3241
925.924	3329
926.031	3397
926.138	3363
926.245	3367
926.352	3268
926.459	3454
926.566	3507
926.673	3359
926.779	3279
926.886	3279
926.993	3176
927.099	3184
927.206	3093
927.312	3135
927.419	3268
927.525	3249
927.631	3294
927.737	3154
927.843	3150
927.95	3051
928.056	3195
928.162	3180
928.267	3283
928.373	3896
928.479	3359
928.585	3119
928.69	3249
928.796	3287
928.901	3211
929.007	3074
929.112	3211
929.218	3195
929.323	3184
929.428	3161
929.533	3374
929.638	3142
929.743	3154
929.848	3298
929.953	3230
930.058	3184
930.163	3024
930.267	3085
930.372	3203
930.477	3070
930.581	3363
930.685	3211
930.79	3112
930.894	3150
930.998	3119
931.103	3325
931.207	3009
931.311	2998
931.415	2937
931.519	2796
931.623	2845
