Data from test_V78500241_1562.txt Node
Date: Fri Mar 25 16:26:01 CST 2022
User: usil
Spectrometer: V785-0024
Trigger mode: 0
Integration Time (sec): 4.000000E-1
Scans to average: 1
Nonlinearity correction enabled: false
Boxcar width: 0
Storing dark spectrum: false
XAxis mode: Wavelengths
Number of Pixels in Spectrum: 1024
>>>>>Begin Spectral Data<<<<<
801.071	2925
801.214	2929
801.356	2861
801.499	2872
801.641	2853
801.783	2941
801.926	3058
802.068	2925
802.211	2994
802.353	3036
802.496	2948
802.638	3009
802.78	3017
802.923	3062
803.065	2990
803.208	2891
803.35	2941
803.492	2925
803.635	2891
803.777	2785
803.919	2853
804.061	3180
804.204	2979
804.346	2906
804.488	2823
804.63	3017
804.773	2864
804.915	2876
805.057	3066
805.199	2876
805.341	2971
805.483	3013
805.626	3020
805.768	2960
805.91	3089
806.052	3100
806.194	3036
806.336	3214
806.478	3005
806.62	2956
806.762	2971
806.904	3066
807.046	3192
807.188	2948
807.33	2922
807.472	2960
807.614	2933
807.756	2975
807.898	2937
808.04	2883
808.182	2990
808.324	2956
808.465	2880
808.607	2864
808.749	2788
808.891	2899
809.033	2998
809.174	2937
809.316	2925
809.458	2895
809.6	2785
809.741	2781
809.883	2750
810.025	2845
810.166	2838
810.308	2815
810.45	2891
810.591	2807
810.733	2758
810.875	2823
811.016	2804
811.158	2743
811.299	2804
811.441	2918
811.582	2887
811.724	2807
811.865	2823
812.007	2872
812.148	2880
812.29	2842
812.431	2883
812.573	2918
812.714	2956
812.855	3039
812.997	3055
813.138	3097
813.279	2998
813.421	2952
813.562	2960
813.703	2849
813.845	2868
813.986	2792
814.127	2743
814.268	2807
814.41	2868
814.551	2811
814.692	2864
814.833	2819
814.974	2925
815.115	2986
815.256	2815
815.397	2838
815.539	2872
815.68	2754
815.821	2785
815.962	2979
816.103	2918
816.244	2857
816.385	2902
816.526	2963
816.666	2902
816.807	2746
816.948	2861
817.089	2933
817.23	2872
817.371	2766
817.512	2796
817.653	2845
817.793	2826
817.934	2864
818.075	2967
818.216	2956
818.356	3009
818.497	2899
818.638	2811
818.778	2845
818.919	2773
819.06	2781
819.2	2880
819.341	2842
819.481	2766
819.622	2929
819.762	3119
819.903	3036
820.043	2918
820.184	2883
820.324	2906
820.465	3017
820.605	3032
820.746	2998
820.886	2960
821.026	3131
821.167	3157
821.307	3233
821.447	3268
821.588	3226
821.728	3203
821.868	3184
822.008	3070
822.149	3203
822.289	3279
822.429	3055
822.569	3127
822.709	3173
822.849	3028
822.99	3055
823.13	3142
823.27	3207
823.41	3123
823.55	3161
823.69	3154
823.83	3173
823.97	3112
824.11	2975
824.25	2990
824.389	3070
824.529	3093
824.669	3074
824.809	3211
824.949	3272
825.089	3184
825.228	3142
825.368	3017
825.508	2956
825.648	2986
825.787	2971
825.927	3020
826.067	2956
826.206	2971
826.346	3028
826.485	3074
826.625	3123
826.765	3237
826.904	3207
827.044	2979
827.183	2941
827.323	2899
827.462	3024
827.601	2902
827.741	2906
827.88	2910
828.02	2838
828.159	2967
828.298	3055
828.437	3123
828.577	3028
828.716	3245
828.855	3051
828.994	2910
829.134	2868
829.273	2944
829.412	2849
829.551	2861
829.69	2845
829.829	2979
829.968	3116
830.107	3017
830.246	3013
830.385	2857
830.524	2891
830.663	2796
830.802	2720
830.941	2655
831.08	2640
831.219	2720
831.357	2766
831.496	2944
831.635	2697
831.774	2629
831.913	2663
832.051	2583
832.19	2556
832.329	2682
832.467	2533
832.606	2473
832.744	2610
832.883	2552
833.022	2583
833.16	2644
833.299	2678
833.437	2682
833.576	2712
833.714	2701
833.852	2724
833.991	2727
834.129	2819
834.267	2834
834.406	2796
834.544	2857
834.682	2853
834.821	2838
834.959	3081
835.097	2902
835.235	3043
835.373	3001
835.511	2986
835.65	2952
835.788	2971
835.926	2842
836.064	2788
836.202	2861
836.34	3070
836.478	3119
836.615	3020
836.753	3116
836.891	3203
837.029	3161
837.167	3104
837.305	3070
837.443	3036
837.58	2963
837.718	3108
837.856	3051
837.993	3024
838.131	3104
838.269	3108
838.406	3100
838.544	3062
838.681	2895
838.819	2880
838.956	2800
839.094	2849
839.231	2910
839.369	3001
839.506	3344
839.643	3218
839.781	2994
839.918	2941
840.055	3077
840.193	3055
840.33	3074
840.467	3104
840.604	3093
840.742	3397
840.879	3051
841.016	3066
841.153	3108
841.29	3325
841.427	3310
841.564	3264
841.701	3294
841.838	3211
841.975	3180
842.112	3203
842.249	3066
842.385	3058
842.522	3237
842.659	3089
842.796	3039
842.933	3108
843.069	3051
843.206	3017
843.343	3142
843.479	3116
843.616	3142
843.752	2941
843.889	2842
844.025	3058
844.162	2842
844.298	3055
844.435	2944
844.571	2899
844.708	3043
844.844	3184
844.98	3203
845.117	3157
845.253	3051
845.389	3013
845.525	3116
845.661	3104
845.798	2990
845.934	3127
846.07	3051
846.206	3184
846.342	3310
846.478	3218
846.614	3043
846.75	3036
846.886	3020
847.022	3222
847.158	3119
847.294	3214
847.429	3233
847.565	3218
847.701	3466
847.837	3058
847.972	2990
848.108	3138
848.244	3154
848.379	2986
848.515	2914
848.65	2956
848.786	2925
848.921	3013
849.057	3070
849.192	3127
849.328	3055
849.463	3081
849.598	3093
849.734	3043
849.869	2994
850.004	2933
850.14	2963
850.275	2899
850.41	2811
850.545	2887
850.68	2933
850.815	2960
850.95	2975
851.085	3157
851.22	3097
851.355	3028
851.49	2975
851.625	2960
851.76	3070
851.895	2952
852.03	2842
852.165	3017
852.299	3093
852.434	3165
852.569	3131
852.703	3150
852.838	3226
852.973	3325
853.107	3294
853.242	3142
853.376	3108
853.511	2956
853.645	3028
853.78	3253
853.914	3138
854.048	3116
854.183	3066
854.317	3108
854.451	3302
854.585	3131
854.72	3108
854.854	3226
854.988	3085
855.122	3043
855.256	2998
855.39	3100
855.524	3260
855.658	3165
855.792	3138
855.926	3207
856.06	3214
856.194	3264
856.327	3169
856.461	3077
856.595	3047
856.729	3062
856.862	3195
856.996	3173
857.13	3154
857.263	3192
857.397	3275
857.53	3112
857.664	3195
857.797	3214
857.931	3226
858.064	3146
858.197	3203
858.331	3104
858.464	3047
858.597	2998
858.731	3093
858.864	3112
858.997	3085
859.13	3135
859.263	3138
859.396	3180
859.529	3089
859.662	3070
859.795	3020
859.928	3131
860.061	3268
860.194	3294
860.327	3100
860.46	3112
860.592	3253
860.725	3237
860.858	3203
860.99	3104
861.123	3055
861.256	3047
861.388	3165
861.521	3869
861.653	2986
861.786	2998
861.918	3024
862.05	3062
862.183	3089
862.315	3131
862.447	3146
862.58	3104
862.712	2941
862.844	2880
862.976	3009
863.108	2994
863.24	3294
863.372	2861
863.504	2948
863.636	2944
863.768	3043
863.9	2982
864.032	2872
864.164	2925
864.296	3039
864.428	3051
864.559	3112
864.691	3074
864.823	3032
864.954	3032
865.086	3032
865.217	2982
865.349	2918
865.48	2979
865.612	3009
865.743	3176
865.875	2971
866.006	2971
866.137	2960
866.269	2906
866.4	2933
866.531	2895
866.662	2845
866.793	2933
866.924	2910
867.055	2956
867.186	2914
867.317	2868
867.448	2769
867.579	2804
867.71	2838
867.841	2807
867.972	2902
868.103	2902
868.233	2872
868.364	2891
868.495	2887
868.625	3081
868.756	3154
868.886	2967
869.017	3005
869.147	3146
869.278	3180
869.408	3043
869.539	3013
869.669	3058
869.799	3051
869.929	3165
870.06	3081
870.19	3317
870.32	3283
870.45	3283
870.58	3359
870.71	3462
870.84	3428
870.97	3260
871.1	3241
871.23	3473
871.36	3435
871.489	3348
871.619	3401
871.749	3397
871.879	3401
872.008	3462
872.138	3344
872.267	3287
872.397	3146
872.526	3077
872.656	3009
872.785	3119
872.915	3272
873.044	3348
873.173	3195
873.303	3226
873.432	3176
873.561	3203
873.69	3150
873.819	3116
873.948	3176
874.077	3108
874.206	3001
874.335	3093
874.464	3165
874.593	3317
874.722	3233
874.851	3424
874.979	3382
875.108	3298
875.237	3195
875.365	3161
875.494	3154
875.623	3264
875.751	3062
875.88	3135
876.008	3192
876.136	3226
876.265	3397
876.393	3530
876.521	3424
876.65	3405
876.778	3329
876.906	3249
877.034	3207
877.162	3230
877.29	3123
877.418	3287
877.546	3260
877.674	3245
877.802	3245
877.93	3256
878.058	3123
878.185	3074
878.313	3184
878.441	3188
878.568	3074
878.696	3165
878.824	3233
878.951	3294
879.079	3439
879.206	3641
879.333	3450
879.461	3370
879.588	3370
879.715	3488
879.842	3587
879.97	3370
880.097	3161
880.224	3150
880.351	3169
880.478	3214
880.605	3161
880.732	3192
880.859	3481
880.986	3321
881.112	3313
881.239	3184
881.366	3070
881.493	3001
881.619	2998
881.746	3100
881.872	3081
881.999	3089
882.125	3173
882.252	3230
882.378	3268
882.505	3389
882.631	3268
882.757	3184
882.883	3218
883.01	3199
883.136	3173
883.262	3093
883.388	3112
883.514	3313
883.64	3329
883.766	3325
883.892	3180
884.018	3253
884.143	3393
884.269	3534
884.395	3199
884.52	3142
884.646	3199
884.772	3108
884.897	3077
885.023	3230
885.148	3298
885.274	3416
885.399	3336
885.524	3306
885.65	3260
885.775	3306
885.9	3279
886.025	3424
886.15	3359
886.275	3260
886.4	3218
886.525	3260
886.65	3313
886.775	3275
886.9	3496
887.025	3648
887.149	3431
887.274	3214
887.399	3195
887.523	3203
887.648	3214
887.773	3207
887.897	3378
888.021	3386
888.146	3291
888.27	3466
888.395	3542
888.519	3424
888.643	3458
888.767	3424
888.891	3279
889.015	3211
889.139	3298
889.263	3245
889.387	3382
889.511	3504
889.635	3443
889.759	3302
889.883	3302
890.006	3370
890.13	3549
890.254	3264
890.377	3291
890.501	3199
890.624	3214
890.748	3294
890.871	3161
890.995	3066
891.118	3055
891.241	3192
891.364	3241
891.488	3344
891.611	3184
891.734	3230
891.857	3268
891.98	3237
892.103	3351
892.226	3253
892.349	3192
892.471	3127
892.594	3249
892.717	3272
892.839	3203
892.962	3268
893.085	3325
893.207	3302
893.33	3104
893.452	3218
893.575	3374
893.697	3211
893.819	3466
893.941	3485
894.064	3469
894.186	3279
894.308	3275
894.43	3462
894.552	3530
894.674	3492
894.796	3275
894.918	3291
895.04	3264
895.161	3405
895.283	3386
895.405	3310
895.526	3397
895.648	3382
895.769	3477
895.891	3435
896.012	3477
896.134	3507
896.255	3428
896.376	3397
896.498	3351
896.619	3420
896.74	3363
896.861	3401
896.982	3675
897.103	3842
897.224	3576
897.345	3511
897.466	3420
897.587	3511
897.708	3591
897.828	3557
897.949	3405
898.07	3332
898.19	3389
898.311	3580
898.431	3488
898.552	3500
898.672	3564
898.792	3595
898.913	3542
899.033	3393
899.153	3321
899.273	3192
899.393	3279
899.513	3313
899.633	3313
899.753	3298
899.873	3287
899.993	3344
900.113	3302
900.232	3355
900.352	3355
900.472	3302
900.591	3192
900.711	3291
900.83	3260
900.95	3420
901.069	3462
901.189	3336
901.308	3199
901.427	3123
901.546	3154
901.665	3302
901.784	3329
901.904	3180
902.023	3097
902.141	3024
902.26	2944
902.379	3085
902.498	3119
902.617	3051
902.735	3211
902.854	3203
902.973	3218
903.091	3028
903.21	3074
903.328	3150
903.446	3131
903.565	3081
903.683	3192
903.801	3142
903.919	3199
904.038	3291
904.156	3165
904.274	3272
904.392	3207
904.51	3291
904.627	3291
904.745	3447
904.863	3469
904.981	3237
905.098	3180
905.216	3233
905.334	3279
905.451	3264
905.569	3294
905.686	3454
905.803	3469
905.921	3287
906.038	3397
906.155	3291
906.272	3264
906.389	3291
906.506	3195
906.623	3218
906.74	3249
906.857	3146
906.974	3253
907.091	3454
907.208	3530
907.324	3466
907.441	3359
907.557	3233
907.674	3195
907.79	3207
907.907	3302
908.023	3386
908.139	3393
908.256	3306
908.372	3325
908.488	3344
908.604	3241
908.72	3260
908.836	3287
908.952	3256
909.068	3313
909.184	3519
909.3	3386
909.415	3492
909.531	3462
909.647	3298
909.762	3298
909.878	3256
909.993	3336
910.108	3321
910.224	3321
910.339	3424
910.454	3332
910.57	3253
910.685	3237
910.8	3568
910.915	3534
911.03	3428
911.145	3302
911.259	3325
911.374	3325
911.489	3268
911.604	3211
911.718	3127
911.833	3146
911.947	3024
912.062	2967
912.176	3173
912.291	3180
912.405	3195
912.519	3431
912.633	3462
912.748	3279
912.862	3218
912.976	3165
913.09	2998
913.204	3093
913.318	3169
913.431	3344
913.545	3313
913.659	3329
913.772	3321
913.886	3199
914	3176
914.113	3325
914.226	3378
914.34	3363
914.453	3214
914.566	3416
914.68	3268
914.793	3325
914.906	3097
915.019	3089
915.132	3036
915.245	3180
915.358	3199
915.47	3226
915.583	3237
915.696	3253
915.809	3370
915.921	3431
916.034	3222
916.146	3199
916.259	3195
916.371	3367
916.483	3355
916.595	3264
916.708	3348
916.82	3298
916.932	3313
917.044	3329
917.156	3310
917.268	3283
917.38	3279
917.491	3260
917.603	3355
917.715	3435
917.826	3454
917.938	3397
918.049	3279
918.161	3435
918.272	3599
918.384	3526
918.495	3530
918.606	3310
918.717	3294
918.828	3386
918.939	3420
919.05	3317
919.161	3374
919.272	3218
919.383	3294
919.494	3504
919.604	3698
919.715	3485
919.826	3420
919.936	3469
920.047	3603
920.157	3576
920.267	3797
920.378	3622
920.488	3584
920.598	3838
920.708	3972
920.818	3873
920.928	3884
921.038	4032
921.148	4063
921.258	3717
921.368	3671
921.477	3614
921.587	3584
921.697	3515
921.806	3656
921.916	3561
922.025	3382
922.134	3424
922.244	3344
922.353	3420
922.462	3287
922.571	3287
922.68	3169
922.789	3112
922.898	3146
923.007	3150
923.116	3218
923.224	3173
923.333	3226
923.442	3150
923.55	3135
923.659	3157
923.767	3226
923.876	3180
923.984	3279
924.092	3161
924.201	3264
924.309	3275
924.417	3329
924.525	3192
924.633	3313
924.741	4207
924.849	3070
924.956	3332
925.064	3146
925.172	3077
925.279	3123
925.387	3230
925.494	3275
925.602	3409
925.709	3389
925.816	3222
925.924	3287
926.031	3416
926.138	3370
926.245	3393
926.352	3298
926.459	3454
926.566	3519
926.673	3348
926.779	3310
926.886	3294
926.993	3161
927.099	3157
927.206	3154
927.312	3165
927.419	3283
927.525	3256
927.631	3321
927.737	3188
927.843	3154
927.95	3085
928.056	3188
928.162	3230
928.267	3332
928.373	3892
928.479	3310
928.585	3116
928.69	3233
928.796	3298
928.901	3199
929.007	3119
929.112	3214
929.218	3226
929.323	3203
929.428	3192
929.533	3313
929.638	3161
929.743	3211
929.848	3291
929.953	3253
930.058	3184
930.163	3028
930.267	3100
930.372	3230
930.477	3093
930.581	3321
930.685	3188
930.79	3085
930.894	3165
930.998	3138
931.103	3287
931.207	2967
931.311	2975
931.415	2960
931.519	2785
931.623	2819
