Data from test_V78500241_1884.txt Node
Date: Fri Mar 25 16:28:15 CST 2022
User: usil
Spectrometer: V785-0024
Trigger mode: 0
Integration Time (sec): 4.000000E-1
Scans to average: 1
Nonlinearity correction enabled: false
Boxcar width: 0
Storing dark spectrum: false
XAxis mode: Wavelengths
Number of Pixels in Spectrum: 1024
>>>>>Begin Spectral Data<<<<<
801.071	2929
801.214	2933
801.356	2933
801.499	2960
801.641	2922
801.783	2975
801.926	3062
802.068	3001
802.211	3005
802.353	3070
802.496	2975
802.638	3005
802.78	3039
802.923	3085
803.065	3032
803.208	2910
803.35	2944
803.492	2956
803.635	2971
803.777	2754
803.919	2902
804.061	3249
804.204	2944
804.346	2918
804.488	2864
804.63	3017
804.773	2929
804.915	2944
805.057	3131
805.199	2902
805.341	3005
805.483	3039
805.626	2998
805.768	2967
805.91	3093
806.052	3142
806.194	3055
806.336	3230
806.478	3051
806.62	2979
806.762	3009
806.904	3051
807.046	3188
807.188	3017
807.33	2933
807.472	2994
807.614	2899
807.756	3024
807.898	2948
808.04	2925
808.182	2963
808.324	2971
808.465	2872
808.607	2914
808.749	2800
808.891	2842
809.033	2975
809.174	2971
809.316	2891
809.458	2876
809.6	2804
809.741	2800
809.883	2781
810.025	2872
810.166	2849
810.308	2876
810.45	2883
810.591	2792
810.733	2769
810.875	2857
811.016	2807
811.158	2762
811.299	2842
811.441	2918
811.582	2895
811.724	2845
811.865	2845
812.007	2887
812.148	2895
812.29	2845
812.431	2925
812.573	2937
812.714	3001
812.855	3089
812.997	3074
813.138	3093
813.279	3017
813.421	2998
813.562	2956
813.703	2872
813.845	2910
813.986	2845
814.127	2731
814.268	2853
814.41	2872
814.551	2834
814.692	2887
814.833	2800
814.974	2922
815.115	2956
815.256	2823
815.397	2826
815.539	2861
815.68	2788
815.821	2823
815.962	2929
816.103	2929
816.244	2887
816.385	2868
816.526	2971
816.666	2937
816.807	2743
816.948	2906
817.089	2922
817.23	2834
817.371	2766
817.512	2758
817.653	2887
817.793	2807
817.934	2876
818.075	3005
818.216	2975
818.356	3001
818.497	2864
818.638	2811
818.778	2811
818.919	2838
819.06	2754
819.2	2861
819.341	2811
819.481	2857
819.622	2895
819.762	3112
819.903	3017
820.043	2929
820.184	2948
820.324	2910
820.465	3009
820.605	3051
820.746	3009
820.886	2952
821.026	3108
821.167	3161
821.307	3192
821.447	3272
821.588	3214
821.728	3260
821.868	3218
822.008	3093
822.149	3150
822.289	3226
822.429	3119
822.569	3093
822.709	3203
822.849	3009
822.99	3112
823.13	3131
823.27	3226
823.41	3150
823.55	3146
823.69	3138
823.83	3180
823.97	3123
824.11	3017
824.25	3032
824.389	3077
824.529	3131
824.669	3055
824.809	3199
824.949	3268
825.089	3184
825.228	3161
825.368	3032
825.508	2952
825.648	3001
825.787	3020
825.927	3013
826.067	2948
826.206	2963
826.346	3074
826.485	3005
826.625	3127
826.765	3298
826.904	3180
827.044	3013
827.183	2948
827.323	2880
827.462	2975
827.601	2876
827.741	2918
827.88	2944
828.02	2826
828.159	2971
828.298	3055
828.437	3116
828.577	3005
828.716	3233
828.855	3131
828.994	2941
829.134	2883
829.273	2925
829.412	2872
829.551	2868
829.69	2895
829.829	3005
829.968	3138
830.107	2990
830.246	2998
830.385	2929
830.524	2868
830.663	2796
830.802	2750
830.941	2689
831.08	2644
831.219	2788
831.357	2769
831.496	2941
831.635	2712
831.774	2636
831.913	2655
832.051	2522
832.19	2610
832.329	2689
832.467	2552
832.606	2503
832.744	2571
832.883	2587
833.022	2587
833.16	2640
833.299	2693
833.437	2705
833.576	2720
833.714	2701
833.852	2746
833.991	2754
834.129	2861
834.267	2864
834.406	2807
834.544	2883
834.682	2853
834.821	2872
834.959	3070
835.097	2914
835.235	3077
835.373	3013
835.511	3009
835.65	2952
835.788	2948
835.926	2823
836.064	2845
836.202	2842
836.34	3108
836.478	3169
836.615	3058
836.753	3100
836.891	3199
837.029	3165
837.167	3116
837.305	3066
837.443	3047
837.58	2986
837.718	3150
837.856	3051
837.993	3017
838.131	3089
838.269	3146
838.406	3081
838.544	3070
838.681	2914
838.819	2941
838.956	2804
839.094	2830
839.231	2925
839.369	3036
839.506	3386
839.643	3207
839.781	3009
839.918	2979
840.055	3047
840.193	3058
840.33	3119
840.467	3097
840.604	3150
840.742	3405
840.879	3036
841.016	3024
841.153	3108
841.29	3348
841.427	3306
841.564	3294
841.701	3321
841.838	3233
841.975	3123
842.112	3211
842.249	3093
842.385	3058
842.522	3268
842.659	3089
842.796	3055
842.933	3081
843.069	3055
843.206	3024
843.343	3199
843.479	3112
843.616	3127
843.752	2887
843.889	2838
844.025	3051
844.162	2891
844.298	3089
844.435	2952
844.571	2861
844.708	3104
844.844	3207
844.98	3218
845.117	3150
845.253	3028
845.389	3032
845.525	3085
845.661	3093
845.798	3005
845.934	3123
846.07	3077
846.206	3188
846.342	3321
846.478	3203
846.614	3085
846.75	3013
846.886	3032
847.022	3245
847.158	3199
847.294	3176
847.429	3211
847.565	3199
847.701	3507
847.837	3047
847.972	2971
848.108	3131
848.244	3169
848.379	2952
848.515	2944
848.65	2899
848.786	2979
848.921	2971
849.057	3097
849.192	3184
849.328	3074
849.463	3074
849.598	3032
849.734	3051
849.869	2967
850.004	2929
850.14	2982
850.275	2899
850.41	2815
850.545	2914
850.68	2944
850.815	2944
850.95	2929
851.085	3169
851.22	3097
851.355	3009
851.49	2994
851.625	2990
851.76	3024
851.895	2948
852.03	2887
852.165	3058
852.299	3142
852.434	3211
852.569	3085
852.703	3176
852.838	3253
852.973	3329
853.107	3310
853.242	3157
853.376	3085
853.511	3005
853.645	3058
853.78	3203
853.914	3116
854.048	3112
854.183	3089
854.317	3138
854.451	3298
854.585	3119
854.72	3112
854.854	3199
854.988	3058
855.122	3077
855.256	2994
855.39	3146
855.524	3203
855.658	3173
855.792	3112
855.926	3188
856.06	3214
856.194	3222
856.327	3157
856.461	3036
856.595	3081
856.729	3116
856.862	3180
856.996	3180
857.13	3192
857.263	3241
857.397	3272
857.53	3127
857.664	3199
857.797	3211
857.931	3222
858.064	3123
858.197	3188
858.331	3119
858.464	3108
858.597	2994
858.731	3142
858.864	3146
858.997	3077
859.13	3138
859.263	3157
859.396	3169
859.529	3097
859.662	3036
859.795	3055
859.928	3138
860.061	3256
860.194	3279
860.327	3119
860.46	3097
860.592	3211
860.725	3256
860.858	3230
860.99	3100
861.123	3020
861.256	3024
861.388	3146
861.521	3770
861.653	3028
861.786	2994
861.918	3028
862.05	3077
862.183	3108
862.315	3165
862.447	3184
862.58	3074
862.712	2982
862.844	2895
862.976	3009
863.108	2994
863.24	3287
863.372	2857
863.504	2975
863.636	2963
863.768	3009
863.9	2975
864.032	2906
864.164	2941
864.296	3017
864.428	3051
864.559	3119
864.691	3066
864.823	3085
864.954	3032
865.086	3047
865.217	2990
865.349	2960
865.48	2975
865.612	2979
865.743	3127
865.875	2975
866.006	2952
866.137	2956
866.269	2925
866.4	2933
866.531	2922
866.662	2872
866.793	2891
866.924	2902
867.055	2986
867.186	2929
867.317	2857
867.448	2834
867.579	2830
867.71	2872
867.841	2811
867.972	2849
868.103	2880
868.233	2857
868.364	2895
868.495	2929
868.625	3081
868.756	3138
868.886	2956
869.017	3020
869.147	3150
869.278	3161
869.408	3051
869.539	2975
869.669	3039
869.799	3039
869.929	3119
870.06	3135
870.19	3348
870.32	3302
870.45	3275
870.58	3378
870.71	3428
870.84	3431
870.97	3283
871.1	3253
871.23	3523
871.36	3435
871.489	3325
871.619	3351
871.749	3420
871.879	3409
872.008	3447
872.138	3332
872.267	3287
872.397	3138
872.526	3077
872.656	3028
872.785	3074
872.915	3218
873.044	3287
873.173	3237
873.303	3199
873.432	3211
873.561	3230
873.69	3127
873.819	3138
873.948	3173
874.077	3123
874.206	3055
874.335	3051
874.464	3237
874.593	3367
874.722	3253
874.851	3370
874.979	3344
875.108	3329
875.237	3138
875.365	3157
875.494	3165
875.623	3237
875.751	3032
875.88	3142
876.008	3218
876.136	3195
876.265	3420
876.393	3507
876.521	3382
876.65	3370
876.778	3302
876.906	3241
877.034	3173
877.162	3249
877.29	3157
877.418	3222
877.546	3256
877.674	3256
877.802	3211
877.93	3237
878.058	3154
878.185	3089
878.313	3176
878.441	3176
878.568	3097
878.696	3119
878.824	3256
878.951	3291
879.079	3454
879.206	3591
879.333	3386
879.461	3340
879.588	3374
879.715	3458
879.842	3549
879.97	3363
880.097	3142
880.224	3085
880.351	3173
880.478	3230
880.605	3199
880.732	3165
880.859	3492
880.986	3275
881.112	3340
881.239	3169
881.366	3097
881.493	3043
881.619	2990
881.746	3070
881.872	3066
881.999	3085
882.125	3142
882.252	3237
882.378	3268
882.505	3409
882.631	3241
882.757	3108
882.883	3211
883.01	3180
883.136	3154
883.262	3112
883.388	3093
883.514	3325
883.64	3332
883.766	3306
883.892	3195
884.018	3233
884.143	3363
884.269	3526
884.395	3211
884.52	3157
884.646	3173
884.772	3081
884.897	3085
885.023	3161
885.148	3344
885.274	3397
885.399	3367
885.524	3283
885.65	3245
885.775	3321
885.9	3249
886.025	3401
886.15	3363
886.275	3264
886.4	3226
886.525	3287
886.65	3249
886.775	3218
886.9	3477
887.025	3595
887.149	3435
887.274	3249
887.399	3192
887.523	3203
887.648	3176
887.773	3165
887.897	3351
888.021	3382
888.146	3294
888.27	3454
888.395	3523
888.519	3409
888.643	3435
888.767	3469
888.891	3302
889.015	3253
889.139	3272
889.263	3230
889.387	3412
889.511	3515
889.635	3447
889.759	3298
889.883	3313
890.006	3370
890.13	3488
890.254	3245
890.377	3332
890.501	3195
890.624	3161
890.748	3279
890.871	3207
890.995	3108
891.118	3081
891.241	3173
891.364	3237
891.488	3325
891.611	3195
891.734	3176
891.857	3302
891.98	3260
892.103	3348
892.226	3306
892.349	3207
892.471	3116
892.594	3218
892.717	3298
892.839	3283
892.962	3260
893.085	3340
893.207	3302
893.33	3138
893.452	3199
893.575	3306
893.697	3218
893.819	3450
893.941	3481
894.064	3439
894.186	3264
894.308	3253
894.43	3405
894.552	3496
894.674	3458
894.796	3253
894.918	3306
895.04	3287
895.161	3397
895.283	3363
895.405	3298
895.526	3306
895.648	3389
895.769	3435
895.891	3412
896.012	3435
896.134	3523
896.255	3393
896.376	3363
896.498	3351
896.619	3443
896.74	3348
896.861	3420
896.982	3671
897.103	3797
897.224	3599
897.345	3473
897.466	3405
897.587	3485
897.708	3580
897.828	3515
897.949	3416
898.07	3344
898.19	3424
898.311	3534
898.431	3458
898.552	3534
898.672	3603
898.792	3576
898.913	3477
899.033	3405
899.153	3275
899.273	3218
899.393	3264
899.513	3332
899.633	3302
899.753	3313
899.873	3329
899.993	3401
900.113	3351
900.232	3386
900.352	3329
900.472	3294
900.591	3233
900.711	3310
900.83	3195
900.95	3409
901.069	3477
901.189	3294
901.308	3157
901.427	3085
901.546	3230
901.665	3291
901.784	3336
901.904	3188
902.023	3154
902.141	3017
902.26	2979
902.379	3142
902.498	3047
902.617	3077
902.735	3207
902.854	3214
902.973	3207
903.091	3093
903.21	3058
903.328	3089
903.446	3116
903.565	3119
903.683	3169
903.801	3116
903.919	3218
904.038	3256
904.156	3169
904.274	3256
904.392	3233
904.51	3279
904.627	3264
904.745	3443
904.863	3488
904.981	3249
905.098	3188
905.216	3214
905.334	3287
905.451	3279
905.569	3272
905.686	3416
905.803	3443
905.921	3287
906.038	3435
906.155	3374
906.272	3256
906.389	3336
906.506	3195
906.623	3226
906.74	3275
906.857	3184
906.974	3233
907.091	3504
907.208	3526
907.324	3485
907.441	3344
907.557	3195
907.674	3214
907.79	3203
907.907	3272
908.023	3367
908.139	3332
908.256	3313
908.372	3405
908.488	3351
908.604	3272
908.72	3233
908.836	3302
908.952	3279
909.068	3329
909.184	3507
909.3	3382
909.415	3477
909.531	3469
909.647	3260
909.762	3287
909.878	3264
909.993	3355
910.108	3336
910.224	3351
910.339	3393
910.454	3355
910.57	3313
910.685	3237
910.8	3576
910.915	3500
911.03	3443
911.145	3256
911.259	3233
911.374	3351
911.489	3245
911.604	3253
911.718	3097
911.833	3165
911.947	3024
912.062	2986
912.176	3176
912.291	3192
912.405	3218
912.519	3420
912.633	3454
912.748	3291
912.862	3298
912.976	3169
913.09	3081
913.204	3135
913.318	3195
913.431	3321
913.545	3363
913.659	3405
913.772	3348
913.886	3233
914	3207
914.113	3378
914.226	3382
914.34	3329
914.453	3218
914.566	3397
914.68	3287
914.793	3310
914.906	3135
915.019	3116
915.132	3062
915.245	3127
915.358	3192
915.47	3230
915.583	3283
915.696	3298
915.809	3393
915.921	3386
916.034	3256
916.146	3260
916.259	3199
916.371	3355
916.483	3344
916.595	3287
916.708	3336
916.82	3317
916.932	3321
917.044	3340
917.156	3313
917.268	3233
917.38	3272
917.491	3253
917.603	3412
917.715	3428
917.826	3443
917.938	3370
918.049	3272
918.161	3435
918.272	3595
918.384	3534
918.495	3488
918.606	3336
918.717	3268
918.828	3336
918.939	3405
919.05	3310
919.161	3370
919.272	3173
919.383	3287
919.494	3515
919.604	3644
919.715	3500
919.826	3416
919.936	3469
920.047	3599
920.157	3576
920.267	3743
920.378	3660
920.488	3542
920.598	3785
920.708	3915
920.818	3827
920.928	3800
921.038	4032
921.148	3964
921.258	3663
921.368	3644
921.477	3587
921.587	3504
921.697	3439
921.806	3629
921.916	3530
922.025	3348
922.134	3359
922.244	3302
922.353	3416
922.462	3249
922.571	3195
922.68	3100
922.789	3077
922.898	3135
923.007	3097
923.116	3188
923.224	3142
923.333	3161
923.442	3135
923.55	3116
923.659	3138
923.767	3180
923.876	3119
923.984	3245
924.092	3081
924.201	3188
924.309	3226
924.417	3294
924.525	3230
924.633	3226
924.741	4017
924.849	3020
924.956	3233
925.064	3127
925.172	3028
925.279	3108
925.387	3222
925.494	3157
925.602	3367
925.709	3340
925.816	3214
925.924	3291
926.031	3386
926.138	3313
926.245	3401
926.352	3260
926.459	3397
926.566	3458
926.673	3317
926.779	3245
926.886	3260
926.993	3150
927.099	3135
927.206	3093
927.312	3116
927.419	3226
927.525	3203
927.631	3253
927.737	3157
927.843	3127
927.95	3058
928.056	3165
928.162	3165
928.267	3260
928.373	3854
928.479	3275
928.585	3066
928.69	3226
928.796	3241
928.901	3192
929.007	3017
929.112	3211
929.218	3207
929.323	3150
929.428	3127
929.533	3279
929.638	3112
929.743	3157
929.848	3306
929.953	3203
930.058	3116
930.163	3001
930.267	3058
930.372	3222
930.477	3051
930.581	3313
930.685	3207
930.79	3043
930.894	3097
930.998	3081
931.103	3287
931.207	2944
931.311	2941
931.415	2910
931.519	2746
931.623	2819
