Data from test_V78500241_98.txt Node
Date: Fri Mar 25 16:15:53 CST 2022
User: usil
Spectrometer: V785-0024
Trigger mode: 0
Integration Time (sec): 4.000000E-1
Scans to average: 1
Nonlinearity correction enabled: false
Boxcar width: 0
Storing dark spectrum: false
XAxis mode: Wavelengths
Number of Pixels in Spectrum: 1024
>>>>>Begin Spectral Data<<<<<
801.071	2944
801.214	2948
801.356	2891
801.499	2922
801.641	2910
801.783	2994
801.926	3077
802.068	3051
802.211	3017
802.353	3081
802.496	2986
802.638	3043
802.78	3104
802.923	3116
803.065	3024
803.208	2910
803.35	2982
803.492	2982
803.635	2941
803.777	2735
803.919	2895
804.061	3268
804.204	2994
804.346	2960
804.488	2853
804.63	2971
804.773	2880
804.915	2914
805.057	3119
805.199	2971
805.341	2998
805.483	3051
805.626	3032
805.768	3001
805.91	3089
806.052	3108
806.194	3062
806.336	3237
806.478	3058
806.62	2963
806.762	2944
806.904	3070
807.046	3169
807.188	3024
807.33	2941
807.472	3009
807.614	2971
807.756	3024
807.898	2963
808.04	2922
808.182	3009
808.324	2990
808.465	2937
808.607	2922
808.749	2842
808.891	2880
809.033	3005
809.174	3005
809.316	2895
809.458	2944
809.6	2796
809.741	2796
809.883	2762
810.025	2853
810.166	2845
810.308	2880
810.45	2887
810.591	2766
810.733	2807
810.875	2842
811.016	2819
811.158	2773
811.299	2826
811.441	2933
811.582	2944
811.724	2830
811.865	2830
812.007	2952
812.148	2906
812.29	2891
812.431	2899
812.573	2952
812.714	3020
812.855	3085
812.997	3081
813.138	3146
813.279	3020
813.421	2982
813.562	2986
813.703	2891
813.845	2906
813.986	2811
814.127	2735
814.268	2842
814.41	2834
814.551	2842
814.692	2891
814.833	2845
814.974	2906
815.115	2971
815.256	2864
815.397	2826
815.539	2891
815.68	2792
815.821	2845
815.962	2963
816.103	2929
816.244	2902
816.385	2845
816.526	2937
816.666	2910
816.807	2777
816.948	2960
817.089	2891
817.23	2902
817.371	2762
817.512	2834
817.653	2842
817.793	2815
817.934	2914
818.075	3005
818.216	3039
818.356	3043
818.497	2918
818.638	2804
818.778	2807
818.919	2811
819.06	2785
819.2	2883
819.341	2834
819.481	2804
819.622	2937
819.762	3100
819.903	3100
820.043	2956
820.184	2906
820.324	2918
820.465	3024
820.605	3036
820.746	3089
820.886	2975
821.026	3154
821.167	3188
821.307	3287
821.447	3298
821.588	3291
821.728	3226
821.868	3237
822.008	3154
822.149	3245
822.289	3302
822.429	3116
822.569	3142
822.709	3268
822.849	3066
822.99	3142
823.13	3237
823.27	3253
823.41	3169
823.55	3184
823.69	3214
823.83	3218
823.97	3161
824.11	3062
824.25	3055
824.389	3112
824.529	3203
824.669	3131
824.809	3275
824.949	3321
825.089	3287
825.228	3245
825.368	3051
825.508	2982
825.648	3051
825.787	3081
825.927	3077
826.067	3020
826.206	3039
826.346	3108
826.485	3142
826.625	3154
826.765	3340
826.904	3291
827.044	3081
827.183	3009
827.323	2925
827.462	3070
827.601	2967
827.741	3017
827.88	3001
828.02	2952
828.159	3043
828.298	3146
828.437	3184
828.577	3097
828.716	3294
828.855	3150
828.994	2971
829.134	2944
829.273	2975
829.412	2929
829.551	2899
829.69	2948
829.829	3028
829.968	3214
830.107	3097
830.246	3062
830.385	2982
830.524	2941
830.663	2902
830.802	2754
830.941	2697
831.08	2743
831.219	2781
831.357	2830
831.496	3017
831.635	2785
831.774	2697
831.913	2720
832.051	2613
832.19	2640
832.329	2758
832.467	2606
832.606	2530
832.744	2640
832.883	2632
833.022	2625
833.16	2720
833.299	2796
833.437	2788
833.576	2777
833.714	2762
833.852	2792
833.991	2807
834.129	2861
834.267	2891
834.406	2864
834.544	2899
834.682	2975
834.821	2914
834.959	3173
835.097	2922
835.235	3123
835.373	3081
835.511	3055
835.65	3043
835.788	3017
835.926	2902
836.064	2842
836.202	2922
836.34	3184
836.478	3237
836.615	3112
836.753	3188
836.891	3256
837.029	3214
837.167	3169
837.305	3138
837.443	3116
837.58	3020
837.718	3211
837.856	3085
837.993	3070
838.131	3195
838.269	3157
838.406	3176
838.544	3131
838.681	2982
838.819	2933
838.956	2887
839.094	2906
839.231	2967
839.369	3085
839.506	3424
839.643	3230
839.781	3062
839.918	3028
840.055	3074
840.193	3119
840.33	3142
840.467	3142
840.604	3222
840.742	3447
840.879	3085
841.016	3112
841.153	3184
841.29	3409
841.427	3344
841.564	3298
841.701	3359
841.838	3279
841.975	3249
842.112	3294
842.249	3150
842.385	3081
842.522	3291
842.659	3154
842.796	3108
842.933	3169
843.069	3097
843.206	3081
843.343	3237
843.479	3165
843.616	3176
843.752	2956
843.889	2933
844.025	3108
844.162	2922
844.298	3154
844.435	3009
844.571	2990
844.708	3184
844.844	3207
844.98	3294
845.117	3298
845.253	3093
845.389	3097
845.525	3154
845.661	3180
845.798	3066
845.934	3180
846.07	3051
846.206	3283
846.342	3344
846.478	3310
846.614	3127
846.75	3108
846.886	3085
847.022	3298
847.158	3192
847.294	3264
847.429	3325
847.565	3275
847.701	3553
847.837	3062
847.972	3070
848.108	3207
848.244	3222
848.379	3039
848.515	2979
848.65	2975
848.786	3005
848.921	3013
849.057	3127
849.192	3230
849.328	3131
849.463	3138
849.598	3085
849.734	3104
849.869	3036
850.004	2998
850.14	3028
850.275	2952
850.41	2910
850.545	2967
850.68	2960
850.815	2998
850.95	3020
851.085	3245
851.22	3154
851.355	3089
851.49	3058
851.625	3062
851.76	3085
851.895	2967
852.03	2982
852.165	3062
852.299	3165
852.434	3222
852.569	3214
852.703	3264
852.838	3332
852.973	3382
853.107	3370
853.242	3165
853.376	3142
853.511	3028
853.645	3108
853.78	3317
853.914	3184
854.048	3180
854.183	3150
854.317	3154
854.451	3340
854.585	3138
854.72	3112
854.854	3268
854.988	3108
855.122	3154
855.256	3024
855.39	3173
855.524	3306
855.658	3241
855.792	3218
855.926	3260
856.06	3275
856.194	3332
856.327	3214
856.461	3093
856.595	3161
856.729	3131
856.862	3245
856.996	3211
857.13	3253
857.263	3279
857.397	3317
857.53	3184
857.664	3237
857.797	3302
857.931	3329
858.064	3192
858.197	3272
858.331	3199
858.464	3119
858.597	3032
858.731	3180
858.864	3161
858.997	3097
859.13	3207
859.263	3218
859.396	3253
859.529	3123
859.662	3127
859.795	3058
859.928	3192
860.061	3298
860.194	3325
860.327	3184
860.46	3161
860.592	3302
860.725	3272
860.858	3298
860.99	3150
861.123	3138
861.256	3116
861.388	3157
861.521	3743
861.653	3066
861.786	3043
861.918	3039
862.05	3123
862.183	3154
862.315	3226
862.447	3203
862.58	3127
862.712	3043
862.844	2906
862.976	3085
863.108	3055
863.24	3492
863.372	2918
863.504	3043
863.636	3001
863.768	3043
863.9	3039
864.032	2967
864.164	2998
864.296	3077
864.428	3112
864.559	3135
864.691	3135
864.823	3058
864.954	3100
865.086	3093
865.217	3051
865.349	2975
865.48	3055
865.612	3043
865.743	3150
865.875	3020
866.006	2967
866.137	2994
866.269	2990
866.4	2986
866.531	2963
866.662	2937
866.793	2937
866.924	2952
867.055	3043
867.186	2998
867.317	2929
867.448	2880
867.579	2906
867.71	2887
867.841	2849
867.972	2929
868.103	2925
868.233	2918
868.364	2910
868.495	2956
868.625	3135
868.756	3169
868.886	3005
869.017	3123
869.147	3199
869.278	3195
869.408	3077
869.539	3077
869.669	3150
869.799	3081
869.929	3192
870.06	3161
870.19	3340
870.32	3355
870.45	3359
870.58	3454
870.71	3496
870.84	3485
870.97	3336
871.1	3294
871.23	3504
871.36	3542
871.489	3420
871.619	3462
871.749	3412
871.879	3454
872.008	3542
872.138	3405
872.267	3317
872.397	3192
872.526	3119
872.656	3081
872.785	3154
872.915	3317
873.044	3374
873.173	3287
873.303	3329
873.432	3313
873.561	3272
873.69	3199
873.819	3211
873.948	3233
874.077	3157
874.206	3085
874.335	3150
874.464	3264
874.593	3389
874.722	3332
874.851	3424
874.979	3420
875.108	3378
875.237	3222
875.365	3226
875.494	3199
875.623	3291
875.751	3135
875.88	3161
876.008	3253
876.136	3298
876.265	3454
876.393	3515
876.521	3454
876.65	3416
876.778	3405
876.906	3268
877.034	3214
877.162	3298
877.29	3218
877.418	3264
877.546	3317
877.674	3313
877.802	3253
877.93	3245
878.058	3184
878.185	3154
878.313	3226
878.441	3264
878.568	3116
878.696	3195
878.824	3279
878.951	3332
879.079	3507
879.206	3648
879.333	3481
879.461	3374
879.588	3431
879.715	3511
879.842	3629
879.97	3447
880.097	3249
880.224	3218
880.351	3253
880.478	3233
880.605	3237
880.732	3230
880.859	3553
880.986	3321
881.112	3393
881.239	3233
881.366	3131
881.493	3108
881.619	3062
881.746	3127
881.872	3116
881.999	3154
882.125	3214
882.252	3310
882.378	3329
882.505	3443
882.631	3374
882.757	3176
882.883	3241
883.01	3241
883.136	3199
883.262	3116
883.388	3150
883.514	3363
883.64	3382
883.766	3351
883.892	3214
884.018	3275
884.143	3409
884.269	3564
884.395	3260
884.52	3173
884.646	3237
884.772	3146
884.897	3161
885.023	3218
885.148	3389
885.274	3462
885.399	3401
885.524	3321
885.65	3325
885.775	3340
885.9	3336
886.025	3504
886.15	3405
886.275	3367
886.4	3264
886.525	3340
886.65	3260
886.775	3306
886.9	3568
887.025	3660
887.149	3481
887.274	3302
887.399	3199
887.523	3260
887.648	3218
887.773	3260
887.897	3447
888.021	3447
888.146	3348
888.27	3469
888.395	3587
888.519	3488
888.643	3511
888.767	3523
888.891	3351
889.015	3256
889.139	3351
889.263	3283
889.387	3462
889.511	3515
889.635	3466
889.759	3348
889.883	3306
890.006	3424
890.13	3511
890.254	3348
890.377	3367
890.501	3237
890.624	3249
890.748	3355
890.871	3237
890.995	3180
891.118	3070
891.241	3291
891.364	3283
891.488	3382
891.611	3207
891.734	3268
891.857	3348
891.98	3310
892.103	3374
892.226	3302
892.349	3245
892.471	3138
892.594	3294
892.717	3332
892.839	3287
892.962	3355
893.085	3389
893.207	3344
893.33	3169
893.452	3241
893.575	3386
893.697	3321
893.819	3511
893.941	3553
894.064	3488
894.186	3313
894.308	3355
894.43	3462
894.552	3561
894.674	3511
894.796	3306
894.918	3321
895.04	3325
895.161	3469
895.283	3435
895.405	3321
895.526	3447
895.648	3458
895.769	3500
895.891	3481
896.012	3519
896.134	3492
896.255	3420
896.376	3416
896.498	3412
896.619	3473
896.74	3412
896.861	3424
896.982	3701
897.103	3884
897.224	3667
897.345	3515
897.466	3500
897.587	3545
897.708	3648
897.828	3610
897.949	3462
898.07	3355
898.19	3488
898.311	3637
898.431	3481
898.552	3561
898.672	3641
898.792	3652
898.913	3504
899.033	3473
899.153	3332
899.273	3256
899.393	3329
899.513	3325
899.633	3363
899.753	3397
899.873	3306
899.993	3401
900.113	3348
900.232	3416
900.352	3386
900.472	3325
900.591	3233
900.711	3363
900.83	3268
900.95	3447
901.069	3564
901.189	3389
901.308	3218
901.427	3161
901.546	3226
901.665	3317
901.784	3370
901.904	3272
902.023	3184
902.141	3062
902.26	2990
902.379	3180
902.498	3074
902.617	3058
902.735	3264
902.854	3317
902.973	3237
903.091	3070
903.21	3116
903.328	3157
903.446	3146
903.565	3154
903.683	3222
903.801	3138
903.919	3237
904.038	3359
904.156	3169
904.274	3321
904.392	3275
904.51	3325
904.627	3344
904.745	3466
904.863	3534
904.981	3298
905.098	3245
905.216	3294
905.334	3344
905.451	3340
905.569	3378
905.686	3492
905.803	3447
905.921	3275
906.038	3496
906.155	3382
906.272	3317
906.389	3378
906.506	3253
906.623	3272
906.74	3291
906.857	3237
906.974	3272
907.091	3477
907.208	3576
907.324	3496
907.441	3420
907.557	3283
907.674	3256
907.79	3230
907.907	3306
908.023	3401
908.139	3431
908.256	3393
908.372	3351
908.488	3393
908.604	3321
908.72	3310
908.836	3283
908.952	3313
909.068	3389
909.184	3511
909.3	3435
909.415	3561
909.531	3538
909.647	3302
909.762	3317
909.878	3325
909.993	3397
910.108	3359
910.224	3374
910.339	3450
910.454	3401
910.57	3310
910.685	3321
910.8	3587
910.915	3542
911.03	3511
911.145	3260
911.259	3336
911.374	3329
911.489	3310
911.604	3272
911.718	3142
911.833	3195
911.947	3051
912.062	3043
912.176	3188
912.291	3230
912.405	3237
912.519	3473
912.633	3523
912.748	3359
912.862	3321
912.976	3184
913.09	3097
913.204	3146
913.318	3195
913.431	3340
913.545	3355
913.659	3443
913.772	3355
913.886	3287
914	3226
914.113	3355
914.226	3466
914.34	3409
914.453	3264
914.566	3473
914.68	3321
914.793	3336
914.906	3169
915.019	3154
915.132	3074
915.245	3207
915.358	3199
915.47	3264
915.583	3283
915.696	3313
915.809	3473
915.921	3450
916.034	3287
916.146	3249
916.259	3256
916.371	3420
916.483	3428
916.595	3310
916.708	3359
916.82	3386
916.932	3355
917.044	3401
917.156	3382
917.268	3302
917.38	3359
917.491	3279
917.603	3412
917.715	3462
917.826	3496
917.938	3424
918.049	3317
918.161	3443
918.272	3622
918.384	3610
918.495	3481
918.606	3420
918.717	3310
918.828	3424
918.939	3477
919.05	3329
919.161	3405
919.272	3195
919.383	3336
919.494	3526
919.604	3720
919.715	3515
919.826	3412
919.936	3511
920.047	3610
920.157	3572
920.267	3781
920.378	3660
920.488	3618
920.598	3762
920.708	3998
920.818	3823
920.928	3873
921.038	3983
921.148	4032
921.258	3751
921.368	3667
921.477	3614
921.587	3530
921.697	3492
921.806	3625
921.916	3534
922.025	3378
922.134	3378
922.244	3336
922.353	3473
922.462	3306
922.571	3253
922.68	3131
922.789	3123
922.898	3157
923.007	3131
923.116	3195
923.224	3203
923.333	3169
923.442	3127
923.55	3131
923.659	3161
923.767	3268
923.876	3150
923.984	3306
924.092	3135
924.201	3214
924.309	3260
924.417	3275
924.525	3207
924.633	3233
924.741	4246
924.849	3058
924.956	3302
925.064	3116
925.172	3093
925.279	3127
925.387	3211
925.494	3249
925.602	3389
925.709	3367
925.816	3203
925.924	3325
926.031	3420
926.138	3332
926.245	3397
926.352	3260
926.459	3454
926.566	3492
926.673	3340
926.779	3233
926.886	3329
926.993	3157
927.099	3165
927.206	3123
927.312	3150
927.419	3279
927.525	3226
927.631	3321
927.737	3165
927.843	3131
927.95	3062
928.056	3192
928.162	3249
928.267	3272
928.373	3850
928.479	3355
928.585	3123
928.69	3260
928.796	3317
928.901	3237
929.007	3051
929.112	3207
929.218	3188
929.323	3188
929.428	3226
929.533	3367
929.638	3104
929.743	3218
929.848	3298
929.953	3226
930.058	3154
930.163	3032
930.267	3104
930.372	3211
930.477	3077
930.581	3367
930.685	3260
930.79	3085
930.894	3131
930.998	3138
931.103	3325
931.207	2979
931.311	2986
931.415	2925
931.519	2785
931.623	2838
