Data from test_V78500241_1967.txt Node
Date: Fri Mar 25 16:28:49 CST 2022
User: usil
Spectrometer: V785-0024
Trigger mode: 0
Integration Time (sec): 4.000000E-1
Scans to average: 1
Nonlinearity correction enabled: false
Boxcar width: 0
Storing dark spectrum: false
XAxis mode: Wavelengths
Number of Pixels in Spectrum: 1024
>>>>>Begin Spectral Data<<<<<
801.071	2929
801.214	2952
801.356	2857
801.499	2895
801.641	2891
801.783	2948
801.926	3093
802.068	2998
802.211	3017
802.353	2990
802.496	2944
802.638	3024
802.78	3017
802.923	3051
803.065	3028
803.208	2887
803.35	2891
803.492	2925
803.635	2929
803.777	2746
803.919	2861
804.061	3180
804.204	2914
804.346	2922
804.488	2826
804.63	2967
804.773	2872
804.915	2906
805.057	3043
805.199	2925
805.341	2963
805.483	3081
805.626	2982
805.768	2941
805.91	3058
806.052	3138
806.194	3043
806.336	3184
806.478	3020
806.62	2929
806.762	3009
806.904	3032
807.046	3150
807.188	2944
807.33	2925
807.472	2998
807.614	2910
807.756	2956
807.898	2929
808.04	2899
808.182	2986
808.324	2971
808.465	2914
808.607	2853
808.749	2792
808.891	2834
809.033	2948
809.174	2963
809.316	2872
809.458	2887
809.6	2731
809.741	2743
809.883	2750
810.025	2830
810.166	2868
810.308	2830
810.45	2826
810.591	2758
810.733	2769
810.875	2838
811.016	2766
811.158	2758
811.299	2800
811.441	2933
811.582	2880
811.724	2815
811.865	2781
812.007	2883
812.148	2857
812.29	2861
812.431	2895
812.573	2933
812.714	2952
812.855	3036
812.997	3024
813.138	3116
813.279	3051
813.421	3005
813.562	2982
813.703	2880
813.845	2895
813.986	2758
814.127	2754
814.268	2826
814.41	2830
814.551	2788
814.692	2906
814.833	2807
814.974	2883
815.115	2944
815.256	2834
815.397	2781
815.539	2853
815.68	2800
815.821	2792
815.962	2925
816.103	2948
816.244	2864
816.385	2857
816.526	2952
816.666	2891
816.807	2754
816.948	2876
817.089	2895
817.23	2842
817.371	2773
817.512	2796
817.653	2876
817.793	2830
817.934	2891
818.075	2963
818.216	2960
818.356	3032
818.497	2853
818.638	2781
818.778	2785
818.919	2819
819.06	2754
819.2	2876
819.341	2826
819.481	2788
819.622	2941
819.762	3123
819.903	3047
820.043	2899
820.184	2902
820.324	2906
820.465	2956
820.605	3028
820.746	3058
820.886	2910
821.026	3127
821.167	3135
821.307	3226
821.447	3272
821.588	3237
821.728	3199
821.868	3192
822.008	3017
822.149	3207
822.289	3233
822.429	3097
822.569	3093
822.709	3173
822.849	3001
822.99	3081
823.13	3146
823.27	3214
823.41	3135
823.55	3127
823.69	3138
823.83	3199
823.97	3138
824.11	3005
824.25	2994
824.389	3055
824.529	3097
824.669	3066
824.809	3169
824.949	3241
825.089	3211
825.228	3157
825.368	3001
825.508	2994
825.648	2963
825.787	2960
825.927	3009
826.067	2925
826.206	2952
826.346	3028
826.485	3093
826.625	3157
826.765	3264
826.904	3161
827.044	2960
827.183	2925
827.323	2883
827.462	2971
827.601	2902
827.741	2925
827.88	2948
828.02	2807
828.159	2960
828.298	3028
828.437	3074
828.577	3020
828.716	3218
828.855	3066
828.994	2910
829.134	2868
829.273	2922
829.412	2868
829.551	2838
829.69	2853
829.829	2979
829.968	3131
830.107	3005
830.246	3005
830.385	2891
830.524	2872
830.663	2838
830.802	2720
830.941	2659
831.08	2629
831.219	2766
831.357	2727
831.496	2922
831.635	2743
831.774	2648
831.913	2625
832.051	2526
832.19	2598
832.329	2701
832.467	2549
832.606	2469
832.744	2560
832.883	2575
833.022	2590
833.16	2625
833.299	2670
833.437	2682
833.576	2731
833.714	2712
833.852	2731
833.991	2743
834.129	2800
834.267	2826
834.406	2807
834.544	2849
834.682	2868
834.821	2838
834.959	3058
835.097	2872
835.235	3051
835.373	2994
835.511	3013
835.65	2941
835.788	2952
835.926	2842
836.064	2838
836.202	2815
836.34	3077
836.478	3150
836.615	3058
836.753	3146
836.891	3245
837.029	3161
837.167	3089
837.305	3089
837.443	3009
837.58	2960
837.718	3116
837.856	3058
837.993	3013
838.131	3093
838.269	3104
838.406	3097
838.544	3062
838.681	2876
838.819	2906
838.956	2811
839.094	2811
839.231	2906
839.369	3051
839.506	3389
839.643	3199
839.781	2998
839.918	2956
840.055	3036
840.193	3036
840.33	3085
840.467	3104
840.604	3169
840.742	3393
840.879	3062
841.016	3062
841.153	3108
841.29	3378
841.427	3310
841.564	3287
841.701	3283
841.838	3214
841.975	3146
842.112	3211
842.249	3062
842.385	3013
842.522	3268
842.659	3066
842.796	3077
842.933	3074
843.069	3032
843.206	3051
843.343	3226
843.479	3093
843.616	3154
843.752	2895
843.889	2880
844.025	3070
844.162	2880
844.298	3074
844.435	2944
844.571	2887
844.708	3070
844.844	3169
844.98	3211
845.117	3180
845.253	3055
845.389	2956
845.525	3070
845.661	3077
845.798	3020
845.934	3119
846.07	3051
846.206	3214
846.342	3279
846.478	3218
846.614	3104
846.75	3047
846.886	3028
847.022	3253
847.158	3135
847.294	3203
847.429	3264
847.565	3195
847.701	3481
847.837	3051
847.972	2963
848.108	3142
848.244	3119
848.379	2967
848.515	2933
848.65	2941
848.786	2963
848.921	2982
849.057	3104
849.192	3116
849.328	3081
849.463	3081
849.598	3055
849.734	3013
849.869	2990
850.004	2918
850.14	2979
850.275	2922
850.41	2845
850.545	2861
850.68	2910
850.815	2937
850.95	2937
851.085	3184
851.22	3081
851.355	3032
851.49	2963
851.625	2998
851.76	2994
851.895	2914
852.03	2902
852.165	3043
852.299	3100
852.434	3199
852.569	3142
852.703	3146
852.838	3214
852.973	3348
853.107	3310
853.242	3142
853.376	3039
853.511	2922
853.645	3047
853.78	3222
853.914	3104
854.048	3108
854.183	3104
854.317	3154
854.451	3283
854.585	3100
854.72	3093
854.854	3218
854.988	3070
855.122	3058
855.256	2975
855.39	3119
855.524	3211
855.658	3131
855.792	3173
855.926	3188
856.06	3184
856.194	3253
856.327	3135
856.461	3074
856.595	3066
856.729	3085
856.862	3188
856.996	3165
857.13	3207
857.263	3230
857.397	3279
857.53	3116
857.664	3169
857.797	3245
857.931	3241
858.064	3161
858.197	3226
858.331	3135
858.464	3119
858.597	2967
858.731	3100
858.864	3169
858.997	3070
859.13	3131
859.263	3207
859.396	3214
859.529	3074
859.662	3074
859.795	3032
859.928	3116
860.061	3291
860.194	3298
860.327	3131
860.46	3085
860.592	3218
860.725	3241
860.858	3241
860.99	3100
861.123	3036
861.256	3032
861.388	3161
861.521	3838
861.653	3017
861.786	2990
861.918	2994
862.05	3055
862.183	3055
862.315	3116
862.447	3226
862.58	3081
862.712	2960
862.844	2880
862.976	2990
863.108	2998
863.24	3416
863.372	2864
863.504	2963
863.636	2952
863.768	3009
863.9	2998
864.032	2883
864.164	2906
864.296	2967
864.428	3047
864.559	3074
864.691	3070
864.823	3058
864.954	3032
865.086	3070
865.217	2986
865.349	2952
865.48	2960
865.612	3036
865.743	3131
865.875	2948
866.006	2952
866.137	3005
866.269	2922
866.4	2895
866.531	2887
866.662	2906
866.793	2899
866.924	2887
867.055	2952
867.186	2899
867.317	2849
867.448	2849
867.579	2857
867.71	2887
867.841	2826
867.972	2891
868.103	2902
868.233	2864
868.364	2857
868.495	2887
868.625	3066
868.756	3104
868.886	2963
869.017	3017
869.147	3165
869.278	3135
869.408	3058
869.539	3043
869.669	3093
869.799	3013
869.929	3100
870.06	3131
870.19	3302
870.32	3249
870.45	3260
870.58	3351
870.71	3420
870.84	3420
870.97	3272
871.1	3214
871.23	3507
871.36	3481
871.489	3351
871.619	3424
871.749	3416
871.879	3397
872.008	3473
872.138	3321
872.267	3230
872.397	3142
872.526	3066
872.656	2990
872.785	3077
872.915	3230
873.044	3332
873.173	3211
873.303	3203
873.432	3256
873.561	3211
873.69	3184
873.819	3119
873.948	3192
874.077	3100
874.206	3047
874.335	3089
874.464	3184
874.593	3291
874.722	3256
874.851	3359
874.979	3351
875.108	3298
875.237	3203
875.365	3165
875.494	3173
875.623	3222
875.751	3077
875.88	3104
876.008	3173
876.136	3226
876.265	3348
876.393	3504
876.521	3428
876.65	3382
876.778	3317
876.906	3260
877.034	3161
877.162	3222
877.29	3180
877.418	3260
877.546	3218
877.674	3233
877.802	3237
877.93	3260
878.058	3123
878.185	3116
878.313	3195
878.441	3203
878.568	3020
878.696	3138
878.824	3230
878.951	3294
879.079	3439
879.206	3618
879.333	3409
879.461	3332
879.588	3348
879.715	3534
879.842	3553
879.97	3374
880.097	3146
880.224	3123
880.351	3203
880.478	3203
880.605	3207
880.732	3176
880.859	3477
880.986	3310
881.112	3313
881.239	3214
881.366	3070
881.493	3024
881.619	3036
881.746	3028
881.872	3039
881.999	3070
882.125	3127
882.252	3272
882.378	3298
882.505	3450
882.631	3253
882.757	3180
882.883	3199
883.01	3230
883.136	3150
883.262	3077
883.388	3108
883.514	3306
883.64	3321
883.766	3321
883.892	3180
884.018	3203
884.143	3401
884.269	3538
884.395	3214
884.52	3142
884.646	3195
884.772	3123
884.897	3100
885.023	3233
885.148	3355
885.274	3443
885.399	3348
885.524	3272
885.65	3230
885.775	3298
885.9	3283
886.025	3454
886.15	3359
886.275	3275
886.4	3249
886.525	3294
886.65	3283
886.775	3264
886.9	3485
887.025	3618
887.149	3397
887.274	3241
887.399	3184
887.523	3211
887.648	3184
887.773	3169
887.897	3332
888.021	3412
888.146	3283
888.27	3431
888.395	3526
888.519	3435
888.643	3443
888.767	3378
888.891	3241
889.015	3230
889.139	3313
889.263	3272
889.387	3363
889.511	3519
889.635	3469
889.759	3287
889.883	3241
890.006	3344
890.13	3492
890.254	3218
890.377	3310
890.501	3211
890.624	3154
890.748	3283
890.871	3176
890.995	3055
891.118	3062
891.241	3146
891.364	3222
891.488	3287
891.611	3184
891.734	3237
891.857	3268
891.98	3233
892.103	3329
892.226	3272
892.349	3211
892.471	3108
892.594	3230
892.717	3279
892.839	3245
892.962	3272
893.085	3389
893.207	3302
893.33	3150
893.452	3188
893.575	3310
893.697	3253
893.819	3492
893.941	3538
894.064	3424
894.186	3272
894.308	3237
894.43	3428
894.552	3545
894.674	3488
894.796	3291
894.918	3256
895.04	3275
895.161	3428
895.283	3359
895.405	3332
895.526	3351
895.648	3401
895.769	3382
895.891	3416
896.012	3507
896.134	3458
896.255	3382
896.376	3378
896.498	3370
896.619	3428
896.74	3340
896.861	3401
896.982	3701
897.103	3854
897.224	3561
897.345	3511
897.466	3416
897.587	3485
897.708	3614
897.828	3557
897.949	3409
898.07	3332
898.19	3405
898.311	3614
898.431	3412
898.552	3492
898.672	3580
898.792	3584
898.913	3488
899.033	3374
899.153	3291
899.273	3211
899.393	3291
899.513	3298
899.633	3279
899.753	3340
899.873	3329
899.993	3378
900.113	3325
900.232	3374
900.352	3321
900.472	3306
900.591	3192
900.711	3279
900.83	3203
900.95	3382
901.069	3469
901.189	3317
901.308	3150
901.427	3100
901.546	3192
901.665	3302
901.784	3306
901.904	3233
902.023	3097
902.141	3009
902.26	2982
902.379	3131
902.498	3051
902.617	3028
902.735	3184
902.854	3211
902.973	3173
903.091	3032
903.21	3051
903.328	3093
903.446	3089
903.565	3085
903.683	3199
903.801	3104
903.919	3268
904.038	3264
904.156	3150
904.274	3275
904.392	3211
904.51	3241
904.627	3317
904.745	3443
904.863	3458
904.981	3241
905.098	3188
905.216	3230
905.334	3279
905.451	3287
905.569	3313
905.686	3420
905.803	3412
905.921	3264
906.038	3428
906.155	3370
906.272	3260
906.389	3321
906.506	3230
906.623	3253
906.74	3260
906.857	3131
906.974	3260
907.091	3469
907.208	3576
907.324	3500
907.441	3378
907.557	3260
907.674	3253
907.79	3222
907.907	3302
908.023	3367
908.139	3412
908.256	3317
908.372	3370
908.488	3351
908.604	3260
908.72	3253
908.836	3279
908.952	3283
909.068	3374
909.184	3523
909.3	3389
909.415	3526
909.531	3507
909.647	3298
909.762	3332
909.878	3287
909.993	3412
910.108	3313
910.224	3370
910.339	3469
910.454	3382
910.57	3306
910.685	3279
910.8	3591
910.915	3572
911.03	3431
911.145	3321
911.259	3279
911.374	3374
911.489	3283
911.604	3260
911.718	3157
911.833	3233
911.947	3074
912.062	3036
912.176	3195
912.291	3249
912.405	3249
912.519	3485
912.633	3488
912.748	3370
912.862	3294
912.976	3195
913.09	3085
913.204	3192
913.318	3233
913.431	3367
913.545	3405
913.659	3428
913.772	3378
913.886	3268
914	3195
914.113	3405
914.226	3458
914.34	3367
914.453	3249
914.566	3428
914.68	3344
914.793	3291
914.906	3211
915.019	3188
915.132	3112
915.245	3222
915.358	3253
915.47	3222
915.583	3310
915.696	3325
915.809	3473
915.921	3412
916.034	3287
916.146	3313
916.259	3279
916.371	3378
916.483	3409
916.595	3329
916.708	3367
916.82	3355
916.932	3389
917.044	3336
917.156	3348
917.268	3298
917.38	3306
917.491	3332
917.603	3393
917.715	3496
917.826	3488
917.938	3409
918.049	3310
918.161	3428
918.272	3614
918.384	3603
918.495	3511
918.606	3359
918.717	3294
918.828	3412
918.939	3447
919.05	3351
919.161	3405
919.272	3226
919.383	3325
919.494	3511
919.604	3713
919.715	3530
919.826	3435
919.936	3481
920.047	3595
920.157	3568
920.267	3808
920.378	3637
920.488	3584
920.598	3823
920.708	3994
920.818	3873
920.928	3899
921.038	4067
921.148	4048
921.258	3720
921.368	3694
921.477	3587
921.587	3534
921.697	3469
921.806	3644
921.916	3568
922.025	3389
922.134	3401
922.244	3355
922.353	3447
922.462	3279
922.571	3287
922.68	3150
922.789	3100
922.898	3161
923.007	3119
923.116	3233
923.224	3230
923.333	3203
923.442	3157
923.55	3131
923.659	3222
923.767	3230
923.876	3146
923.984	3283
924.092	3116
924.201	3207
924.309	3241
924.417	3283
924.525	3214
924.633	3249
924.741	4211
924.849	3116
924.956	3302
925.064	3131
925.172	3055
925.279	3104
925.387	3230
925.494	3218
925.602	3370
925.709	3367
925.816	3218
925.924	3332
926.031	3386
926.138	3363
926.245	3416
926.352	3287
926.459	3416
926.566	3519
926.673	3321
926.779	3249
926.886	3256
926.993	3237
927.099	3173
927.206	3165
927.312	3135
927.419	3249
927.525	3207
927.631	3332
927.737	3214
927.843	3154
927.95	3066
928.056	3180
928.162	3192
928.267	3260
928.373	3907
928.479	3344
928.585	3108
928.69	3241
928.796	3329
928.901	3199
929.007	3062
929.112	3233
929.218	3192
929.323	3192
929.428	3173
929.533	3363
929.638	3188
929.743	3176
929.848	3268
929.953	3199
930.058	3184
930.163	3009
930.267	3085
930.372	3233
930.477	3081
930.581	3313
930.685	3192
930.79	3093
930.894	3188
930.998	3100
931.103	3310
931.207	2982
931.311	2986
931.415	2929
931.519	2800
931.623	2845
