Data from test_V78500241_1457.txt Node
Date: Fri Mar 25 16:25:17 CST 2022
User: usil
Spectrometer: V785-0024
Trigger mode: 0
Integration Time (sec): 4.000000E-1
Scans to average: 1
Nonlinearity correction enabled: false
Boxcar width: 0
Storing dark spectrum: false
XAxis mode: Wavelengths
Number of Pixels in Spectrum: 1024
>>>>>Begin Spectral Data<<<<<
801.071	2925
801.214	2941
801.356	2853
801.499	2880
801.641	2857
801.783	2895
801.926	3039
802.068	2963
802.211	3009
802.353	2994
802.496	2956
802.638	3005
802.78	3032
802.923	3058
803.065	3005
803.208	2891
803.35	2883
803.492	2895
803.635	2925
803.777	2731
803.919	2853
804.061	3169
804.204	2902
804.346	2902
804.488	2849
804.63	2979
804.773	2830
804.915	2941
805.057	3074
805.199	2922
805.341	2937
805.483	3017
805.626	2990
805.768	2963
805.91	3085
806.052	3093
806.194	3032
806.336	3184
806.478	3028
806.62	2956
806.762	2937
806.904	3032
807.046	3135
807.188	2956
807.33	2922
807.472	2986
807.614	2876
807.756	2967
807.898	2895
808.04	2880
808.182	3005
808.324	2922
808.465	2853
808.607	2849
808.749	2807
808.891	2838
809.033	2960
809.174	2963
809.316	2876
809.458	2895
809.6	2750
809.741	2746
809.883	2773
810.025	2823
810.166	2845
810.308	2807
810.45	2857
810.591	2750
810.733	2758
810.875	2823
811.016	2743
811.158	2727
811.299	2800
811.441	2902
811.582	2914
811.724	2796
811.865	2857
812.007	2914
812.148	2857
812.29	2845
812.431	2910
812.573	2918
812.714	2941
812.855	3066
812.997	3051
813.138	3100
813.279	3028
813.421	2994
813.562	2933
813.703	2842
813.845	2876
813.986	2739
814.127	2708
814.268	2792
814.41	2857
814.551	2788
814.692	2849
814.833	2781
814.974	2895
815.115	2963
815.256	2823
815.397	2788
815.539	2868
815.68	2781
815.821	2773
815.962	2910
816.103	2880
816.244	2842
816.385	2876
816.526	2948
816.666	2906
816.807	2727
816.948	2883
817.089	2883
817.23	2845
817.371	2800
817.512	2754
817.653	2887
817.793	2785
817.934	2899
818.075	2982
818.216	3028
818.356	3032
818.497	2872
818.638	2781
818.778	2773
818.919	2811
819.06	2788
819.2	2868
819.341	2842
819.481	2777
819.622	2914
819.762	3070
819.903	3039
820.043	2929
820.184	2861
820.324	2883
820.465	3024
820.605	3036
820.746	2967
820.886	2880
821.026	3062
821.167	3142
821.307	3279
821.447	3253
821.588	3233
821.728	3188
821.868	3184
822.008	3051
822.149	3199
822.289	3188
822.429	3074
822.569	3074
822.709	3169
822.849	2994
822.99	3058
823.13	3154
823.27	3180
823.41	3077
823.55	3116
823.69	3112
823.83	3188
823.97	3051
824.11	2967
824.25	2918
824.389	3036
824.529	3070
824.669	3058
824.809	3176
824.949	3245
825.089	3192
825.228	3150
825.368	2975
825.508	2929
825.648	2952
825.787	3013
825.927	3020
826.067	2910
826.206	2899
826.346	3032
826.485	3070
826.625	3119
826.765	3241
826.904	3207
827.044	3039
827.183	2933
827.323	2868
827.462	2967
827.601	2895
827.741	2899
827.88	2937
828.02	2868
828.159	2990
828.298	3028
828.437	3108
828.577	2998
828.716	3233
828.855	3081
828.994	2910
829.134	2872
829.273	2944
829.412	2895
829.551	2853
829.69	2883
829.829	2963
829.968	3138
830.107	2998
830.246	2994
830.385	2941
830.524	2902
830.663	2819
830.802	2743
830.941	2651
831.08	2689
831.219	2777
831.357	2800
831.496	2956
831.635	2743
831.774	2644
831.913	2697
832.051	2545
832.19	2602
832.329	2678
832.467	2545
832.606	2514
832.744	2625
832.883	2621
833.022	2602
833.16	2686
833.299	2727
833.437	2716
833.576	2716
833.714	2743
833.852	2769
833.991	2807
834.129	2895
834.267	2849
834.406	2838
834.544	2918
834.682	2914
834.821	2922
834.959	3085
835.097	2922
835.235	3058
835.373	3039
835.511	3055
835.65	2979
835.788	2960
835.926	2864
836.064	2853
836.202	2899
836.34	3108
836.478	3180
836.615	3104
836.753	3154
836.891	3218
837.029	3176
837.167	3093
837.305	3108
837.443	3074
837.58	3005
837.718	3157
837.856	3100
837.993	3089
838.131	3176
838.269	3146
838.406	3138
838.544	3142
838.681	2982
838.819	2914
838.956	2864
839.094	2849
839.231	2979
839.369	3036
839.506	3393
839.643	3237
839.781	3047
839.918	2994
840.055	3062
840.193	3097
840.33	3097
840.467	3100
840.604	3192
840.742	3443
840.879	3100
841.016	3081
841.153	3150
841.29	3382
841.427	3332
841.564	3310
841.701	3367
841.838	3279
841.975	3199
842.112	3298
842.249	3116
842.385	3089
842.522	3306
842.659	3154
842.796	3112
842.933	3135
843.069	3039
843.206	3055
843.343	3218
843.479	3135
843.616	3180
843.752	2941
843.889	2872
844.025	3097
844.162	2929
844.298	3093
844.435	2952
844.571	2967
844.708	3089
844.844	3230
844.98	3256
845.117	3226
845.253	3093
845.389	3047
845.525	3161
845.661	3119
845.798	3043
845.934	3138
846.07	3093
846.206	3241
846.342	3363
846.478	3279
846.614	3150
846.75	3093
846.886	3066
847.022	3272
847.158	3180
847.294	3260
847.429	3256
847.565	3256
847.701	3492
847.837	3058
847.972	3032
848.108	3154
848.244	3154
848.379	3032
848.515	2944
848.65	2975
848.786	2998
848.921	3032
849.057	3100
849.192	3112
849.328	3127
849.463	3142
849.598	3112
849.734	3089
849.869	2990
850.004	2967
850.14	2994
850.275	2944
850.41	2868
850.545	2925
850.68	2929
850.815	2956
850.95	3039
851.085	3233
851.22	3150
851.355	3055
851.49	2998
851.625	3024
851.76	3013
851.895	2967
852.03	2941
852.165	3047
852.299	3123
852.434	3214
852.569	3146
852.703	3180
852.838	3253
852.973	3382
853.107	3351
853.242	3180
853.376	3135
853.511	2971
853.645	3043
853.78	3249
853.914	3180
854.048	3116
854.183	3085
854.317	3218
854.451	3310
854.585	3184
854.72	3112
854.854	3275
854.988	3081
855.122	3131
855.256	3051
855.39	3188
855.524	3241
855.658	3165
855.792	3169
855.926	3218
856.06	3283
856.194	3294
856.327	3188
856.461	3104
856.595	3161
856.729	3142
856.862	3245
856.996	3180
857.13	3226
857.263	3241
857.397	3310
857.53	3169
857.664	3226
857.797	3230
857.931	3256
858.064	3184
858.197	3233
858.331	3154
858.464	3138
858.597	3020
858.731	3116
858.864	3138
858.997	3123
859.13	3157
859.263	3180
859.396	3211
859.529	3123
859.662	3108
859.795	3104
859.928	3176
860.061	3279
860.194	3310
860.327	3161
860.46	3089
860.592	3245
860.725	3272
860.858	3291
860.99	3150
861.123	3089
861.256	3058
861.388	3165
861.521	3911
861.653	3062
861.786	2994
861.918	3005
862.05	3093
862.183	3123
862.315	3188
862.447	3245
862.58	3123
862.712	2941
862.844	2922
862.976	3085
863.108	3028
863.24	3340
863.372	2922
863.504	2971
863.636	2990
863.768	3036
863.9	3036
864.032	2918
864.164	2941
864.296	3009
864.428	3100
864.559	3116
864.691	3081
864.823	3081
864.954	3058
865.086	3081
865.217	3036
865.349	2998
865.48	2994
865.612	3047
865.743	3123
865.875	2971
866.006	2929
866.137	2994
866.269	2952
866.4	2952
866.531	2925
866.662	2914
866.793	2952
866.924	2918
867.055	2994
867.186	2925
867.317	2887
867.448	2876
867.579	2895
867.71	2891
867.841	2842
867.972	2925
868.103	2906
868.233	2906
868.364	2937
868.495	2918
868.625	3043
868.756	3214
868.886	2979
869.017	3051
869.147	3192
869.278	3199
869.408	3051
869.539	3058
869.669	3131
869.799	3066
869.929	3176
870.06	3138
870.19	3363
870.32	3329
870.45	3325
870.58	3424
870.71	3435
870.84	3481
870.97	3306
871.1	3245
871.23	3481
871.36	3473
871.489	3389
871.619	3416
871.749	3409
871.879	3473
872.008	3496
872.138	3370
872.267	3291
872.397	3169
872.526	3112
872.656	3081
872.785	3116
872.915	3226
873.044	3329
873.173	3256
873.303	3260
873.432	3264
873.561	3241
873.69	3188
873.819	3192
873.948	3203
874.077	3146
874.206	3108
874.335	3119
874.464	3249
874.593	3363
874.722	3233
874.851	3386
874.979	3378
875.108	3351
875.237	3264
875.365	3180
875.494	3192
875.623	3256
875.751	3165
875.88	3154
876.008	3211
876.136	3249
876.265	3363
876.393	3534
876.521	3454
876.65	3409
876.778	3355
876.906	3268
877.034	3211
877.162	3256
877.29	3226
877.418	3275
877.546	3260
877.674	3268
877.802	3241
877.93	3226
878.058	3173
878.185	3097
878.313	3249
878.441	3218
878.568	3066
878.696	3192
878.824	3287
878.951	3294
879.079	3450
879.206	3622
879.333	3435
879.461	3378
879.588	3386
879.715	3485
879.842	3633
879.97	3405
880.097	3173
880.224	3127
880.351	3222
880.478	3241
880.605	3192
880.732	3192
880.859	3515
880.986	3313
881.112	3329
881.239	3214
881.366	3154
881.493	3032
881.619	3032
881.746	3108
881.872	3108
881.999	3100
882.125	3161
882.252	3226
882.378	3291
882.505	3443
882.631	3302
882.757	3161
882.883	3218
883.01	3264
883.136	3154
883.262	3127
883.388	3123
883.514	3329
883.64	3367
883.766	3306
883.892	3230
884.018	3264
884.143	3420
884.269	3542
884.395	3233
884.52	3176
884.646	3226
884.772	3104
884.897	3131
885.023	3226
885.148	3363
885.274	3412
885.399	3363
885.524	3291
885.65	3298
885.775	3306
885.9	3272
886.025	3439
886.15	3401
886.275	3332
886.4	3237
886.525	3321
886.65	3275
886.775	3321
886.9	3492
887.025	3618
887.149	3435
887.274	3233
887.399	3192
887.523	3214
887.648	3203
887.773	3192
887.897	3389
888.021	3431
888.146	3310
888.27	3458
888.395	3557
888.519	3462
888.643	3500
888.767	3435
888.891	3317
889.015	3237
889.139	3268
889.263	3268
889.387	3447
889.511	3523
889.635	3462
889.759	3291
889.883	3287
890.006	3374
890.13	3477
890.254	3306
890.377	3363
890.501	3195
890.624	3211
890.748	3275
890.871	3214
890.995	3104
891.118	3077
891.241	3176
891.364	3222
891.488	3321
891.611	3214
891.734	3233
891.857	3317
891.98	3241
892.103	3382
892.226	3272
892.349	3237
892.471	3146
892.594	3230
892.717	3306
892.839	3287
892.962	3275
893.085	3344
893.207	3302
893.33	3161
893.452	3207
893.575	3310
893.697	3264
893.819	3473
893.941	3576
894.064	3466
894.186	3272
894.308	3294
894.43	3450
894.552	3526
894.674	3500
894.796	3298
894.918	3325
895.04	3336
895.161	3443
895.283	3389
895.405	3310
895.526	3355
895.648	3473
895.769	3458
895.891	3454
896.012	3485
896.134	3466
896.255	3447
896.376	3348
896.498	3363
896.619	3447
896.74	3389
896.861	3439
896.982	3698
897.103	3857
897.224	3599
897.345	3519
897.466	3447
897.587	3530
897.708	3629
897.828	3530
897.949	3466
898.07	3310
898.19	3401
898.311	3603
898.431	3450
898.552	3507
898.672	3629
898.792	3587
898.913	3519
899.033	3454
899.153	3310
899.273	3218
899.393	3306
899.513	3344
899.633	3256
899.753	3294
899.873	3294
899.993	3389
900.113	3325
900.232	3351
900.352	3348
900.472	3294
900.591	3195
900.711	3268
900.83	3233
900.95	3409
901.069	3519
901.189	3332
901.308	3161
901.427	3146
901.546	3199
901.665	3287
901.784	3332
901.904	3184
902.023	3161
902.141	3017
902.26	3032
902.379	3131
902.498	3085
902.617	3066
902.735	3237
902.854	3260
902.973	3211
903.091	3028
903.21	3081
903.328	3154
903.446	3119
903.565	3150
903.683	3226
903.801	3135
903.919	3256
904.038	3279
904.156	3195
904.274	3279
904.392	3249
904.51	3294
904.627	3298
904.745	3412
904.863	3526
904.981	3268
905.098	3230
905.216	3253
905.334	3272
905.451	3306
905.569	3321
905.686	3428
905.803	3466
905.921	3313
906.038	3412
906.155	3370
906.272	3275
906.389	3317
906.506	3237
906.623	3268
906.74	3291
906.857	3211
906.974	3306
907.091	3435
907.208	3595
907.324	3519
907.441	3397
907.557	3249
907.674	3268
907.79	3260
907.907	3348
908.023	3386
908.139	3412
908.256	3363
908.372	3401
908.488	3386
908.604	3302
908.72	3313
908.836	3310
908.952	3348
909.068	3378
909.184	3542
909.3	3409
909.415	3534
909.531	3534
909.647	3313
909.762	3306
909.878	3351
909.993	3428
910.108	3378
910.224	3355
910.339	3412
910.454	3389
910.57	3355
910.685	3268
910.8	3633
910.915	3576
911.03	3469
911.145	3329
911.259	3332
911.374	3374
911.489	3287
911.604	3249
911.718	3165
911.833	3241
911.947	3081
912.062	3055
912.176	3165
912.291	3218
912.405	3260
912.519	3481
912.633	3519
912.748	3374
912.862	3317
912.976	3207
913.09	3116
913.204	3169
913.318	3272
913.431	3405
913.545	3351
913.659	3466
913.772	3386
913.886	3253
914	3249
914.113	3355
914.226	3454
914.34	3397
914.453	3256
914.566	3469
914.68	3325
914.793	3348
914.906	3184
915.019	3127
915.132	3089
915.245	3230
915.358	3272
915.47	3256
915.583	3321
915.696	3344
915.809	3435
915.921	3431
916.034	3275
916.146	3313
916.259	3272
916.371	3435
916.483	3378
916.595	3310
916.708	3363
916.82	3359
916.932	3393
917.044	3389
917.156	3401
917.268	3264
917.38	3332
917.491	3344
917.603	3393
917.715	3515
917.826	3473
917.938	3409
918.049	3310
918.161	3488
918.272	3618
918.384	3641
918.495	3515
918.606	3389
918.717	3340
918.828	3431
918.939	3428
919.05	3321
919.161	3397
919.272	3230
919.383	3313
919.494	3538
919.604	3698
919.715	3534
919.826	3420
919.936	3526
920.047	3637
920.157	3587
920.267	3751
920.378	3648
920.488	3606
920.598	3819
920.708	3972
920.818	3892
920.928	3789
921.038	4013
921.148	4006
921.258	3694
921.368	3656
921.477	3587
921.587	3572
921.697	3488
921.806	3641
921.916	3576
922.025	3420
922.134	3378
922.244	3336
922.353	3428
922.462	3313
922.571	3230
922.68	3150
922.789	3135
922.898	3173
923.007	3138
923.116	3275
923.224	3203
923.333	3249
923.442	3157
923.55	3127
923.659	3157
923.767	3237
923.876	3184
923.984	3272
924.092	3074
924.201	3253
924.309	3226
924.417	3275
924.525	3184
924.633	3283
924.741	4219
924.849	3074
924.956	3291
925.064	3089
925.172	3108
925.279	3146
925.387	3222
925.494	3203
925.602	3393
925.709	3317
925.816	3203
925.924	3302
926.031	3389
926.138	3359
926.245	3401
926.352	3306
926.459	3397
926.566	3492
926.673	3382
926.779	3306
926.886	3298
926.993	3192
927.099	3176
927.206	3142
927.312	3157
927.419	3279
927.525	3253
927.631	3306
927.737	3180
927.843	3116
927.95	3058
928.056	3176
928.162	3188
928.267	3249
928.373	3797
928.479	3336
928.585	3116
928.69	3226
928.796	3310
928.901	3230
929.007	3089
929.112	3245
929.218	3211
929.323	3169
929.428	3184
929.533	3317
929.638	3138
929.743	3207
929.848	3298
929.953	3256
930.058	3184
930.163	2979
930.267	3081
930.372	3192
930.477	3058
930.581	3336
930.685	3192
930.79	3112
930.894	3154
930.998	3119
931.103	3313
931.207	2979
931.311	2982
931.415	2944
931.519	2800
931.623	2819
