Data from test_V78500241_1211.txt Node
Date: Fri Mar 25 16:23:35 CST 2022
User: usil
Spectrometer: V785-0024
Trigger mode: 0
Integration Time (sec): 4.000000E-1
Scans to average: 1
Nonlinearity correction enabled: false
Boxcar width: 0
Storing dark spectrum: false
XAxis mode: Wavelengths
Number of Pixels in Spectrum: 1024
>>>>>Begin Spectral Data<<<<<
801.071	2925
801.214	2937
801.356	2899
801.499	2895
801.641	2826
801.783	2929
801.926	3062
802.068	2952
802.211	2990
802.353	3039
802.496	2979
802.638	3043
802.78	3055
802.923	3074
803.065	3028
803.208	2883
803.35	2895
803.492	2910
803.635	2937
803.777	2766
803.919	2830
804.061	3165
804.204	2986
804.346	2944
804.488	2834
804.63	2963
804.773	2880
804.915	2910
805.057	3043
805.199	2925
805.341	2967
805.483	3066
805.626	3020
805.768	2960
805.91	3081
806.052	3104
806.194	3001
806.336	3264
806.478	3036
806.62	2925
806.762	2975
806.904	3074
807.046	3135
807.188	2952
807.33	2929
807.472	3001
807.614	2925
807.756	2990
807.898	2914
808.04	2895
808.182	2956
808.324	2941
808.465	2880
808.607	2857
808.749	2788
808.891	2853
809.033	2956
809.174	2956
809.316	2902
809.458	2872
809.6	2739
809.741	2731
809.883	2754
810.025	2849
810.166	2864
810.308	2826
810.45	2826
810.591	2731
810.733	2743
810.875	2826
811.016	2781
811.158	2796
811.299	2792
811.441	2922
811.582	2895
811.724	2830
811.865	2826
812.007	2864
812.148	2857
812.29	2857
812.431	2902
812.573	2887
812.714	2990
812.855	3028
812.997	3066
813.138	3116
813.279	2998
813.421	2990
813.562	2975
813.703	2906
813.845	2845
813.986	2769
814.127	2739
814.268	2819
814.41	2853
814.551	2788
814.692	2876
814.833	2819
814.974	2906
815.115	2914
815.256	2845
815.397	2830
815.539	2849
815.68	2750
815.821	2777
815.962	2925
816.103	2948
816.244	2826
816.385	2891
816.526	2967
816.666	2922
816.807	2716
816.948	2834
817.089	2914
817.23	2823
817.371	2758
817.512	2804
817.653	2864
817.793	2838
817.934	2876
818.075	2952
818.216	2986
818.356	3036
818.497	2876
818.638	2754
818.778	2785
818.919	2815
819.06	2754
819.2	2845
819.341	2773
819.481	2796
819.622	2937
819.762	3097
819.903	3020
820.043	2899
820.184	2880
820.324	2868
820.465	3001
820.605	3005
820.746	3001
820.886	2941
821.026	3100
821.167	3146
821.307	3283
821.447	3287
821.588	3245
821.728	3203
821.868	3199
822.008	3097
822.149	3207
822.289	3214
822.429	3062
822.569	3108
822.709	3184
822.849	3020
822.99	3112
823.13	3188
823.27	3218
823.41	3116
823.55	3146
823.69	3199
823.83	3211
823.97	3108
824.11	3009
824.25	2975
824.389	3089
824.529	3135
824.669	3066
824.809	3241
824.949	3287
825.089	3245
825.228	3146
825.368	3043
825.508	2979
825.648	2998
825.787	3043
825.927	3055
826.067	3001
826.206	2971
826.346	3100
826.485	3116
826.625	3093
826.765	3268
826.904	3260
827.044	3036
827.183	2994
827.323	2902
827.462	3013
827.601	2948
827.741	2982
827.88	2963
828.02	2876
828.159	3009
828.298	3081
828.437	3135
828.577	3066
828.716	3291
828.855	3112
828.994	2971
829.134	2929
829.273	2956
829.412	2906
829.551	2925
829.69	2876
829.829	3009
829.968	3154
830.107	3032
830.246	3081
830.385	2902
830.524	2922
830.663	2845
830.802	2750
830.941	2720
831.08	2670
831.219	2777
831.357	2807
831.496	3001
831.635	2773
831.774	2701
831.913	2678
832.051	2587
832.19	2636
832.329	2739
832.467	2575
832.606	2511
832.744	2594
832.883	2617
833.022	2613
833.16	2678
833.299	2739
833.437	2708
833.576	2735
833.714	2766
833.852	2769
833.991	2823
834.129	2857
834.267	2864
834.406	2826
834.544	2925
834.682	2922
834.821	2910
834.959	3070
835.097	2929
835.235	3089
835.373	3024
835.511	3055
835.65	3024
835.788	3009
835.926	2910
836.064	2842
836.202	2876
836.34	3146
836.478	3173
836.615	3058
836.753	3157
836.891	3249
837.029	3188
837.167	3135
837.305	3097
837.443	3074
837.58	2941
837.718	3127
837.856	3116
837.993	3085
838.131	3169
838.269	3169
838.406	3100
838.544	3085
838.681	2960
838.819	2922
838.956	2849
839.094	2868
839.231	2979
839.369	3062
839.506	3439
839.643	3226
839.781	3066
839.918	2979
840.055	3070
840.193	3077
840.33	3100
840.467	3112
840.604	3165
840.742	3428
840.879	3085
841.016	3077
841.153	3138
841.29	3348
841.427	3370
841.564	3310
841.701	3351
841.838	3226
841.975	3218
842.112	3264
842.249	3119
842.385	3055
842.522	3249
842.659	3127
842.796	3093
842.933	3112
843.069	3093
843.206	3043
843.343	3211
843.479	3104
843.616	3180
843.752	2925
843.889	2880
844.025	3093
844.162	2895
844.298	3085
844.435	2990
844.571	2906
844.708	3074
844.844	3207
844.98	3214
845.117	3230
845.253	3081
845.389	3009
845.525	3131
845.661	3135
845.798	3081
845.934	3161
846.07	3077
846.206	3226
846.342	3336
846.478	3237
846.614	3100
846.75	3077
846.886	3036
847.022	3279
847.158	3161
847.294	3218
847.429	3253
847.565	3233
847.701	3507
847.837	3058
847.972	3047
848.108	3195
848.244	3173
848.379	3032
848.515	2971
848.65	2929
848.786	3017
848.921	3043
849.057	3146
849.192	3142
849.328	3066
849.463	3127
849.598	3062
849.734	3047
849.869	2986
850.004	2933
850.14	3013
850.275	2952
850.41	2842
850.545	2887
850.68	2956
850.815	2971
850.95	2994
851.085	3180
851.22	3104
851.355	3062
851.49	2994
851.625	3058
851.76	3024
851.895	2941
852.03	2906
852.165	3058
852.299	3123
852.434	3192
852.569	3176
852.703	3203
852.838	3253
852.973	3393
853.107	3332
853.242	3188
853.376	3112
853.511	2998
853.645	3020
853.78	3279
853.914	3100
854.048	3108
854.183	3100
854.317	3142
854.451	3310
854.585	3161
854.72	3077
854.854	3237
854.988	3123
855.122	3104
855.256	3017
855.39	3131
855.524	3272
855.658	3237
855.792	3184
855.926	3211
856.06	3264
856.194	3253
856.327	3184
856.461	3085
856.595	3112
856.729	3131
856.862	3230
856.996	3173
857.13	3157
857.263	3241
857.397	3321
857.53	3127
857.664	3199
857.797	3268
857.931	3256
858.064	3165
858.197	3230
858.331	3146
858.464	3165
858.597	3017
858.731	3154
858.864	3184
858.997	3112
859.13	3192
859.263	3184
859.396	3222
859.529	3119
859.662	3112
859.795	3074
859.928	3165
860.061	3313
860.194	3272
860.327	3150
860.46	3127
860.592	3268
860.725	3264
860.858	3268
860.99	3154
861.123	3070
861.256	3074
861.388	3184
861.521	3789
861.653	3036
861.786	3032
861.918	3055
862.05	3093
862.183	3066
862.315	3173
862.447	3237
862.58	3135
862.712	2914
862.844	2929
862.976	2986
863.108	3043
863.24	3473
863.372	2922
863.504	3024
863.636	2975
863.768	3017
863.9	2994
864.032	2948
864.164	2960
864.296	3039
864.428	3131
864.559	3108
864.691	3074
864.823	3055
864.954	3032
865.086	3020
865.217	2986
865.349	2979
865.48	3013
865.612	3062
865.743	3161
865.875	3005
866.006	2941
866.137	2994
866.269	2960
866.4	3017
866.531	2941
866.662	2929
866.793	2906
866.924	2895
867.055	2998
867.186	2906
867.317	2880
867.448	2918
867.579	2853
867.71	2861
867.841	2823
867.972	2891
868.103	2910
868.233	2887
868.364	2918
868.495	2918
868.625	3112
868.756	3192
868.886	2963
869.017	2986
869.147	3180
869.278	3184
869.408	3081
869.539	3055
869.669	3055
869.799	3077
869.929	3157
870.06	3138
870.19	3325
870.32	3302
870.45	3291
870.58	3367
870.71	3469
870.84	3454
870.97	3306
871.1	3275
871.23	3477
871.36	3523
871.489	3367
871.619	3412
871.749	3439
871.879	3447
872.008	3462
872.138	3386
872.267	3268
872.397	3135
872.526	3116
872.656	2998
872.785	3131
872.915	3237
873.044	3310
873.173	3230
873.303	3260
873.432	3237
873.561	3256
873.69	3161
873.819	3112
873.948	3192
874.077	3104
874.206	3028
874.335	3100
874.464	3214
874.593	3355
874.722	3256
874.851	3389
874.979	3325
875.108	3344
875.237	3180
875.365	3195
875.494	3161
875.623	3237
875.751	3070
875.88	3127
876.008	3184
876.136	3237
876.265	3359
876.393	3496
876.521	3439
876.65	3397
876.778	3332
876.906	3256
877.034	3253
877.162	3241
877.29	3211
877.418	3264
877.546	3264
877.674	3272
877.802	3237
877.93	3230
878.058	3173
878.185	3119
878.313	3256
878.441	3218
878.568	3093
878.696	3184
878.824	3249
878.951	3310
879.079	3401
879.206	3599
879.333	3420
879.461	3363
879.588	3363
879.715	3538
879.842	3614
879.97	3405
880.097	3176
880.224	3104
880.351	3195
880.478	3203
880.605	3180
880.732	3195
880.859	3492
880.986	3294
881.112	3355
881.239	3211
881.366	3093
881.493	3066
881.619	2998
881.746	3112
881.872	3119
881.999	3138
882.125	3123
882.252	3306
882.378	3298
882.505	3439
882.631	3272
882.757	3138
882.883	3199
883.01	3230
883.136	3157
883.262	3108
883.388	3119
883.514	3374
883.64	3348
883.766	3336
883.892	3226
884.018	3199
884.143	3405
884.269	3515
884.395	3195
884.52	3188
884.646	3192
884.772	3135
884.897	3089
885.023	3195
885.148	3329
885.274	3409
885.399	3370
885.524	3260
885.65	3249
885.775	3329
885.9	3291
886.025	3454
886.15	3363
886.275	3317
886.4	3275
886.525	3291
886.65	3275
886.775	3275
886.9	3557
887.025	3618
887.149	3412
887.274	3302
887.399	3188
887.523	3211
887.648	3184
887.773	3203
887.897	3397
888.021	3412
888.146	3310
888.27	3397
888.395	3568
888.519	3443
888.643	3466
888.767	3450
888.891	3310
889.015	3226
889.139	3306
889.263	3272
889.387	3435
889.511	3538
889.635	3428
889.759	3313
889.883	3264
890.006	3401
890.13	3492
890.254	3275
890.377	3340
890.501	3211
890.624	3176
890.748	3272
890.871	3176
890.995	3127
891.118	3085
891.241	3230
891.364	3260
891.488	3310
891.611	3203
891.734	3203
891.857	3268
891.98	3253
892.103	3374
892.226	3287
892.349	3237
892.471	3146
892.594	3237
892.717	3306
892.839	3230
892.962	3302
893.085	3359
893.207	3329
893.33	3161
893.452	3214
893.575	3359
893.697	3264
893.819	3443
893.941	3530
894.064	3447
894.186	3294
894.308	3294
894.43	3469
894.552	3587
894.674	3488
894.796	3253
894.918	3317
895.04	3306
895.161	3412
895.283	3378
895.405	3298
895.526	3405
895.648	3466
895.769	3409
895.891	3447
896.012	3515
896.134	3492
896.255	3462
896.376	3359
896.498	3340
896.619	3462
896.74	3393
896.861	3389
896.982	3663
897.103	3831
897.224	3603
897.345	3500
897.466	3454
897.587	3500
897.708	3641
897.828	3572
897.949	3447
898.07	3355
898.19	3409
898.311	3591
898.431	3439
898.552	3469
898.672	3545
898.792	3603
898.913	3530
899.033	3435
899.153	3317
899.273	3199
899.393	3313
899.513	3306
899.633	3386
899.753	3355
899.873	3298
899.993	3386
900.113	3348
900.232	3382
900.352	3313
900.472	3302
900.591	3233
900.711	3275
900.83	3233
900.95	3405
901.069	3481
901.189	3348
901.308	3180
901.427	3131
901.546	3199
901.665	3283
901.784	3367
901.904	3218
902.023	3157
902.141	3013
902.26	2975
902.379	3154
902.498	3104
902.617	3081
902.735	3222
902.854	3188
902.973	3180
903.091	3024
903.21	3043
903.328	3131
903.446	3093
903.565	3077
903.683	3222
903.801	3108
903.919	3230
904.038	3306
904.156	3176
904.274	3275
904.392	3260
904.51	3351
904.627	3329
904.745	3462
904.863	3526
904.981	3253
905.098	3146
905.216	3203
905.334	3264
905.451	3283
905.569	3275
905.686	3420
905.803	3443
905.921	3291
906.038	3416
906.155	3363
906.272	3275
906.389	3344
906.506	3233
906.623	3264
906.74	3233
906.857	3180
906.974	3302
907.091	3466
907.208	3572
907.324	3431
907.441	3386
907.557	3249
907.674	3272
907.79	3260
907.907	3272
908.023	3405
908.139	3321
908.256	3329
908.372	3336
908.488	3340
908.604	3268
908.72	3222
908.836	3291
908.952	3256
909.068	3306
909.184	3454
909.3	3370
909.415	3504
909.531	3507
909.647	3268
909.762	3287
909.878	3253
909.993	3378
910.108	3359
910.224	3325
910.339	3389
910.454	3310
910.57	3298
910.685	3245
910.8	3595
910.915	3538
911.03	3443
911.145	3302
911.259	3279
911.374	3306
911.489	3264
911.604	3222
911.718	3108
911.833	3138
911.947	3051
912.062	2990
912.176	3154
912.291	3180
912.405	3245
912.519	3386
912.633	3450
912.748	3321
912.862	3291
912.976	3192
913.09	3104
913.204	3142
913.318	3203
913.431	3374
913.545	3325
913.659	3370
913.772	3321
913.886	3226
914	3199
914.113	3344
914.226	3405
914.34	3363
914.453	3203
914.566	3405
914.68	3287
914.793	3332
914.906	3127
915.019	3093
915.132	3077
915.245	3173
915.358	3207
915.47	3264
915.583	3264
915.696	3298
915.809	3367
915.921	3435
916.034	3264
916.146	3268
916.259	3218
916.371	3393
916.483	3344
916.595	3256
916.708	3340
916.82	3355
916.932	3310
917.044	3332
917.156	3340
917.268	3268
917.38	3336
917.491	3272
917.603	3348
917.715	3412
917.826	3462
917.938	3424
918.049	3302
918.161	3454
918.272	3511
918.384	3572
918.495	3477
918.606	3329
918.717	3264
918.828	3374
918.939	3416
919.05	3256
919.161	3378
919.272	3207
919.383	3241
919.494	3496
919.604	3679
919.715	3435
919.826	3363
919.936	3492
920.047	3580
920.157	3553
920.267	3774
920.378	3568
920.488	3576
920.598	3751
920.708	3922
920.818	3835
920.928	3804
921.038	4006
921.148	3987
921.258	3698
921.368	3625
921.477	3553
921.587	3507
921.697	3431
921.806	3591
921.916	3515
922.025	3386
922.134	3370
922.244	3310
922.353	3412
922.462	3256
922.571	3260
922.68	3119
922.789	3093
922.898	3135
923.007	3097
923.116	3192
923.224	3184
923.333	3195
923.442	3077
923.55	3070
923.659	3165
923.767	3214
923.876	3100
923.984	3199
924.092	3100
924.201	3230
924.309	3188
924.417	3279
924.525	3150
924.633	3237
924.741	4032
924.849	3066
924.956	3313
925.064	3062
925.172	3009
925.279	3085
925.387	3184
925.494	3169
925.602	3317
925.709	3283
925.816	3176
925.924	3294
926.031	3416
926.138	3302
926.245	3325
926.352	3245
926.459	3405
926.566	3507
926.673	3294
926.779	3272
926.886	3245
926.993	3116
927.099	3154
927.206	3104
927.312	3100
927.419	3230
927.525	3199
927.631	3260
927.737	3127
927.843	3146
927.95	3024
928.056	3112
928.162	3218
928.267	3253
928.373	3857
928.479	3291
928.585	3039
928.69	3237
928.796	3256
928.901	3161
929.007	3020
929.112	3207
929.218	3180
929.323	3154
929.428	3135
929.533	3302
929.638	3127
929.743	3165
929.848	3260
929.953	3230
930.058	3165
930.163	2967
930.267	3001
930.372	3184
930.477	3039
930.581	3310
930.685	3165
930.79	3058
930.894	3123
930.998	3085
931.103	3291
931.207	2982
931.311	2944
931.415	2929
931.519	2792
931.623	2800
