Data from test_V78500241_544.txt Node
Date: Fri Mar 25 16:18:58 CST 2022
User: usil
Spectrometer: V785-0024
Trigger mode: 0
Integration Time (sec): 4.000000E-1
Scans to average: 1
Nonlinearity correction enabled: false
Boxcar width: 0
Storing dark spectrum: false
XAxis mode: Wavelengths
Number of Pixels in Spectrum: 1024
>>>>>Begin Spectral Data<<<<<
801.071	2922
801.214	2929
801.356	2849
801.499	2899
801.641	2834
801.783	2910
801.926	3055
802.068	2929
802.211	3013
802.353	2990
802.496	2948
802.638	2975
802.78	3058
802.923	3047
803.065	2994
803.208	2929
803.35	2883
803.492	2925
803.635	2933
803.777	2769
803.919	2830
804.061	3199
804.204	2937
804.346	2937
804.488	2834
804.63	2982
804.773	2830
804.915	2906
805.057	3085
805.199	2929
805.341	2941
805.483	3032
805.626	2994
805.768	2952
805.91	3093
806.052	3085
806.194	3032
806.336	3218
806.478	3028
806.62	2994
806.762	2986
806.904	3070
807.046	3165
807.188	2941
807.33	2937
807.472	2986
807.614	2929
807.756	2960
807.898	2944
808.04	2849
808.182	2975
808.324	2956
808.465	2880
808.607	2830
808.749	2796
808.891	2868
809.033	2944
809.174	2986
809.316	2872
809.458	2895
809.6	2769
809.741	2750
809.883	2762
810.025	2861
810.166	2842
810.308	2872
810.45	2883
810.591	2773
810.733	2769
810.875	2807
811.016	2788
811.158	2727
811.299	2792
811.441	2918
811.582	2887
811.724	2811
811.865	2811
812.007	2910
812.148	2883
812.29	2819
812.431	2868
812.573	2906
812.714	2975
812.855	3036
812.997	3032
813.138	3074
813.279	2986
813.421	3017
813.562	2979
813.703	2861
813.845	2902
813.986	2792
814.127	2705
814.268	2796
814.41	2849
814.551	2800
814.692	2883
814.833	2823
814.974	2872
815.115	2922
815.256	2834
815.397	2804
815.539	2838
815.68	2766
815.821	2796
815.962	2956
816.103	2956
816.244	2902
816.385	2887
816.526	2948
816.666	2902
816.807	2750
816.948	2899
817.089	2906
817.23	2838
817.371	2788
817.512	2796
817.653	2853
817.793	2823
817.934	2838
818.075	2956
818.216	2998
818.356	3013
818.497	2872
818.638	2800
818.778	2811
818.919	2796
819.06	2769
819.2	2891
819.341	2785
819.481	2792
819.622	2887
819.762	3104
819.903	3009
820.043	2918
820.184	2918
820.324	2925
820.465	3005
820.605	2982
820.746	3001
820.886	2952
821.026	3131
821.167	3173
821.307	3237
821.447	3279
821.588	3192
821.728	3184
821.868	3192
822.008	3051
822.149	3192
822.289	3245
822.429	3100
822.569	3089
822.709	3150
822.849	3032
822.99	3085
823.13	3146
823.27	3214
823.41	3112
823.55	3116
823.69	3173
823.83	3184
823.97	3066
824.11	3009
824.25	3005
824.389	3039
824.529	3074
824.669	3070
824.809	3199
824.949	3230
825.089	3230
825.228	3169
825.368	3009
825.508	2948
825.648	2990
825.787	2979
825.927	2994
826.067	2937
826.206	2941
826.346	3020
826.485	3051
826.625	3081
826.765	3249
826.904	3192
827.044	3005
827.183	2906
827.323	2830
827.462	2944
827.601	2918
827.741	2925
827.88	2960
828.02	2823
828.159	2952
828.298	3032
828.437	3097
828.577	3009
828.716	3245
828.855	3089
828.994	2929
829.134	2864
829.273	2929
829.412	2872
829.551	2823
829.69	2834
829.829	2979
829.968	3135
830.107	2990
830.246	2994
830.385	2914
830.524	2857
830.663	2823
830.802	2758
830.941	2674
831.08	2625
831.219	2766
831.357	2766
831.496	2971
831.635	2750
831.774	2648
831.913	2644
832.051	2541
832.19	2583
832.329	2689
832.467	2530
832.606	2476
832.744	2606
832.883	2594
833.022	2552
833.16	2625
833.299	2678
833.437	2689
833.576	2716
833.714	2727
833.852	2735
833.991	2724
834.129	2826
834.267	2834
834.406	2769
834.544	2883
834.682	2853
834.821	2842
834.959	3043
835.097	2842
835.235	3032
835.373	2960
835.511	3005
835.65	2910
835.788	2918
835.926	2834
836.064	2838
836.202	2819
836.34	3097
836.478	3123
836.615	3039
836.753	3104
836.891	3214
837.029	3146
837.167	3104
837.305	3051
837.443	2998
837.58	2925
837.718	3104
837.856	3100
837.993	3009
838.131	3108
838.269	3093
838.406	3089
838.544	3081
838.681	2967
838.819	2902
838.956	2830
839.094	2792
839.231	2899
839.369	2990
839.506	3370
839.643	3211
839.781	3024
839.918	2933
840.055	3055
840.193	3020
840.33	3051
840.467	3085
840.604	3138
840.742	3405
840.879	3032
841.016	3070
841.153	3104
841.29	3313
841.427	3253
841.564	3256
841.701	3310
841.838	3199
841.975	3157
842.112	3161
842.249	3093
842.385	3055
842.522	3222
842.659	3100
842.796	3047
842.933	3077
843.069	3032
843.206	3009
843.343	3169
843.479	3123
843.616	3154
843.752	2880
843.889	2857
844.025	3081
844.162	2887
844.298	3043
844.435	2922
844.571	2895
844.708	3077
844.844	3180
844.98	3214
845.117	3184
845.253	3036
845.389	2994
845.525	3104
845.661	3108
845.798	3017
845.934	3100
846.07	3062
846.206	3245
846.342	3317
846.478	3230
846.614	3058
846.75	3066
846.886	3028
847.022	3207
847.158	3097
847.294	3180
847.429	3218
847.565	3211
847.701	3481
847.837	3032
847.972	3032
848.108	3135
848.244	3157
848.379	2979
848.515	2956
848.65	2899
848.786	2960
848.921	3032
849.057	3085
849.192	3123
849.328	3066
849.463	3104
849.598	3024
849.734	3024
849.869	2960
850.004	2941
850.14	2952
850.275	2887
850.41	2830
850.545	2883
850.68	2887
850.815	2944
850.95	2944
851.085	3188
851.22	3089
851.355	3047
851.49	2982
851.625	2967
851.76	2998
851.895	2883
852.03	2887
852.165	3013
852.299	3108
852.434	3184
852.569	3119
852.703	3161
852.838	3233
852.973	3325
853.107	3336
853.242	3146
853.376	3047
853.511	2963
853.645	2998
853.78	3222
853.914	3112
854.048	3112
854.183	3081
854.317	3138
854.451	3317
854.585	3135
854.72	3066
854.854	3188
854.988	3039
855.122	3077
855.256	2975
855.39	3112
855.524	3214
855.658	3157
855.792	3165
855.926	3142
856.06	3218
856.194	3268
856.327	3131
856.461	3036
856.595	3066
856.729	3100
856.862	3222
856.996	3085
857.13	3169
857.263	3195
857.397	3230
857.53	3089
857.664	3157
857.797	3226
857.931	3249
858.064	3169
858.197	3161
858.331	3112
858.464	3062
858.597	2975
858.731	3089
858.864	3104
858.997	3089
859.13	3142
859.263	3119
859.396	3135
859.529	3066
859.662	3077
859.795	3039
859.928	3150
860.061	3230
860.194	3321
860.327	3161
860.46	3093
860.592	3226
860.725	3218
860.858	3233
860.99	3085
861.123	3017
861.256	3047
861.388	3165
861.521	3759
861.653	2990
861.786	2971
861.918	3017
862.05	3032
862.183	3081
862.315	3119
862.447	3184
862.58	3100
862.712	2944
862.844	2857
862.976	2971
863.108	3039
863.24	3412
863.372	2868
863.504	2967
863.636	2952
863.768	2990
863.9	2967
864.032	2876
864.164	2956
864.296	2975
864.428	3070
864.559	3085
864.691	3039
864.823	3005
864.954	3036
865.086	3047
865.217	3009
865.349	2929
865.48	3001
865.612	3001
865.743	3165
865.875	2941
866.006	2933
866.137	2956
866.269	2948
866.4	2929
866.531	2933
866.662	2887
866.793	2891
866.924	2902
867.055	2944
867.186	2941
867.317	2864
867.448	2838
867.579	2811
867.71	2830
867.841	2826
867.972	2902
868.103	2902
868.233	2899
868.364	2845
868.495	2872
868.625	3070
868.756	3146
868.886	2967
869.017	3032
869.147	3165
869.278	3157
869.408	3070
869.539	3009
869.669	3070
869.799	3028
869.929	3089
870.06	3116
870.19	3287
870.32	3283
870.45	3279
870.58	3367
870.71	3428
870.84	3412
870.97	3275
871.1	3214
871.23	3507
871.36	3454
871.489	3344
871.619	3355
871.749	3420
871.879	3405
872.008	3488
872.138	3298
872.267	3214
872.397	3116
872.526	3055
872.656	3009
872.785	3085
872.915	3218
873.044	3298
873.173	3230
873.303	3203
873.432	3230
873.561	3211
873.69	3165
873.819	3123
873.948	3180
874.077	3077
874.206	3036
874.335	3070
874.464	3195
874.593	3298
874.722	3218
874.851	3386
874.979	3294
875.108	3306
875.237	3176
875.365	3142
875.494	3146
875.623	3218
875.751	3055
875.88	3085
876.008	3188
876.136	3218
876.265	3378
876.393	3447
876.521	3397
876.65	3351
876.778	3302
876.906	3256
877.034	3199
877.162	3218
877.29	3150
877.418	3226
877.546	3188
877.674	3237
877.802	3214
877.93	3214
878.058	3116
878.185	3081
878.313	3161
878.441	3150
878.568	3043
878.696	3157
878.824	3226
878.951	3272
879.079	3409
879.206	3610
879.333	3435
879.461	3291
879.588	3329
879.715	3450
879.842	3591
879.97	3363
880.097	3131
880.224	3131
880.351	3192
880.478	3211
880.605	3218
880.732	3218
880.859	3507
880.986	3291
881.112	3325
881.239	3207
881.366	3089
881.493	3032
881.619	2990
881.746	3055
881.872	3116
881.999	3119
882.125	3165
882.252	3264
882.378	3310
882.505	3401
882.631	3283
882.757	3173
882.883	3218
883.01	3203
883.136	3211
883.262	3108
883.388	3154
883.514	3336
883.64	3412
883.766	3351
883.892	3211
884.018	3272
884.143	3431
884.269	3564
884.395	3203
884.52	3237
884.646	3214
884.772	3180
884.897	3157
885.023	3218
885.148	3397
885.274	3420
885.399	3412
885.524	3302
885.65	3291
885.775	3370
885.9	3329
886.025	3424
886.15	3412
886.275	3363
886.4	3275
886.525	3386
886.65	3298
886.775	3264
886.9	3561
887.025	3667
887.149	3462
887.274	3294
887.399	3203
887.523	3233
887.648	3283
887.773	3241
887.897	3416
888.021	3443
888.146	3325
888.27	3473
888.395	3580
888.519	3481
888.643	3504
888.767	3530
888.891	3359
889.015	3256
889.139	3332
889.263	3291
889.387	3431
889.511	3561
889.635	3492
889.759	3329
889.883	3344
890.006	3397
890.13	3500
890.254	3344
890.377	3389
890.501	3230
890.624	3203
890.748	3336
890.871	3192
890.995	3135
891.118	3077
891.241	3207
891.364	3249
891.488	3332
891.611	3241
891.734	3260
891.857	3321
891.98	3249
892.103	3363
892.226	3294
892.349	3279
892.471	3142
892.594	3245
892.717	3294
892.839	3310
892.962	3317
893.085	3344
893.207	3313
893.33	3169
893.452	3237
893.575	3374
893.697	3275
893.819	3485
893.941	3549
894.064	3473
894.186	3306
894.308	3313
894.43	3469
894.552	3572
894.674	3496
894.796	3302
894.918	3332
895.04	3340
895.161	3454
895.283	3386
895.405	3329
895.526	3378
895.648	3458
895.769	3477
895.891	3469
896.012	3515
896.134	3477
896.255	3447
896.376	3389
896.498	3405
896.619	3458
896.74	3374
896.861	3431
896.982	3701
897.103	3831
897.224	3587
897.345	3553
897.466	3477
897.587	3507
897.708	3610
897.828	3564
897.949	3439
898.07	3378
898.19	3458
898.311	3648
898.431	3462
898.552	3568
898.672	3580
898.792	3633
898.913	3519
899.033	3393
899.153	3317
899.273	3237
899.393	3302
899.513	3306
899.633	3336
899.753	3355
899.873	3382
899.993	3416
900.113	3329
900.232	3397
900.352	3351
900.472	3310
900.591	3230
900.711	3302
900.83	3294
900.95	3439
901.069	3545
901.189	3386
901.308	3203
901.427	3173
901.546	3245
901.665	3325
901.784	3359
901.904	3203
902.023	3192
902.141	3058
902.26	3005
902.379	3142
902.498	3104
902.617	3051
902.735	3203
902.854	3241
902.973	3245
903.091	3074
903.21	3077
903.328	3157
903.446	3131
903.565	3146
903.683	3233
903.801	3195
903.919	3256
904.038	3321
904.156	3207
904.274	3321
904.392	3302
904.51	3302
904.627	3367
904.745	3507
904.863	3500
904.981	3272
905.098	3199
905.216	3233
905.334	3306
905.451	3367
905.569	3294
905.686	3488
905.803	3473
905.921	3317
906.038	3439
906.155	3370
906.272	3294
906.389	3359
906.506	3268
906.623	3283
906.74	3325
906.857	3146
906.974	3264
907.091	3504
907.208	3606
907.324	3492
907.441	3397
907.557	3253
907.674	3283
907.79	3218
907.907	3306
908.023	3397
908.139	3389
908.256	3351
908.372	3397
908.488	3420
908.604	3302
908.72	3272
908.836	3329
908.952	3325
909.068	3363
909.184	3492
909.3	3450
909.415	3519
909.531	3496
909.647	3302
909.762	3321
909.878	3325
909.993	3359
910.108	3367
910.224	3386
910.339	3420
910.454	3306
910.57	3344
910.685	3268
910.8	3564
910.915	3633
911.03	3428
911.145	3310
911.259	3283
911.374	3348
911.489	3253
911.604	3249
911.718	3119
911.833	3192
911.947	3066
912.062	3013
912.176	3230
912.291	3275
912.405	3264
912.519	3435
912.633	3500
912.748	3348
912.862	3298
912.976	3195
913.09	3062
913.204	3195
913.318	3207
913.431	3393
913.545	3348
913.659	3447
913.772	3370
913.886	3272
914	3256
914.113	3382
914.226	3397
914.34	3355
914.453	3222
914.566	3424
914.68	3340
914.793	3317
914.906	3150
915.019	3169
915.132	3116
915.245	3188
915.358	3245
915.47	3291
915.583	3287
915.696	3317
915.809	3439
915.921	3454
916.034	3313
916.146	3283
916.259	3264
916.371	3420
916.483	3397
916.595	3291
916.708	3340
916.82	3359
916.932	3348
917.044	3378
917.156	3363
917.268	3298
917.38	3340
917.491	3302
917.603	3397
917.715	3477
917.826	3488
917.938	3370
918.049	3283
918.161	3458
918.272	3572
918.384	3591
918.495	3515
918.606	3329
918.717	3287
918.828	3409
918.939	3409
919.05	3325
919.161	3405
919.272	3241
919.383	3325
919.494	3511
919.604	3724
919.715	3481
919.826	3462
919.936	3492
920.047	3629
920.157	3587
920.267	3800
920.378	3622
920.488	3603
920.598	3827
920.708	3994
920.818	3812
920.928	3896
921.038	4048
921.148	4006
921.258	3732
921.368	3656
921.477	3603
921.587	3526
921.697	3481
921.806	3629
921.916	3564
922.025	3412
922.134	3389
922.244	3340
922.353	3447
922.462	3321
922.571	3268
922.68	3154
922.789	3058
922.898	3184
923.007	3108
923.116	3222
923.224	3150
923.333	3203
923.442	3093
923.55	3089
923.659	3123
923.767	3233
923.876	3123
923.984	3253
924.092	3112
924.201	3260
924.309	3256
924.417	3272
924.525	3165
924.633	3321
924.741	4059
924.849	3074
924.956	3291
925.064	3116
925.172	3089
925.279	3127
925.387	3199
925.494	3241
925.602	3393
925.709	3378
925.816	3203
925.924	3336
926.031	3405
926.138	3348
926.245	3386
926.352	3294
926.459	3488
926.566	3481
926.673	3317
926.779	3237
926.886	3272
926.993	3138
927.099	3169
927.206	3138
927.312	3161
927.419	3283
927.525	3245
927.631	3272
927.737	3192
927.843	3169
927.95	3039
928.056	3142
928.162	3173
928.267	3264
928.373	3789
928.479	3329
928.585	3074
928.69	3264
928.796	3298
928.901	3199
929.007	3058
929.112	3199
929.218	3154
929.323	3161
929.428	3146
929.533	3363
929.638	3100
929.743	3180
929.848	3294
929.953	3249
930.058	3161
930.163	3051
930.267	3085
930.372	3192
930.477	3032
930.581	3317
930.685	3218
930.79	3070
930.894	3165
930.998	3066
931.103	3283
931.207	2994
931.311	2979
931.415	2937
931.519	2746
931.623	2830
