Data from test_V78500241_890.txt Node
Date: Fri Mar 25 16:21:22 CST 2022
User: usil
Spectrometer: V785-0024
Trigger mode: 0
Integration Time (sec): 4.000000E-1
Scans to average: 1
Nonlinearity correction enabled: false
Boxcar width: 0
Storing dark spectrum: false
XAxis mode: Wavelengths
Number of Pixels in Spectrum: 1024
>>>>>Begin Spectral Data<<<<<
801.071	2922
801.214	2956
801.356	2902
801.499	2902
801.641	2883
801.783	2918
801.926	3055
802.068	2979
802.211	3024
802.353	3081
802.496	3009
802.638	3009
802.78	3039
802.923	3108
803.065	3009
803.208	2925
803.35	2971
803.492	2963
803.635	2929
803.777	2766
803.919	2887
804.061	3173
804.204	2956
804.346	2933
804.488	2887
804.63	2986
804.773	2880
804.915	2948
805.057	3085
805.199	2933
805.341	2975
805.483	3009
805.626	3017
805.768	2994
805.91	3093
806.052	3127
806.194	3058
806.336	3249
806.478	3058
806.62	2956
806.762	2979
806.904	3074
807.046	3165
807.188	3001
807.33	2960
807.472	3017
807.614	2925
807.756	2986
807.898	2922
808.04	2880
808.182	2956
808.324	2952
808.465	2887
808.607	2868
808.749	2804
808.891	2823
809.033	2994
809.174	2979
809.316	2895
809.458	2887
809.6	2807
809.741	2781
809.883	2781
810.025	2895
810.166	2868
810.308	2857
810.45	2883
810.591	2792
810.733	2785
810.875	2849
811.016	2804
811.158	2800
811.299	2819
811.441	2952
811.582	2861
811.724	2849
811.865	2819
812.007	2899
812.148	2876
812.29	2883
812.431	2883
812.573	2956
812.714	2944
812.855	3062
812.997	3070
813.138	3138
813.279	3024
813.421	2998
813.562	2967
813.703	2883
813.845	2906
813.986	2796
814.127	2777
814.268	2845
814.41	2849
814.551	2849
814.692	2895
814.833	2788
814.974	2853
815.115	2971
815.256	2853
815.397	2830
815.539	2861
815.68	2792
815.821	2819
815.962	2990
816.103	2925
816.244	2880
816.385	2880
816.526	2960
816.666	2876
816.807	2746
816.948	2853
817.089	2937
817.23	2899
817.371	2792
817.512	2792
817.653	2845
817.793	2857
817.934	2910
818.075	2956
818.216	2982
818.356	3013
818.497	2899
818.638	2811
818.778	2830
818.919	2777
819.06	2750
819.2	2929
819.341	2842
819.481	2830
819.622	2960
819.762	3123
819.903	3047
820.043	2906
820.184	2933
820.324	2937
820.465	3009
820.605	3020
820.746	3028
820.886	2941
821.026	3070
821.167	3211
821.307	3275
821.447	3268
821.588	3214
821.728	3188
821.868	3176
822.008	3100
822.149	3203
822.289	3230
822.429	3116
822.569	3108
822.709	3165
822.849	3028
822.99	3036
823.13	3142
823.27	3214
823.41	3100
823.55	3138
823.69	3169
823.83	3214
823.97	3108
824.11	2998
824.25	3020
824.389	3051
824.529	3135
824.669	3093
824.809	3169
824.949	3226
825.089	3287
825.228	3150
825.368	3028
825.508	2994
825.648	2963
825.787	3005
825.927	3020
826.067	2986
826.206	3032
826.346	3074
826.485	3066
826.625	3173
826.765	3287
826.904	3192
827.044	3017
827.183	2967
827.323	2857
827.462	2979
827.601	2918
827.741	2941
827.88	2956
828.02	2861
828.159	2990
828.298	3055
828.437	3135
828.577	3062
828.716	3233
828.855	3081
828.994	2941
829.134	2902
829.273	2944
829.412	2902
829.551	2880
829.69	2876
829.829	2967
829.968	3123
830.107	3047
830.246	3020
830.385	2925
830.524	2880
830.663	2800
830.802	2735
830.941	2632
831.08	2678
831.219	2773
831.357	2762
831.496	2929
831.635	2731
831.774	2670
831.913	2674
832.051	2579
832.19	2579
832.329	2716
832.467	2568
832.606	2465
832.744	2579
832.883	2560
833.022	2610
833.16	2659
833.299	2708
833.437	2674
833.576	2705
833.714	2708
833.852	2746
833.991	2773
834.129	2849
834.267	2830
834.406	2800
834.544	2868
834.682	2849
834.821	2868
834.959	3066
835.097	2895
835.235	3058
835.373	3020
835.511	2986
835.65	2971
835.788	2948
835.926	2842
836.064	2811
836.202	2845
836.34	3062
836.478	3138
836.615	3047
836.753	3135
836.891	3199
837.029	3169
837.167	3066
837.305	3039
837.443	3093
837.58	2952
837.718	3097
837.856	3051
837.993	3077
838.131	3138
838.269	3093
838.406	3081
838.544	3093
838.681	2960
838.819	2937
838.956	2826
839.094	2823
839.231	2906
839.369	2994
839.506	3378
839.643	3237
839.781	3028
839.918	2994
840.055	3043
840.193	3077
840.33	3100
840.467	3100
840.604	3127
840.742	3416
840.879	3058
841.016	3039
841.153	3127
841.29	3317
841.427	3249
841.564	3268
841.701	3332
841.838	3222
841.975	3192
842.112	3195
842.249	3085
842.385	3028
842.522	3268
842.659	3077
842.796	3100
842.933	3127
843.069	3062
843.206	3051
843.343	3188
843.479	3085
843.616	3108
843.752	2891
843.889	2864
844.025	3085
844.162	2868
844.298	3081
844.435	2990
844.571	2906
844.708	3036
844.844	3165
844.98	3233
845.117	3173
845.253	3028
845.389	3055
845.525	3093
845.661	3100
845.798	2975
845.934	3097
846.07	3066
846.206	3218
846.342	3291
846.478	3241
846.614	3074
846.75	3081
846.886	3013
847.022	3253
847.158	3146
847.294	3184
847.429	3287
847.565	3230
847.701	3496
847.837	3017
847.972	2963
848.108	3173
848.244	3146
848.379	2982
848.515	2933
848.65	2922
848.786	2944
848.921	3032
849.057	3093
849.192	3112
849.328	3058
849.463	3100
849.598	3043
849.734	3020
849.869	2998
850.004	2902
850.14	3001
850.275	2948
850.41	2830
850.545	2853
850.68	2952
850.815	2944
850.95	2975
851.085	3218
851.22	3089
851.355	3024
851.49	3009
851.625	3005
851.76	3009
851.895	2960
852.03	2906
852.165	3020
852.299	3097
852.434	3161
852.569	3135
852.703	3154
852.838	3291
852.973	3348
853.107	3329
853.242	3150
853.376	3081
853.511	2979
853.645	2982
853.78	3207
853.914	3112
854.048	3093
854.183	3119
854.317	3135
854.451	3321
854.585	3142
854.72	3066
854.854	3241
854.988	3020
855.122	3055
855.256	2998
855.39	3131
855.524	3222
855.658	3161
855.792	3161
855.926	3211
856.06	3211
856.194	3275
856.327	3142
856.461	3081
856.595	3058
856.729	3093
856.862	3195
856.996	3161
857.13	3207
857.263	3207
857.397	3279
857.53	3119
857.664	3233
857.797	3199
857.931	3287
858.064	3165
858.197	3207
858.331	3116
858.464	3097
858.597	3020
858.731	3093
858.864	3154
858.997	3074
859.13	3184
859.263	3169
859.396	3180
859.529	3112
859.662	3058
859.795	3017
859.928	3135
860.061	3249
860.194	3279
860.327	3119
860.46	3074
860.592	3203
860.725	3260
860.858	3260
860.99	3104
861.123	3097
861.256	3032
861.388	3112
861.521	3816
861.653	3013
861.786	2975
861.918	3001
862.05	3074
862.183	3077
862.315	3119
862.447	3203
862.58	3112
862.712	2902
862.844	2906
862.976	3039
863.108	2979
863.24	3325
863.372	2868
863.504	2925
863.636	2937
863.768	2963
863.9	2990
864.032	2899
864.164	2929
864.296	3036
864.428	3058
864.559	3100
864.691	3077
864.823	3032
864.954	3020
865.086	3055
865.217	2982
865.349	2929
865.48	2982
865.612	3013
865.743	3123
865.875	2990
866.006	2982
866.137	2971
866.269	2922
866.4	2956
866.531	2925
866.662	2902
866.793	2857
866.924	2895
867.055	2982
867.186	2902
867.317	2891
867.448	2861
867.579	2872
867.71	2819
867.841	2807
867.972	2906
868.103	2937
868.233	2918
868.364	2891
868.495	2937
868.625	3066
868.756	3154
868.886	2986
869.017	3024
869.147	3157
869.278	3161
869.408	3047
869.539	3047
869.669	3116
869.799	3047
869.929	3093
870.06	3119
870.19	3310
870.32	3268
870.45	3287
870.58	3367
870.71	3443
870.84	3439
870.97	3287
871.1	3253
871.23	3450
871.36	3443
871.489	3344
871.619	3397
871.749	3416
871.879	3435
872.008	3473
872.138	3332
872.267	3279
872.397	3165
872.526	3104
872.656	3017
872.785	3108
872.915	3241
873.044	3310
873.173	3211
873.303	3241
873.432	3230
873.561	3195
873.69	3127
873.819	3135
873.948	3199
874.077	3119
874.206	3039
874.335	3100
874.464	3176
874.593	3321
874.722	3207
874.851	3386
874.979	3313
875.108	3298
875.237	3173
875.365	3184
875.494	3123
875.623	3253
875.751	3104
875.88	3131
876.008	3230
876.136	3188
876.265	3336
876.393	3500
876.521	3424
876.65	3416
876.778	3363
876.906	3245
877.034	3211
877.162	3264
877.29	3176
877.418	3283
877.546	3268
877.674	3256
877.802	3237
877.93	3226
878.058	3161
878.185	3100
878.313	3203
878.441	3199
878.568	3051
878.696	3150
878.824	3268
878.951	3291
879.079	3473
879.206	3584
879.333	3435
879.461	3355
879.588	3344
879.715	3492
879.842	3572
879.97	3363
880.097	3184
880.224	3138
880.351	3211
880.478	3203
880.605	3222
880.732	3192
880.859	3481
880.986	3283
881.112	3294
881.239	3207
881.366	3097
881.493	3020
881.619	3009
881.746	3062
881.872	3081
881.999	3093
882.125	3157
882.252	3275
882.378	3272
882.505	3424
882.631	3275
882.757	3199
882.883	3256
883.01	3249
883.136	3138
883.262	3123
883.388	3116
883.514	3332
883.64	3359
883.766	3306
883.892	3203
884.018	3260
884.143	3386
884.269	3549
884.395	3192
884.52	3116
884.646	3165
884.772	3112
884.897	3093
885.023	3218
885.148	3340
885.274	3386
885.399	3382
885.524	3268
885.65	3272
885.775	3332
885.9	3287
886.025	3435
886.15	3351
886.275	3302
886.4	3203
886.525	3298
886.65	3226
886.775	3283
886.9	3485
887.025	3644
887.149	3401
887.274	3233
887.399	3154
887.523	3169
887.648	3195
887.773	3214
887.897	3363
888.021	3386
888.146	3329
888.27	3454
888.395	3545
888.519	3401
888.643	3481
888.767	3443
888.891	3321
889.015	3241
889.139	3272
889.263	3264
889.387	3367
889.511	3488
889.635	3454
889.759	3310
889.883	3287
890.006	3374
890.13	3500
890.254	3279
890.377	3359
890.501	3169
890.624	3173
890.748	3287
890.871	3173
890.995	3112
891.118	3051
891.241	3203
891.364	3218
891.488	3329
891.611	3169
891.734	3230
891.857	3268
891.98	3241
892.103	3359
892.226	3275
892.349	3211
892.471	3142
892.594	3260
892.717	3298
892.839	3226
892.962	3313
893.085	3336
893.207	3313
893.33	3176
893.452	3218
893.575	3310
893.697	3253
893.819	3466
893.941	3519
894.064	3424
894.186	3253
894.308	3249
894.43	3416
894.552	3553
894.674	3443
894.796	3249
894.918	3294
895.04	3302
895.161	3424
895.283	3382
895.405	3272
895.526	3374
895.648	3389
895.769	3412
895.891	3466
896.012	3469
896.134	3477
896.255	3393
896.376	3393
896.498	3336
896.619	3378
896.74	3321
896.861	3420
896.982	3679
897.103	3827
897.224	3545
897.345	3507
897.466	3397
897.587	3496
897.708	3614
897.828	3526
897.949	3431
898.07	3310
898.19	3409
898.311	3591
898.431	3481
898.552	3466
898.672	3584
898.792	3580
898.913	3542
899.033	3405
899.153	3256
899.273	3199
899.393	3325
899.513	3344
899.633	3283
899.753	3329
899.873	3374
899.993	3363
900.113	3336
900.232	3363
900.352	3340
900.472	3237
900.591	3233
900.711	3260
900.83	3294
900.95	3393
901.069	3485
901.189	3321
901.308	3199
901.427	3135
901.546	3211
901.665	3275
901.784	3298
901.904	3207
902.023	3146
902.141	2994
902.26	2982
902.379	3169
902.498	3077
902.617	3055
902.735	3214
902.854	3237
902.973	3226
903.091	3020
903.21	3074
903.328	3165
903.446	3097
903.565	3085
903.683	3184
903.801	3131
903.919	3245
904.038	3298
904.156	3176
904.274	3313
904.392	3272
904.51	3291
904.627	3321
904.745	3409
904.863	3454
904.981	3249
905.098	3138
905.216	3226
905.334	3287
905.451	3294
905.569	3310
905.686	3428
905.803	3431
905.921	3283
906.038	3450
906.155	3340
906.272	3298
906.389	3310
906.506	3207
906.623	3203
906.74	3325
906.857	3222
906.974	3245
907.091	3431
907.208	3553
907.324	3420
907.441	3374
907.557	3241
907.674	3230
907.79	3203
907.907	3264
908.023	3405
908.139	3325
908.256	3298
908.372	3336
908.488	3355
908.604	3233
908.72	3241
908.836	3249
908.952	3294
909.068	3268
909.184	3523
909.3	3355
909.415	3500
909.531	3447
909.647	3287
909.762	3268
909.878	3310
909.993	3302
910.108	3317
910.224	3363
910.339	3405
910.454	3332
910.57	3298
910.685	3233
910.8	3580
910.915	3542
911.03	3458
911.145	3256
911.259	3294
911.374	3340
911.489	3245
911.604	3211
911.718	3085
911.833	3150
911.947	3028
912.062	2998
912.176	3146
912.291	3192
912.405	3218
912.519	3393
912.633	3443
912.748	3348
912.862	3310
912.976	3142
913.09	3039
913.204	3123
913.318	3249
913.431	3302
913.545	3351
913.659	3420
913.772	3310
913.886	3211
914	3199
914.113	3359
914.226	3405
914.34	3389
914.453	3180
914.566	3412
914.68	3245
914.793	3283
914.906	3161
915.019	3070
915.132	3085
915.245	3165
915.358	3233
915.47	3176
915.583	3253
915.696	3302
915.809	3412
915.921	3435
916.034	3253
916.146	3237
916.259	3230
916.371	3393
916.483	3340
916.595	3245
916.708	3325
916.82	3329
916.932	3336
917.044	3340
917.156	3321
917.268	3233
917.38	3340
917.491	3325
917.603	3355
917.715	3435
917.826	3420
917.938	3382
918.049	3279
918.161	3405
918.272	3549
918.384	3580
918.495	3504
918.606	3283
918.717	3291
918.828	3351
918.939	3416
919.05	3313
919.161	3374
919.272	3157
919.383	3249
919.494	3496
919.604	3671
919.715	3458
919.826	3431
919.936	3428
920.047	3564
920.157	3511
920.267	3747
920.378	3603
920.488	3584
920.598	3774
920.708	3941
920.818	3797
920.928	3838
921.038	4032
921.148	3953
921.258	3728
921.368	3637
921.477	3572
921.587	3504
921.697	3412
921.806	3633
921.916	3557
922.025	3351
922.134	3344
922.244	3329
922.353	3393
922.462	3260
922.571	3233
922.68	3100
922.789	3062
922.898	3150
923.007	3077
923.116	3154
923.224	3127
923.333	3165
923.442	3112
923.55	3112
923.659	3108
923.767	3245
923.876	3131
923.984	3222
924.092	3104
924.201	3214
924.309	3207
924.417	3249
924.525	3169
924.633	3207
924.741	4173
924.849	3036
924.956	3241
925.064	3127
925.172	3051
925.279	3112
925.387	3188
925.494	3199
925.602	3359
925.709	3351
925.816	3214
925.924	3310
926.031	3374
926.138	3348
926.245	3367
926.352	3241
926.459	3405
926.566	3477
926.673	3310
926.779	3294
926.886	3233
926.993	3154
927.099	3119
927.206	3097
927.312	3097
927.419	3233
927.525	3188
927.631	3291
927.737	3142
927.843	3142
927.95	3051
928.056	3146
928.162	3154
928.267	3233
928.373	3842
928.479	3306
928.585	3104
928.69	3199
928.796	3253
928.901	3142
929.007	3085
929.112	3226
929.218	3169
929.323	3123
929.428	3154
929.533	3313
929.638	3142
929.743	3173
929.848	3241
929.953	3195
930.058	3150
930.163	2982
930.267	3047
930.372	3214
930.477	3066
930.581	3310
930.685	3173
930.79	3043
930.894	3154
930.998	3100
931.103	3294
931.207	2979
931.311	2944
931.415	2910
931.519	2773
931.623	2834
