Data from test_V78500241_656.txt Node
Date: Fri Mar 25 16:19:44 CST 2022
User: usil
Spectrometer: V785-0024
Trigger mode: 0
Integration Time (sec): 4.000000E-1
Scans to average: 1
Nonlinearity correction enabled: false
Boxcar width: 0
Storing dark spectrum: false
XAxis mode: Wavelengths
Number of Pixels in Spectrum: 1024
>>>>>Begin Spectral Data<<<<<
801.071	2914
801.214	2960
801.356	2880
801.499	2899
801.641	2891
801.783	2925
801.926	3036
802.068	2933
802.211	2975
802.353	3039
802.496	2952
802.638	2986
802.78	3028
802.923	3081
803.065	2994
803.208	2883
803.35	2880
803.492	2929
803.635	2899
803.777	2762
803.919	2868
804.061	3203
804.204	2891
804.346	2883
804.488	2876
804.63	2994
804.773	2853
804.915	2922
805.057	3093
805.199	2902
805.341	2975
805.483	3039
805.626	2990
805.768	2933
805.91	3074
806.052	3112
806.194	3074
806.336	3214
806.478	3032
806.62	2948
806.762	2979
806.904	3058
807.046	3161
807.188	2933
807.33	2876
807.472	2998
807.614	2899
807.756	2967
807.898	2925
808.04	2876
808.182	2960
808.324	2963
808.465	2864
808.607	2925
808.749	2781
808.891	2823
809.033	3005
809.174	2956
809.316	2891
809.458	2899
809.6	2766
809.741	2766
809.883	2766
810.025	2853
810.166	2861
810.308	2842
810.45	2849
810.591	2754
810.733	2762
810.875	2838
811.016	2769
811.158	2800
811.299	2800
811.441	2910
811.582	2891
811.724	2800
811.865	2823
812.007	2891
812.148	2849
812.29	2864
812.431	2883
812.573	2929
812.714	2941
812.855	3013
812.997	3066
813.138	3097
813.279	3013
813.421	2986
813.562	2956
813.703	2868
813.845	2876
813.986	2743
814.127	2735
814.268	2830
814.41	2842
814.551	2807
814.692	2853
814.833	2819
814.974	2876
815.115	2941
815.256	2819
815.397	2815
815.539	2864
815.68	2766
815.821	2804
815.962	2941
816.103	2918
816.244	2876
816.385	2842
816.526	3001
816.666	2899
816.807	2720
816.948	2880
817.089	2948
817.23	2823
817.371	2800
817.512	2807
817.653	2834
817.793	2819
817.934	2849
818.075	2933
818.216	2986
818.356	3017
818.497	2876
818.638	2792
818.778	2792
818.919	2762
819.06	2731
819.2	2857
819.341	2788
819.481	2796
819.622	2925
819.762	3119
819.903	3024
820.043	2887
820.184	2937
820.324	2899
820.465	3009
820.605	3013
820.746	3055
820.886	2925
821.026	3062
821.167	3150
821.307	3268
821.447	3264
821.588	3249
821.728	3203
821.868	3157
822.008	3108
822.149	3192
822.289	3256
822.429	3077
822.569	3089
822.709	3176
822.849	3001
822.99	3028
823.13	3161
823.27	3211
823.41	3135
823.55	3131
823.69	3176
823.83	3176
823.97	3100
824.11	3005
824.25	2956
824.389	3055
824.529	3066
824.669	3032
824.809	3169
824.949	3283
825.089	3214
825.228	3195
825.368	3055
825.508	2963
825.648	2918
825.787	3009
825.927	3028
826.067	2937
826.206	2941
826.346	3051
826.485	3089
826.625	3081
826.765	3287
826.904	3211
827.044	2990
827.183	2941
827.323	2864
827.462	2963
827.601	2922
827.741	2956
827.88	2956
828.02	2857
828.159	2963
828.298	3036
828.437	3108
828.577	3032
828.716	3237
828.855	3097
828.994	2925
829.134	2872
829.273	2906
829.412	2861
829.551	2872
829.69	2872
829.829	2998
829.968	3135
830.107	3005
830.246	2998
830.385	2899
830.524	2880
830.663	2823
830.802	2750
830.941	2625
831.08	2610
831.219	2720
831.357	2746
831.496	2948
831.635	2750
831.774	2648
831.913	2625
832.051	2545
832.19	2571
832.329	2697
832.467	2541
832.606	2511
832.744	2575
832.883	2594
833.022	2556
833.16	2640
833.299	2667
833.437	2663
833.576	2731
833.714	2689
833.852	2727
833.991	2777
834.129	2830
834.267	2830
834.406	2785
834.544	2914
834.682	2880
834.821	2842
834.959	3070
835.097	2887
835.235	3051
835.373	2994
835.511	2994
835.65	2941
835.788	2963
835.926	2838
836.064	2804
836.202	2830
836.34	3089
836.478	3169
836.615	3055
836.753	3150
836.891	3176
837.029	3154
837.167	3116
837.305	3055
837.443	3024
837.58	2944
837.718	3085
837.856	3028
837.993	3013
838.131	3089
838.269	3062
838.406	3062
838.544	3058
838.681	2887
838.819	2887
838.956	2807
839.094	2815
839.231	2918
839.369	3001
839.506	3332
839.643	3218
839.781	2963
839.918	2948
840.055	3039
840.193	3013
840.33	3055
840.467	3077
840.604	3127
840.742	3386
840.879	3036
841.016	3020
841.153	3093
841.29	3344
841.427	3298
841.564	3268
841.701	3310
841.838	3222
841.975	3176
842.112	3161
842.249	3081
842.385	3009
842.522	3268
842.659	3100
842.796	3097
842.933	3089
843.069	3009
843.206	2975
843.343	3180
843.479	3081
843.616	3131
843.752	2864
843.889	2864
844.025	3043
844.162	2853
844.298	3074
844.435	2933
844.571	2895
844.708	3055
844.844	3192
844.98	3230
845.117	3199
845.253	3032
845.389	3005
845.525	3093
845.661	3093
845.798	3020
845.934	3104
846.07	3043
846.206	3222
846.342	3298
846.478	3233
846.614	3112
846.75	3089
846.886	3005
847.022	3237
847.158	3157
847.294	3184
847.429	3230
847.565	3211
847.701	3450
847.837	3005
847.972	2975
848.108	3184
848.244	3123
848.379	2971
848.515	2899
848.65	2910
848.786	2979
848.921	2998
849.057	3100
849.192	3104
849.328	3028
849.463	3108
849.598	3051
849.734	3032
849.869	2956
850.004	2895
850.14	2925
850.275	2880
850.41	2830
850.545	2876
850.68	2941
850.815	2952
850.95	2933
851.085	3184
851.22	3104
851.355	3017
851.49	3001
851.625	2960
851.76	2979
851.895	2922
852.03	2887
852.165	3070
852.299	3112
852.434	3192
852.569	3112
852.703	3142
852.838	3241
852.973	3332
853.107	3321
853.242	3154
853.376	3066
853.511	2963
853.645	3062
853.78	3222
853.914	3093
854.048	3062
854.183	3051
854.317	3127
854.451	3233
854.585	3123
854.72	3097
854.854	3180
854.988	3028
855.122	3077
855.256	2979
855.39	3119
855.524	3207
855.658	3165
855.792	3135
855.926	3199
856.06	3188
856.194	3279
856.327	3142
856.461	3039
856.595	3070
856.729	3043
856.862	3218
856.996	3157
857.13	3184
857.263	3188
857.397	3283
857.53	3123
857.664	3199
857.797	3226
857.931	3233
858.064	3131
858.197	3169
858.331	3123
858.464	3074
858.597	2994
858.731	3085
858.864	3131
858.997	3085
859.13	3154
859.263	3135
859.396	3203
859.529	3077
859.662	3058
859.795	3036
859.928	3142
860.061	3260
860.194	3249
860.327	3093
860.46	3066
860.592	3233
860.725	3226
860.858	3287
860.99	3043
861.123	3058
861.256	3047
861.388	3127
861.521	3812
861.653	2998
861.786	2975
861.918	3005
862.05	3058
862.183	3097
862.315	3146
862.447	3195
862.58	3112
862.712	2918
862.844	2845
862.976	3005
863.108	2990
863.24	3424
863.372	2830
863.504	2956
863.636	2925
863.768	3013
863.9	2937
864.032	2906
864.164	2910
864.296	3005
864.428	3093
864.559	3112
864.691	3085
864.823	3066
864.954	3013
865.086	3062
865.217	3005
865.349	2933
865.48	2971
865.612	3001
865.743	3116
865.875	2982
866.006	2948
866.137	2975
866.269	2963
866.4	2929
866.531	2933
866.662	2887
866.793	2880
866.924	2906
867.055	2963
867.186	2937
867.317	2853
867.448	2838
867.579	2830
867.71	2864
867.841	2781
867.972	2887
868.103	2864
868.233	2853
868.364	2868
868.495	2914
868.625	3058
868.756	3161
868.886	2971
869.017	3013
869.147	3150
869.278	3150
869.408	3055
869.539	3024
869.669	3066
869.799	2990
869.929	3097
870.06	3062
870.19	3306
870.32	3287
870.45	3279
870.58	3374
870.71	3416
870.84	3435
870.97	3253
871.1	3218
871.23	3462
871.36	3458
871.489	3359
871.619	3389
871.749	3416
871.879	3409
872.008	3500
872.138	3325
872.267	3264
872.397	3138
872.526	3051
872.656	3024
872.785	3116
872.915	3233
873.044	3287
873.173	3207
873.303	3268
873.432	3241
873.561	3180
873.69	3142
873.819	3127
873.948	3180
874.077	3062
874.206	2990
874.335	3062
874.464	3214
874.593	3317
874.722	3211
874.851	3351
874.979	3363
875.108	3302
875.237	3173
875.365	3097
875.494	3157
875.623	3199
875.751	3051
875.88	3123
876.008	3195
876.136	3237
876.265	3370
876.393	3466
876.521	3397
876.65	3367
876.778	3298
876.906	3287
877.034	3195
877.162	3214
877.29	3157
877.418	3264
877.546	3195
877.674	3237
877.802	3237
877.93	3214
878.058	3142
878.185	3077
878.313	3165
878.441	3184
878.568	3043
878.696	3116
878.824	3218
878.951	3275
879.079	3382
879.206	3599
879.333	3416
879.461	3313
879.588	3359
879.715	3424
879.842	3561
879.97	3363
880.097	3154
880.224	3131
880.351	3165
880.478	3218
880.605	3184
880.732	3176
880.859	3481
880.986	3279
881.112	3302
881.239	3146
881.366	3074
881.493	2994
881.619	3017
881.746	3036
881.872	3093
881.999	3062
882.125	3138
882.252	3222
882.378	3291
882.505	3431
882.631	3268
882.757	3138
882.883	3165
883.01	3184
883.136	3089
883.262	3104
883.388	3100
883.514	3317
883.64	3351
883.766	3325
883.892	3199
884.018	3245
884.143	3447
884.269	3538
884.395	3207
884.52	3180
884.646	3154
884.772	3097
884.897	3123
885.023	3214
885.148	3329
885.274	3397
885.399	3344
885.524	3275
885.65	3260
885.775	3359
885.9	3306
886.025	3447
886.15	3370
886.275	3310
886.4	3279
886.525	3378
886.65	3287
886.775	3329
886.9	3534
887.025	3648
887.149	3450
887.274	3264
887.399	3237
887.523	3214
887.648	3214
887.773	3192
887.897	3439
888.021	3405
888.146	3336
888.27	3496
888.395	3595
888.519	3469
888.643	3477
888.767	3469
888.891	3363
889.015	3275
889.139	3298
889.263	3260
889.387	3397
889.511	3553
889.635	3469
889.759	3317
889.883	3329
890.006	3397
890.13	3488
890.254	3302
890.377	3393
890.501	3245
890.624	3237
890.748	3374
890.871	3214
890.995	3119
891.118	3112
891.241	3237
891.364	3233
891.488	3401
891.611	3233
891.734	3230
891.857	3325
891.98	3272
892.103	3374
892.226	3317
892.349	3230
892.471	3161
892.594	3283
892.717	3317
892.839	3313
892.962	3298
893.085	3397
893.207	3332
893.33	3188
893.452	3233
893.575	3424
893.697	3302
893.819	3496
893.941	3534
894.064	3473
894.186	3294
894.308	3298
894.43	3443
894.552	3549
894.674	3504
894.796	3329
894.918	3348
895.04	3329
895.161	3481
895.283	3401
895.405	3344
895.526	3405
895.648	3424
895.769	3405
895.891	3515
896.012	3507
896.134	3545
896.255	3469
896.376	3412
896.498	3405
896.619	3443
896.74	3374
896.861	3439
896.982	3728
897.103	3918
897.224	3629
897.345	3534
897.466	3481
897.587	3496
897.708	3675
897.828	3610
897.949	3492
898.07	3359
898.19	3428
898.311	3618
898.431	3496
898.552	3523
898.672	3618
898.792	3618
898.913	3530
899.033	3431
899.153	3302
899.273	3230
899.393	3321
899.513	3325
899.633	3359
899.753	3370
899.873	3355
899.993	3416
900.113	3351
900.232	3424
900.352	3378
900.472	3283
900.591	3241
900.711	3302
900.83	3264
900.95	3416
901.069	3507
901.189	3344
901.308	3188
901.427	3142
901.546	3207
901.665	3287
901.784	3386
901.904	3237
902.023	3169
902.141	3055
902.26	3013
902.379	3119
902.498	3066
902.617	3062
902.735	3226
902.854	3222
902.973	3211
903.091	3066
903.21	3100
903.328	3184
903.446	3131
903.565	3127
903.683	3237
903.801	3138
903.919	3264
904.038	3336
904.156	3176
904.274	3275
904.392	3325
904.51	3317
904.627	3340
904.745	3458
904.863	3507
904.981	3287
905.098	3195
905.216	3226
905.334	3340
905.451	3310
905.569	3359
905.686	3443
905.803	3466
905.921	3317
906.038	3466
906.155	3317
906.272	3340
906.389	3325
906.506	3260
906.623	3272
906.74	3294
906.857	3207
906.974	3306
907.091	3481
907.208	3561
907.324	3469
907.441	3401
907.557	3256
907.674	3283
907.79	3253
907.907	3313
908.023	3405
908.139	3409
908.256	3367
908.372	3401
908.488	3374
908.604	3260
908.72	3256
908.836	3344
908.952	3329
909.068	3344
909.184	3523
909.3	3431
909.415	3534
909.531	3477
909.647	3298
909.762	3317
909.878	3264
909.993	3351
910.108	3370
910.224	3359
910.339	3439
910.454	3370
910.57	3340
910.685	3249
910.8	3610
910.915	3564
911.03	3435
911.145	3298
911.259	3302
911.374	3363
911.489	3302
911.604	3268
911.718	3142
911.833	3184
911.947	3093
912.062	3020
912.176	3203
912.291	3203
912.405	3275
912.519	3431
912.633	3526
912.748	3340
912.862	3291
912.976	3203
913.09	3112
913.204	3173
913.318	3218
913.431	3374
913.545	3340
913.659	3424
913.772	3382
913.886	3264
914	3233
914.113	3370
914.226	3450
914.34	3405
914.453	3222
914.566	3428
914.68	3321
914.793	3310
914.906	3146
915.019	3146
915.132	3097
915.245	3199
915.358	3226
915.47	3268
915.583	3294
915.696	3317
915.809	3405
915.921	3473
916.034	3294
916.146	3272
916.259	3233
916.371	3370
916.483	3405
916.595	3294
916.708	3359
916.82	3382
916.932	3386
917.044	3336
917.156	3344
917.268	3275
917.38	3313
917.491	3291
917.603	3401
917.715	3485
917.826	3507
917.938	3409
918.049	3291
918.161	3462
918.272	3595
918.384	3618
918.495	3534
918.606	3393
918.717	3306
918.828	3401
918.939	3439
919.05	3367
919.161	3386
919.272	3211
919.383	3272
919.494	3519
919.604	3724
919.715	3553
919.826	3382
919.936	3469
920.047	3606
920.157	3564
920.267	3766
920.378	3641
920.488	3576
920.598	3793
920.708	4021
920.818	3850
920.928	3850
921.038	4040
921.148	4036
921.258	3778
921.368	3618
921.477	3568
921.587	3534
921.697	3496
921.806	3671
921.916	3538
922.025	3359
922.134	3386
922.244	3363
922.353	3420
922.462	3260
922.571	3237
922.68	3138
922.789	3150
922.898	3165
923.007	3116
923.116	3253
923.224	3184
923.333	3203
923.442	3116
923.55	3100
923.659	3176
923.767	3249
923.876	3173
923.984	3237
924.092	3150
924.201	3241
924.309	3264
924.417	3264
924.525	3199
924.633	3233
924.741	4021
924.849	3058
924.956	3283
925.064	3112
925.172	3081
925.279	3142
925.387	3218
925.494	3203
925.602	3374
925.709	3336
925.816	3237
925.924	3291
926.031	3374
926.138	3340
926.245	3382
926.352	3298
926.459	3424
926.566	3496
926.673	3332
926.779	3211
926.886	3302
926.993	3154
927.099	3150
927.206	3116
927.312	3169
927.419	3272
927.525	3180
927.631	3291
927.737	3150
927.843	3169
927.95	3055
928.056	3157
928.162	3165
928.267	3279
928.373	3789
928.479	3298
928.585	3104
928.69	3214
928.796	3279
928.901	3180
929.007	3070
929.112	3256
929.218	3184
929.323	3165
929.428	3192
929.533	3351
929.638	3150
929.743	3211
929.848	3283
929.953	3260
930.058	3173
930.163	3043
930.267	3085
930.372	3222
930.477	3009
930.581	3359
930.685	3154
930.79	3081
930.894	3154
930.998	3123
931.103	3287
931.207	2975
931.311	2925
931.415	2960
931.519	2800
931.623	2804
