Data from test_V78500241_381.txt Node
Date: Fri Mar 25 16:17:50 CST 2022
User: usil
Spectrometer: V785-0024
Trigger mode: 0
Integration Time (sec): 4.000000E-1
Scans to average: 1
Nonlinearity correction enabled: false
Boxcar width: 0
Storing dark spectrum: false
XAxis mode: Wavelengths
Number of Pixels in Spectrum: 1024
>>>>>Begin Spectral Data<<<<<
801.071	2925
801.214	2979
801.356	2864
801.499	2891
801.641	2883
801.783	2941
801.926	3066
802.068	2990
802.211	2982
802.353	3051
802.496	3005
802.638	3028
802.78	3077
802.923	3074
803.065	3036
803.208	2883
803.35	2960
803.492	2990
803.635	2944
803.777	2815
803.919	2849
804.061	3241
804.204	2982
804.346	2918
804.488	2883
804.63	3036
804.773	2876
804.915	2952
805.057	3055
805.199	2937
805.341	3001
805.483	3051
805.626	3009
805.768	2963
805.91	3104
806.052	3119
806.194	3055
806.336	3268
806.478	3051
806.62	2979
806.762	2933
806.904	3066
807.046	3150
807.188	3001
807.33	2895
807.472	2979
807.614	2918
807.756	3017
807.898	2914
808.04	2925
808.182	2990
808.324	2941
808.465	2914
808.607	2864
808.749	2804
808.891	2895
809.033	2990
809.174	2979
809.316	2899
809.458	2895
809.6	2796
809.741	2777
809.883	2781
810.025	2868
810.166	2861
810.308	2849
810.45	2853
810.591	2800
810.733	2796
810.875	2845
811.016	2773
811.158	2781
811.299	2811
811.441	2952
811.582	2933
811.724	2830
811.865	2823
812.007	2910
812.148	2880
812.29	2857
812.431	2895
812.573	2982
812.714	2990
812.855	3039
812.997	3100
813.138	3135
813.279	3001
813.421	2998
813.562	2990
813.703	2861
813.845	2941
813.986	2788
814.127	2743
814.268	2819
814.41	2895
814.551	2842
814.692	2876
814.833	2819
814.974	2952
815.115	2956
815.256	2823
815.397	2826
815.539	2872
815.68	2804
815.821	2800
815.962	2948
816.103	2941
816.244	2902
816.385	2883
816.526	2937
816.666	2899
816.807	2785
816.948	2902
817.089	2941
817.23	2876
817.371	2823
817.512	2807
817.653	2811
817.793	2849
817.934	2872
818.075	2941
818.216	2986
818.356	3005
818.497	2899
818.638	2788
818.778	2826
818.919	2823
819.06	2735
819.2	2899
819.341	2823
819.481	2830
819.622	2910
819.762	3081
819.903	3058
820.043	2948
820.184	2933
820.324	2941
820.465	3058
820.605	3013
820.746	3013
820.886	2944
821.026	3123
821.167	3218
821.307	3237
821.447	3291
821.588	3249
821.728	3195
821.868	3184
822.008	3093
822.149	3176
822.289	3256
822.429	3051
822.569	3097
822.709	3180
822.849	3058
822.99	3085
823.13	3169
823.27	3207
823.41	3116
823.55	3161
823.69	3123
823.83	3184
823.97	3093
824.11	2994
824.25	3013
824.389	3066
824.529	3093
824.669	3070
824.809	3180
824.949	3264
825.089	3203
825.228	3230
825.368	3043
825.508	3028
825.648	2990
825.787	3028
825.927	3009
826.067	2998
826.206	2979
826.346	3043
826.485	3097
826.625	3116
826.765	3272
826.904	3226
827.044	2982
827.183	2960
827.323	2891
827.462	2975
827.601	2933
827.741	2963
827.88	2952
828.02	2876
828.159	2994
828.298	3032
828.437	3085
828.577	3051
828.716	3237
828.855	3085
828.994	2952
829.134	2883
829.273	2929
829.412	2849
829.551	2902
829.69	2922
829.829	2982
829.968	3089
830.107	3020
830.246	3077
830.385	2876
830.524	2891
830.663	2815
830.802	2731
830.941	2640
831.08	2644
831.219	2800
831.357	2731
831.496	2952
831.635	2746
831.774	2667
831.913	2655
832.051	2560
832.19	2632
832.329	2712
832.467	2545
832.606	2454
832.744	2560
832.883	2571
833.022	2610
833.16	2648
833.299	2727
833.437	2708
833.576	2693
833.714	2743
833.852	2735
833.991	2743
834.129	2834
834.267	2853
834.406	2785
834.544	2868
834.682	2830
834.821	2872
834.959	3077
835.097	2887
835.235	3043
835.373	3058
835.511	2982
835.65	2948
835.788	3005
835.926	2883
836.064	2807
836.202	2861
836.34	3116
836.478	3100
836.615	3062
836.753	3176
836.891	3207
837.029	3127
837.167	3135
837.305	3055
837.443	3024
837.58	2952
837.718	3146
837.856	3013
837.993	3074
838.131	3131
838.269	3131
838.406	3138
838.544	3070
838.681	2899
838.819	2918
838.956	2823
839.094	2834
839.231	2910
839.369	3001
839.506	3382
839.643	3241
839.781	2990
839.918	2982
840.055	3005
840.193	3058
840.33	3055
840.467	3081
840.604	3135
840.742	3397
840.879	3043
841.016	3043
841.153	3169
841.29	3336
841.427	3348
841.564	3241
841.701	3321
841.838	3260
841.975	3199
842.112	3214
842.249	3104
842.385	3055
842.522	3256
842.659	3097
842.796	3020
842.933	3104
843.069	3062
843.206	2994
843.343	3161
843.479	3131
843.616	3119
843.752	2895
843.889	2849
844.025	3070
844.162	2876
844.298	3077
844.435	2967
844.571	2925
844.708	3062
844.844	3203
844.98	3275
845.117	3203
845.253	3051
845.389	2986
845.525	3123
845.661	3127
845.798	3017
845.934	3116
846.07	3032
846.206	3237
846.342	3302
846.478	3226
846.614	3119
846.75	3108
846.886	3058
847.022	3233
847.158	3138
847.294	3199
847.429	3241
847.565	3203
847.701	3500
847.837	3005
847.972	3017
848.108	3169
848.244	3161
848.379	2975
848.515	2979
848.65	2918
848.786	2948
848.921	2998
849.057	3112
849.192	3169
849.328	3058
849.463	3116
849.598	3051
849.734	3062
849.869	3005
850.004	2929
850.14	2944
850.275	2895
850.41	2834
850.545	2861
850.68	2952
850.815	2941
850.95	2979
851.085	3184
851.22	3097
851.355	3062
851.49	3009
851.625	2979
851.76	3024
851.895	2933
852.03	2922
852.165	3017
852.299	3097
852.434	3192
852.569	3112
852.703	3169
852.838	3298
852.973	3367
853.107	3317
853.242	3135
853.376	3104
853.511	2971
853.645	3081
853.78	3233
853.914	3131
854.048	3085
854.183	3077
854.317	3131
854.451	3291
854.585	3131
854.72	3097
854.854	3253
854.988	3058
855.122	3108
855.256	2960
855.39	3112
855.524	3203
855.658	3161
855.792	3154
855.926	3157
856.06	3241
856.194	3249
856.327	3150
856.461	3081
856.595	3062
856.729	3127
856.862	3173
856.996	3157
857.13	3218
857.263	3241
857.397	3241
857.53	3112
857.664	3165
857.797	3211
857.931	3245
858.064	3199
858.197	3173
858.331	3173
858.464	3100
858.597	2986
858.731	3077
858.864	3138
858.997	3089
859.13	3127
859.263	3188
859.396	3165
859.529	3062
859.662	3104
859.795	3047
859.928	3176
860.061	3283
860.194	3287
860.327	3138
860.46	3077
860.592	3230
860.725	3233
860.858	3226
860.99	3093
861.123	3024
861.256	3032
861.388	3150
861.521	3819
861.653	2998
861.786	3001
861.918	3020
862.05	3081
862.183	3070
862.315	3161
862.447	3184
862.58	3085
862.712	2952
862.844	2918
862.976	3001
863.108	3001
863.24	3420
863.372	2880
863.504	2971
863.636	2929
863.768	3032
863.9	2963
864.032	2914
864.164	2960
864.296	3001
864.428	3131
864.559	3077
864.691	3070
864.823	3070
864.954	2998
865.086	3066
865.217	3009
865.349	2960
865.48	2979
865.612	3020
865.743	3173
865.875	2971
866.006	2902
866.137	2971
866.269	2994
866.4	2941
866.531	2895
866.662	2899
866.793	2918
866.924	2902
867.055	2933
867.186	2948
867.317	2902
867.448	2815
867.579	2853
867.71	2834
867.841	2807
867.972	2883
868.103	2906
868.233	2876
868.364	2868
868.495	2876
868.625	3066
868.756	3161
868.886	2979
869.017	3017
869.147	3222
869.278	3138
869.408	3074
869.539	2998
869.669	3074
869.799	3032
869.929	3169
870.06	3138
870.19	3340
870.32	3275
870.45	3298
870.58	3363
870.71	3416
870.84	3443
870.97	3283
871.1	3233
871.23	3492
871.36	3443
871.489	3359
871.619	3374
871.749	3409
871.879	3386
872.008	3488
872.138	3321
872.267	3245
872.397	3154
872.526	3108
872.656	3043
872.785	3070
872.915	3260
873.044	3310
873.173	3188
873.303	3253
873.432	3195
873.561	3230
873.69	3173
873.819	3142
873.948	3173
874.077	3142
874.206	3066
874.335	3112
874.464	3195
874.593	3351
874.722	3214
874.851	3412
874.979	3351
875.108	3313
875.237	3188
875.365	3142
875.494	3157
875.623	3245
875.751	3066
875.88	3100
876.008	3154
876.136	3237
876.265	3359
876.393	3477
876.521	3412
876.65	3412
876.778	3340
876.906	3256
877.034	3211
877.162	3226
877.29	3176
877.418	3272
877.546	3214
877.674	3272
877.802	3214
877.93	3195
878.058	3157
878.185	3131
878.313	3192
878.441	3199
878.568	3074
878.696	3169
878.824	3245
878.951	3325
879.079	3450
879.206	3633
879.333	3458
879.461	3317
879.588	3351
879.715	3458
879.842	3572
879.97	3378
880.097	3184
880.224	3085
880.351	3195
880.478	3218
880.605	3154
880.732	3180
880.859	3488
880.986	3313
881.112	3287
881.239	3184
881.366	3093
881.493	3024
881.619	3032
881.746	3097
881.872	3062
881.999	3104
882.125	3142
882.252	3233
882.378	3313
882.505	3412
882.631	3321
882.757	3184
882.883	3222
883.01	3192
883.136	3150
883.262	3074
883.388	3100
883.514	3302
883.64	3355
883.766	3291
883.892	3184
884.018	3260
884.143	3409
884.269	3530
884.395	3211
884.52	3173
884.646	3192
884.772	3112
884.897	3089
885.023	3165
885.148	3332
885.274	3435
885.399	3367
885.524	3287
885.65	3230
885.775	3306
885.9	3287
886.025	3447
886.15	3359
886.275	3313
886.4	3207
886.525	3348
886.65	3264
886.775	3283
886.9	3545
887.025	3629
887.149	3386
887.274	3253
887.399	3169
887.523	3195
887.648	3169
887.773	3173
887.897	3412
888.021	3405
888.146	3310
888.27	3428
888.395	3515
888.519	3431
888.643	3454
888.767	3488
888.891	3325
889.015	3256
889.139	3302
889.263	3256
889.387	3412
889.511	3526
889.635	3420
889.759	3310
889.883	3310
890.006	3378
890.13	3526
890.254	3294
890.377	3355
890.501	3230
890.624	3138
890.748	3287
890.871	3157
890.995	3119
891.118	3062
891.241	3192
891.364	3214
891.488	3291
891.611	3135
891.734	3230
891.857	3283
891.98	3222
892.103	3317
892.226	3256
892.349	3195
892.471	3104
892.594	3237
892.717	3294
892.839	3268
892.962	3272
893.085	3386
893.207	3306
893.33	3150
893.452	3207
893.575	3332
893.697	3256
893.819	3492
893.941	3462
894.064	3431
894.186	3256
894.308	3268
894.43	3420
894.552	3542
894.674	3488
894.796	3264
894.918	3355
895.04	3241
895.161	3397
895.283	3386
895.405	3283
895.526	3370
895.648	3431
895.769	3401
895.891	3458
896.012	3454
896.134	3477
896.255	3412
896.376	3374
896.498	3310
896.619	3409
896.74	3310
896.861	3412
896.982	3629
897.103	3838
897.224	3644
897.345	3511
897.466	3412
897.587	3469
897.708	3618
897.828	3561
897.949	3416
898.07	3332
898.19	3405
898.311	3599
898.431	3466
898.552	3545
898.672	3564
898.792	3580
898.913	3496
899.033	3397
899.153	3321
899.273	3214
899.393	3264
899.513	3367
899.633	3332
899.753	3298
899.873	3313
899.993	3416
900.113	3348
900.232	3351
900.352	3310
900.472	3310
900.591	3176
900.711	3268
900.83	3211
900.95	3412
901.069	3496
901.189	3355
901.308	3184
901.427	3123
901.546	3192
901.665	3279
901.784	3302
901.904	3199
902.023	3195
902.141	2994
902.26	3036
902.379	3085
902.498	3119
902.617	3058
902.735	3237
902.854	3264
902.973	3253
903.091	3047
903.21	3032
903.328	3104
903.446	3135
903.565	3074
903.683	3203
903.801	3116
903.919	3245
904.038	3279
904.156	3161
904.274	3249
904.392	3264
904.51	3287
904.627	3306
904.745	3435
904.863	3500
904.981	3256
905.098	3184
905.216	3233
905.334	3268
905.451	3291
905.569	3336
905.686	3382
905.803	3447
905.921	3294
906.038	3462
906.155	3325
906.272	3249
906.389	3291
906.506	3222
906.623	3260
906.74	3260
906.857	3150
906.974	3203
907.091	3424
907.208	3561
907.324	3435
907.441	3363
907.557	3256
907.674	3226
907.79	3218
907.907	3268
908.023	3386
908.139	3370
908.256	3348
908.372	3401
908.488	3363
908.604	3287
908.72	3211
908.836	3294
908.952	3283
909.068	3283
909.184	3454
909.3	3351
909.415	3500
909.531	3481
909.647	3256
909.762	3291
909.878	3253
909.993	3351
910.108	3317
910.224	3313
910.339	3424
910.454	3313
910.57	3287
910.685	3233
910.8	3587
910.915	3545
911.03	3416
911.145	3336
911.259	3287
911.374	3294
911.489	3260
911.604	3207
911.718	3138
911.833	3154
911.947	3013
912.062	2998
912.176	3180
912.291	3199
912.405	3207
912.519	3420
912.633	3492
912.748	3344
912.862	3272
912.976	3146
913.09	3077
913.204	3157
913.318	3253
913.431	3329
913.545	3310
913.659	3393
913.772	3332
913.886	3203
914	3184
914.113	3329
914.226	3370
914.34	3359
914.453	3188
914.566	3397
914.68	3241
914.793	3298
914.906	3146
915.019	3112
915.132	3108
915.245	3165
915.358	3214
915.47	3226
915.583	3275
915.696	3302
915.809	3412
915.921	3363
916.034	3264
916.146	3222
916.259	3192
916.371	3386
916.483	3355
916.595	3275
916.708	3367
916.82	3298
916.932	3351
917.044	3287
917.156	3302
917.268	3245
917.38	3306
917.491	3291
917.603	3359
917.715	3435
917.826	3466
917.938	3367
918.049	3233
918.161	3378
918.272	3587
918.384	3557
918.495	3469
918.606	3344
918.717	3245
918.828	3389
918.939	3443
919.05	3279
919.161	3386
919.272	3165
919.383	3272
919.494	3454
919.604	3705
919.715	3458
919.826	3435
919.936	3462
920.047	3587
920.157	3557
920.267	3785
920.378	3606
920.488	3538
920.598	3774
920.708	3949
920.818	3846
920.928	3846
921.038	4051
921.148	4048
921.258	3637
921.368	3644
921.477	3622
921.587	3545
921.697	3473
921.806	3682
921.916	3515
922.025	3329
922.134	3351
922.244	3283
922.353	3397
922.462	3294
922.571	3233
922.68	3112
922.789	3039
922.898	3138
923.007	3112
923.116	3199
923.224	3146
923.333	3180
923.442	3081
923.55	3081
923.659	3081
923.767	3207
923.876	3108
923.984	3245
924.092	3089
924.201	3233
924.309	3207
924.417	3256
924.525	3165
924.633	3230
924.741	4135
924.849	3013
924.956	3260
925.064	3077
925.172	2990
925.279	3077
925.387	3233
925.494	3214
925.602	3359
925.709	3325
925.816	3195
925.924	3291
926.031	3393
926.138	3298
926.245	3359
926.352	3283
926.459	3401
926.566	3450
926.673	3306
926.779	3230
926.886	3260
926.993	3173
927.099	3112
927.206	3104
927.312	3097
927.419	3245
927.525	3154
927.631	3256
927.737	3161
927.843	3146
927.95	3005
928.056	3161
928.162	3188
928.267	3226
928.373	3827
928.479	3294
928.585	3108
928.69	3226
928.796	3245
928.901	3150
929.007	3055
929.112	3203
929.218	3184
929.323	3154
929.428	3123
929.533	3310
929.638	3108
929.743	3192
929.848	3272
929.953	3192
930.058	3184
930.163	3013
930.267	3047
930.372	3176
930.477	3009
930.581	3313
930.685	3184
930.79	3077
930.894	3100
930.998	3112
931.103	3287
931.207	2952
931.311	2963
931.415	2899
931.519	2819
931.623	2849
