Data from test_V78500241_501.txt Node
Date: Fri Mar 25 16:18:40 CST 2022
User: usil
Spectrometer: V785-0024
Trigger mode: 0
Integration Time (sec): 4.000000E-1
Scans to average: 1
Nonlinearity correction enabled: false
Boxcar width: 0
Storing dark spectrum: false
XAxis mode: Wavelengths
Number of Pixels in Spectrum: 1024
>>>>>Begin Spectral Data<<<<<
801.071	2922
801.214	2902
801.356	2823
801.499	2918
801.641	2880
801.783	2922
801.926	3108
802.068	2971
802.211	2979
802.353	3013
802.496	2948
802.638	3017
802.78	3036
802.923	3093
803.065	3017
803.208	2914
803.35	2922
803.492	2906
803.635	2975
803.777	2754
803.919	2864
804.061	3169
804.204	2948
804.346	2922
804.488	2819
804.63	2941
804.773	2872
804.915	2952
805.057	3070
805.199	2929
805.341	2925
805.483	3020
805.626	2975
805.768	2967
805.91	3062
806.052	3100
806.194	3039
806.336	3249
806.478	3017
806.62	2952
806.762	2979
806.904	3039
807.046	3089
807.188	2971
807.33	2922
807.472	2982
807.614	2902
807.756	2990
807.898	2929
808.04	2887
808.182	2967
808.324	2956
808.465	2872
808.607	2857
808.749	2781
808.891	2826
809.033	2948
809.174	2979
809.316	2872
809.458	2876
809.6	2773
809.741	2762
809.883	2746
810.025	2830
810.166	2804
810.308	2830
810.45	2857
810.591	2804
810.733	2792
810.875	2857
811.016	2769
811.158	2758
811.299	2826
811.441	2933
811.582	2891
811.724	2807
811.865	2804
812.007	2906
812.148	2872
812.29	2853
812.431	2887
812.573	2910
812.714	2944
812.855	2990
812.997	3066
813.138	3135
813.279	3005
813.421	2982
813.562	2975
813.703	2883
813.845	2883
813.986	2804
814.127	2735
814.268	2830
814.41	2845
814.551	2785
814.692	2872
814.833	2838
814.974	2914
815.115	2948
815.256	2819
815.397	2792
815.539	2883
815.68	2769
815.821	2788
815.962	2925
816.103	2922
816.244	2891
816.385	2868
816.526	2948
816.666	2918
816.807	2762
816.948	2872
817.089	2937
817.23	2834
817.371	2777
817.512	2788
817.653	2834
817.793	2823
817.934	2910
818.075	2944
818.216	2975
818.356	3013
818.497	2861
818.638	2750
818.778	2815
818.919	2762
819.06	2750
819.2	2823
819.341	2796
819.481	2807
819.622	2925
819.762	3112
819.903	3062
820.043	2925
820.184	2887
820.324	2861
820.465	2990
820.605	3032
820.746	2990
820.886	2914
821.026	3085
821.167	3150
821.307	3214
821.447	3256
821.588	3241
821.728	3245
821.868	3184
822.008	3089
822.149	3184
822.289	3249
822.429	3104
822.569	3077
822.709	3192
822.849	3024
822.99	3047
823.13	3104
823.27	3199
823.41	3138
823.55	3138
823.69	3135
823.83	3165
823.97	3077
824.11	2956
824.25	3001
824.389	3001
824.529	3138
824.669	3066
824.809	3192
824.949	3245
825.089	3222
825.228	3180
825.368	2971
825.508	2948
825.648	3013
825.787	2986
825.927	2982
826.067	2956
826.206	2963
826.346	3043
826.485	3070
826.625	3150
826.765	3260
826.904	3218
827.044	2990
827.183	2910
827.323	2796
827.462	2967
827.601	2883
827.741	2933
827.88	2948
828.02	2834
828.159	2967
828.298	3020
828.437	3093
828.577	3013
828.716	3207
828.855	3066
828.994	2902
829.134	2887
829.273	2891
829.412	2845
829.551	2857
829.69	2895
829.829	2963
829.968	3127
830.107	3009
830.246	3013
830.385	2941
830.524	2819
830.663	2830
830.802	2716
830.941	2644
831.08	2629
831.219	2739
831.357	2746
831.496	2925
831.635	2727
831.774	2644
831.913	2629
832.051	2522
832.19	2568
832.329	2659
832.467	2526
832.606	2473
832.744	2549
832.883	2560
833.022	2583
833.16	2617
833.299	2686
833.437	2720
833.576	2689
833.714	2689
833.852	2750
833.991	2777
834.129	2819
834.267	2815
834.406	2811
834.544	2845
834.682	2891
834.821	2864
834.959	3036
835.097	2857
835.235	3066
835.373	2998
835.511	3028
835.65	2929
835.788	2929
835.926	2826
836.064	2800
836.202	2830
836.34	3070
836.478	3135
836.615	3062
836.753	3131
836.891	3211
837.029	3142
837.167	3077
837.305	3020
837.443	3024
837.58	2956
837.718	3131
837.856	3062
837.993	3017
838.131	3108
838.269	3085
838.406	3077
838.544	3070
838.681	2918
838.819	2925
838.956	2781
839.094	2811
839.231	2933
839.369	2990
839.506	3355
839.643	3199
839.781	3024
839.918	2960
840.055	3028
840.193	3058
840.33	3070
840.467	3074
840.604	3169
840.742	3397
840.879	3043
841.016	3058
841.153	3146
841.29	3313
841.427	3302
841.564	3272
841.701	3264
841.838	3154
841.975	3176
842.112	3207
842.249	3074
842.385	3028
842.522	3279
842.659	3058
842.796	3081
842.933	3089
843.069	3047
843.206	3020
843.343	3184
843.479	3138
843.616	3142
843.752	2914
843.889	2830
844.025	3074
844.162	2876
844.298	3055
844.435	2933
844.571	2895
844.708	3024
844.844	3180
844.98	3180
845.117	3192
845.253	3032
845.389	3005
845.525	3081
845.661	3100
845.798	3032
845.934	3138
846.07	3024
846.206	3203
846.342	3329
846.478	3207
846.614	3062
846.75	3051
846.886	3005
847.022	3233
847.158	3135
847.294	3199
847.429	3203
847.565	3218
847.701	3511
847.837	3058
847.972	3013
848.108	3150
848.244	3119
848.379	2990
848.515	2975
848.65	2922
848.786	2944
848.921	3013
849.057	3077
849.192	3135
849.328	3058
849.463	3100
849.598	3062
849.734	3024
849.869	2960
850.004	2933
850.14	2979
850.275	2891
850.41	2872
850.545	2864
850.68	2952
850.815	2929
850.95	2944
851.085	3169
851.22	3066
851.355	3036
851.49	3001
851.625	3001
851.76	3020
851.895	2910
852.03	2902
852.165	3036
852.299	3055
852.434	3176
852.569	3154
852.703	3173
852.838	3222
852.973	3329
853.107	3279
853.242	3116
853.376	3104
853.511	2956
853.645	3032
853.78	3211
853.914	3112
854.048	3085
854.183	3089
854.317	3157
854.451	3306
854.585	3093
854.72	3097
854.854	3245
854.988	3066
855.122	3043
855.256	2975
855.39	3112
855.524	3237
855.658	3173
855.792	3142
855.926	3161
856.06	3188
856.194	3268
856.327	3138
856.461	3074
856.595	3104
856.729	3089
856.862	3211
856.996	3142
857.13	3184
857.263	3192
857.397	3275
857.53	3077
857.664	3207
857.797	3245
857.931	3253
858.064	3176
858.197	3214
858.331	3112
858.464	3020
858.597	3017
858.731	3085
858.864	3127
858.997	3070
859.13	3154
859.263	3154
859.396	3161
859.529	3066
859.662	3047
859.795	3005
859.928	3123
860.061	3283
860.194	3275
860.327	3127
860.46	3093
860.592	3226
860.725	3230
860.858	3230
860.99	3119
861.123	3043
861.256	3024
861.388	3146
861.521	3846
861.653	3020
861.786	2956
861.918	3005
862.05	3043
862.183	3123
862.315	3142
862.447	3176
862.58	3116
862.712	2937
862.844	2887
862.976	3017
863.108	2963
863.24	3298
863.372	2868
863.504	2956
863.636	2929
863.768	3017
863.9	2963
864.032	2899
864.164	2925
864.296	3001
864.428	3085
864.559	3104
864.691	3036
864.823	3085
864.954	3017
865.086	2998
865.217	2967
865.349	2971
865.48	2979
865.612	3013
865.743	3180
865.875	2975
866.006	2944
866.137	2979
866.269	2967
866.4	2891
866.531	2914
866.662	2899
866.793	2861
866.924	2899
867.055	2948
867.186	2948
867.317	2861
867.448	2834
867.579	2815
867.71	2842
867.841	2804
867.972	2906
868.103	2902
868.233	2902
868.364	2876
868.495	2922
868.625	3047
868.756	3192
868.886	2944
869.017	3017
869.147	3157
869.278	3218
869.408	3051
869.539	2971
869.669	3066
869.799	3036
869.929	3135
870.06	3081
870.19	3302
870.32	3275
870.45	3256
870.58	3382
870.71	3431
870.84	3443
870.97	3313
871.1	3253
871.23	3504
871.36	3439
871.489	3332
871.619	3370
871.749	3420
871.879	3439
872.008	3492
872.138	3313
872.267	3275
872.397	3150
872.526	3077
872.656	3024
872.785	3085
872.915	3230
873.044	3291
873.173	3188
873.303	3233
873.432	3253
873.561	3218
873.69	3131
873.819	3142
873.948	3199
874.077	3108
874.206	3047
874.335	3097
874.464	3230
874.593	3370
874.722	3298
874.851	3393
874.979	3306
875.108	3336
875.237	3157
875.365	3192
875.494	3146
875.623	3275
875.751	3089
875.88	3116
876.008	3195
876.136	3218
876.265	3367
876.393	3519
876.521	3409
876.65	3382
876.778	3355
876.906	3283
877.034	3222
877.162	3226
877.29	3188
877.418	3249
877.546	3226
877.674	3245
877.802	3256
877.93	3233
878.058	3138
878.185	3100
878.313	3199
878.441	3176
878.568	3043
878.696	3142
878.824	3253
878.951	3245
879.079	3435
879.206	3599
879.333	3409
879.461	3340
879.588	3386
879.715	3458
879.842	3549
879.97	3378
880.097	3138
880.224	3119
880.351	3169
880.478	3188
880.605	3161
880.732	3165
880.859	3526
880.986	3302
881.112	3332
881.239	3192
881.366	3077
881.493	3047
881.619	2979
881.746	3085
881.872	3097
881.999	3104
882.125	3116
882.252	3283
882.378	3298
882.505	3401
882.631	3298
882.757	3169
882.883	3233
883.01	3180
883.136	3165
883.262	3066
883.388	3138
883.514	3298
883.64	3348
883.766	3275
883.892	3169
884.018	3245
884.143	3374
884.269	3549
884.395	3203
884.52	3138
884.646	3161
884.772	3093
884.897	3074
885.023	3176
885.148	3344
885.274	3401
885.399	3313
885.524	3237
885.65	3264
885.775	3325
885.9	3253
886.025	3420
886.15	3393
886.275	3310
886.4	3264
886.525	3287
886.65	3272
886.775	3237
886.9	3485
887.025	3679
887.149	3393
887.274	3233
887.399	3173
887.523	3180
887.648	3157
887.773	3199
887.897	3355
888.021	3393
888.146	3310
888.27	3428
888.395	3534
888.519	3450
888.643	3416
888.767	3466
888.891	3321
889.015	3165
889.139	3291
889.263	3214
889.387	3363
889.511	3526
889.635	3473
889.759	3287
889.883	3253
890.006	3386
890.13	3492
890.254	3279
890.377	3348
890.501	3180
890.624	3184
890.748	3268
890.871	3165
890.995	3108
891.118	3043
891.241	3199
891.364	3230
891.488	3321
891.611	3131
891.734	3233
891.857	3294
891.98	3222
892.103	3340
892.226	3279
892.349	3188
892.471	3089
892.594	3253
892.717	3298
892.839	3241
892.962	3310
893.085	3340
893.207	3283
893.33	3146
893.452	3249
893.575	3332
893.697	3241
893.819	3420
893.941	3443
894.064	3431
894.186	3298
894.308	3249
894.43	3420
894.552	3534
894.674	3492
894.796	3287
894.918	3287
895.04	3222
895.161	3469
895.283	3386
895.405	3272
895.526	3359
895.648	3431
895.769	3435
895.891	3424
896.012	3454
896.134	3473
896.255	3370
896.376	3363
896.498	3355
896.619	3393
896.74	3386
896.861	3389
896.982	3675
897.103	3838
897.224	3603
897.345	3492
897.466	3412
897.587	3496
897.708	3641
897.828	3530
897.949	3435
898.07	3351
898.19	3397
898.311	3603
898.431	3450
898.552	3523
898.672	3606
898.792	3595
898.913	3485
899.033	3367
899.153	3249
899.273	3199
899.393	3260
899.513	3283
899.633	3294
899.753	3294
899.873	3298
899.993	3340
900.113	3344
900.232	3378
900.352	3351
900.472	3264
900.591	3169
900.711	3272
900.83	3211
900.95	3420
901.069	3481
901.189	3351
901.308	3142
901.427	3146
901.546	3203
901.665	3302
901.784	3275
901.904	3176
902.023	3161
902.141	2963
902.26	2994
902.379	3135
902.498	3051
902.617	3036
902.735	3154
902.854	3230
902.973	3218
903.091	3043
903.21	3062
903.328	3138
903.446	3100
903.565	3077
903.683	3199
903.801	3135
903.919	3199
904.038	3260
904.156	3142
904.274	3306
904.392	3245
904.51	3313
904.627	3310
904.745	3439
904.863	3485
904.981	3268
905.098	3135
905.216	3241
905.334	3279
905.451	3287
905.569	3340
905.686	3393
905.803	3443
905.921	3272
906.038	3370
906.155	3340
906.272	3237
906.389	3344
906.506	3195
906.623	3260
906.74	3272
906.857	3180
906.974	3222
907.091	3447
907.208	3561
907.324	3469
907.441	3382
907.557	3230
907.674	3249
907.79	3230
907.907	3294
908.023	3378
908.139	3321
908.256	3317
908.372	3370
908.488	3367
908.604	3237
908.72	3218
908.836	3241
908.952	3272
909.068	3359
909.184	3466
909.3	3317
909.415	3485
909.531	3473
909.647	3283
909.762	3275
909.878	3264
909.993	3370
910.108	3325
910.224	3325
910.339	3435
910.454	3329
910.57	3279
910.685	3249
910.8	3572
910.915	3523
911.03	3412
911.145	3237
911.259	3253
911.374	3313
911.489	3272
911.604	3207
911.718	3127
911.833	3180
911.947	3017
912.062	3001
912.176	3176
912.291	3169
912.405	3207
912.519	3435
912.633	3488
912.748	3344
912.862	3298
912.976	3233
913.09	3043
913.204	3165
913.318	3249
913.431	3329
913.545	3340
913.659	3439
913.772	3306
913.886	3188
914	3237
914.113	3332
914.226	3439
914.34	3367
914.453	3233
914.566	3420
914.68	3291
914.793	3332
914.906	3150
915.019	3135
915.132	3077
915.245	3203
915.358	3249
915.47	3268
915.583	3291
915.696	3321
915.809	3431
915.921	3466
916.034	3279
916.146	3279
916.259	3264
916.371	3389
916.483	3378
916.595	3291
916.708	3355
916.82	3344
916.932	3370
917.044	3401
917.156	3386
917.268	3283
917.38	3302
917.491	3325
917.603	3397
917.715	3504
917.826	3530
917.938	3397
918.049	3329
918.161	3458
918.272	3625
918.384	3633
918.495	3538
918.606	3363
918.717	3374
918.828	3416
918.939	3462
919.05	3332
919.161	3420
919.272	3203
919.383	3325
919.494	3519
919.604	3709
919.715	3515
919.826	3504
919.936	3462
920.047	3618
920.157	3618
920.267	3800
920.378	3667
920.488	3629
920.598	3785
920.708	4029
920.818	3865
920.928	3857
921.038	4074
921.148	4025
921.258	3766
921.368	3709
921.477	3622
921.587	3587
921.697	3477
921.806	3675
921.916	3595
922.025	3378
922.134	3431
922.244	3329
922.353	3473
922.462	3310
922.571	3233
922.68	3184
922.789	3116
922.898	3119
923.007	3154
923.116	3218
923.224	3237
923.333	3230
923.442	3173
923.55	3112
923.659	3211
923.767	3230
923.876	3176
923.984	3253
924.092	3119
924.201	3230
924.309	3233
924.417	3310
924.525	3203
924.633	3298
924.741	3991
924.849	3074
924.956	3310
925.064	3135
925.172	3039
925.279	3127
925.387	3233
925.494	3222
925.602	3416
925.709	3359
925.816	3214
925.924	3275
926.031	3393
926.138	3367
926.245	3412
926.352	3302
926.459	3416
926.566	3500
926.673	3332
926.779	3291
926.886	3230
926.993	3176
927.099	3173
927.206	3154
927.312	3203
927.419	3279
927.525	3256
927.631	3279
927.737	3173
927.843	3161
927.95	3036
928.056	3154
928.162	3218
928.267	3291
928.373	3823
928.479	3329
928.585	3116
928.69	3245
928.796	3287
928.901	3161
929.007	3058
929.112	3260
929.218	3199
929.323	3222
929.428	3199
929.533	3370
929.638	3180
929.743	3211
929.848	3294
929.953	3169
930.058	3173
930.163	3043
930.267	3070
930.372	3233
930.477	3077
930.581	3370
930.685	3184
930.79	3093
930.894	3176
930.998	3161
931.103	3321
931.207	3017
931.311	2963
931.415	2986
931.519	2807
931.623	2826
