Data from test_V78500241_1300.txt Node
Date: Fri Mar 25 16:24:12 CST 2022
User: usil
Spectrometer: V785-0024
Trigger mode: 0
Integration Time (sec): 4.000000E-1
Scans to average: 1
Nonlinearity correction enabled: false
Boxcar width: 0
Storing dark spectrum: false
XAxis mode: Wavelengths
Number of Pixels in Spectrum: 1024
>>>>>Begin Spectral Data<<<<<
801.071	2922
801.214	2960
801.356	2937
801.499	2925
801.641	2933
801.783	2902
801.926	3024
802.068	2967
802.211	2986
802.353	3081
802.496	2990
802.638	3032
802.78	3089
802.923	3085
803.065	3024
803.208	2922
803.35	2963
803.492	2960
803.635	2941
803.777	2811
803.919	2902
804.061	3226
804.204	2960
804.346	2929
804.488	2853
804.63	2975
804.773	2895
804.915	2918
805.057	3100
805.199	2944
805.341	3009
805.483	3070
805.626	3047
805.768	2963
805.91	3135
806.052	3161
806.194	3058
806.336	3256
806.478	3043
806.62	2967
806.762	2967
806.904	3051
807.046	3211
807.188	3017
807.33	2929
807.472	2967
807.614	2948
807.756	3020
807.898	2933
808.04	2941
808.182	2994
808.324	2956
808.465	2849
808.607	2883
808.749	2838
808.891	2857
809.033	2986
809.174	2982
809.316	2902
809.458	2899
809.6	2800
809.741	2766
809.883	2792
810.025	2868
810.166	2857
810.308	2861
810.45	2868
810.591	2773
810.733	2788
810.875	2842
811.016	2811
811.158	2773
811.299	2853
811.441	2963
811.582	2910
811.724	2853
811.865	2830
812.007	2895
812.148	2906
812.29	2864
812.431	2952
812.573	2963
812.714	2948
812.855	3089
812.997	3051
813.138	3146
813.279	3013
813.421	3039
813.562	2986
813.703	2842
813.845	2887
813.986	2788
814.127	2727
814.268	2842
814.41	2857
814.551	2853
814.692	2906
814.833	2815
814.974	2899
815.115	2952
815.256	2891
815.397	2830
815.539	2872
815.68	2785
815.821	2838
815.962	2925
816.103	2971
816.244	2895
816.385	2868
816.526	2979
816.666	2899
816.807	2766
816.948	2899
817.089	2914
817.23	2842
817.371	2804
817.512	2781
817.653	2857
817.793	2845
817.934	2895
818.075	2948
818.216	3020
818.356	3020
818.497	2887
818.638	2792
818.778	2842
818.919	2819
819.06	2777
819.2	2910
819.341	2857
819.481	2777
819.622	2929
819.762	3081
819.903	3055
820.043	2937
820.184	2880
820.324	2925
820.465	3055
820.605	3017
820.746	3032
820.886	2925
821.026	3077
821.167	3161
821.307	3279
821.447	3253
821.588	3245
821.728	3230
821.868	3188
822.008	3100
822.149	3192
822.289	3237
822.429	3104
822.569	3085
822.709	3184
822.849	3036
822.99	3047
823.13	3214
823.27	3157
823.41	3058
823.55	3127
823.69	3176
823.83	3249
823.97	3104
824.11	3001
824.25	2994
824.389	3062
824.529	3154
824.669	3100
824.809	3256
824.949	3260
825.089	3268
825.228	3203
825.368	3024
825.508	2990
825.648	2986
825.787	3028
825.927	3043
826.067	2960
826.206	2998
826.346	3085
826.485	3055
826.625	3150
826.765	3272
826.904	3230
827.044	3024
827.183	2960
827.323	2849
827.462	3039
827.601	2960
827.741	2952
827.88	2956
828.02	2891
828.159	2929
828.298	3066
828.437	3127
828.577	3028
828.716	3264
828.855	3093
828.994	2937
829.134	2883
829.273	2937
829.412	2864
829.551	2876
829.69	2925
829.829	2975
829.968	3127
830.107	3036
830.246	3039
830.385	2937
830.524	2899
830.663	2857
830.802	2739
830.941	2667
831.08	2655
831.219	2743
831.357	2796
831.496	2975
831.635	2746
831.774	2693
831.913	2674
832.051	2579
832.19	2590
832.329	2648
832.467	2537
832.606	2511
832.744	2598
832.883	2587
833.022	2632
833.16	2640
833.299	2678
833.437	2689
833.576	2712
833.714	2754
833.852	2731
833.991	2796
834.129	2834
834.267	2857
834.406	2811
834.544	2883
834.682	2895
834.821	2902
834.959	3108
835.097	2922
835.235	3093
835.373	2960
835.511	3024
835.65	2979
835.788	2960
835.926	2868
836.064	2819
836.202	2876
836.34	3112
836.478	3173
836.615	3055
836.753	3165
836.891	3218
837.029	3165
837.167	3104
837.305	3081
837.443	3047
837.58	2937
837.718	3131
837.856	3043
837.993	3058
838.131	3135
838.269	3127
838.406	3127
838.544	3116
838.681	2914
838.819	2922
838.956	2804
839.094	2864
839.231	2906
839.369	3020
839.506	3351
839.643	3211
839.781	3055
839.918	2963
840.055	3039
840.193	3047
840.33	3085
840.467	3097
840.604	3142
840.742	3447
840.879	3074
841.016	3085
841.153	3154
841.29	3348
841.427	3321
841.564	3306
841.701	3313
841.838	3249
841.975	3199
842.112	3226
842.249	3123
842.385	3047
842.522	3260
842.659	3081
842.796	3093
842.933	3112
843.069	3039
843.206	3036
843.343	3214
843.479	3127
843.616	3157
843.752	2918
843.889	2910
844.025	3116
844.162	2864
844.298	3097
844.435	2960
844.571	2891
844.708	3055
844.844	3233
844.98	3291
845.117	3207
845.253	3051
845.389	3005
845.525	3100
845.661	3104
845.798	3032
845.934	3154
846.07	3051
846.206	3253
846.342	3298
846.478	3249
846.614	3119
846.75	3036
846.886	3062
847.022	3218
847.158	3169
847.294	3184
847.429	3260
847.565	3222
847.701	3466
847.837	3062
847.972	2982
848.108	3169
848.244	3150
848.379	2979
848.515	2990
848.65	2918
848.786	3009
848.921	3039
849.057	3142
849.192	3184
849.328	3077
849.463	3100
849.598	3104
849.734	3032
849.869	2994
850.004	2929
850.14	2952
850.275	2914
850.41	2823
850.545	2899
850.68	2922
850.815	2952
850.95	2952
851.085	3184
851.22	3135
851.355	3062
851.49	2975
851.625	3013
851.76	3024
851.895	2952
852.03	2944
852.165	3062
852.299	3093
852.434	3195
852.569	3157
852.703	3150
852.838	3306
852.973	3351
853.107	3363
853.242	3165
853.376	3089
853.511	3001
853.645	3077
853.78	3207
853.914	3142
854.048	3123
854.183	3116
854.317	3135
854.451	3302
854.585	3112
854.72	3081
854.854	3211
854.988	3043
855.122	3077
855.256	2956
855.39	3142
855.524	3245
855.658	3195
855.792	3203
855.926	3157
856.06	3207
856.194	3294
856.327	3157
856.461	3085
856.595	3070
856.729	3119
856.862	3249
856.996	3180
857.13	3195
857.263	3207
857.397	3260
857.53	3108
857.664	3176
857.797	3245
857.931	3245
858.064	3157
858.197	3199
858.331	3131
858.464	3081
858.597	2994
858.731	3138
858.864	3135
858.997	3043
859.13	3116
859.263	3180
859.396	3188
859.529	3070
859.662	3077
859.795	3062
859.928	3154
860.061	3260
860.194	3275
860.327	3112
860.46	3085
860.592	3222
860.725	3268
860.858	3253
860.99	3104
861.123	3047
861.256	3055
861.388	3089
861.521	3686
861.653	3001
861.786	2998
861.918	3024
862.05	3051
862.183	3058
862.315	3176
862.447	3157
862.58	3097
862.712	2971
862.844	2857
862.976	3032
863.108	2998
863.24	3321
863.372	2895
863.504	2948
863.636	2925
863.768	3062
863.9	2944
864.032	2910
864.164	2933
864.296	2990
864.428	3131
864.559	3119
864.691	3093
864.823	3062
864.954	3066
865.086	3070
865.217	2975
865.349	2944
865.48	2990
865.612	3017
865.743	3199
865.875	3005
866.006	2971
866.137	2979
866.269	2933
866.4	2967
866.531	2956
866.662	2883
866.793	2922
866.924	2899
867.055	2971
867.186	2918
867.317	2910
867.448	2861
867.579	2853
867.71	2880
867.841	2781
867.972	2876
868.103	2880
868.233	2895
868.364	2868
868.495	2891
868.625	3062
868.756	3154
868.886	2963
869.017	3039
869.147	3154
869.278	3131
869.408	3020
869.539	3039
869.669	3093
869.799	3058
869.929	3146
870.06	3157
870.19	3332
870.32	3268
870.45	3336
870.58	3348
870.71	3473
870.84	3431
870.97	3294
871.1	3264
871.23	3500
871.36	3462
871.489	3329
871.619	3412
871.749	3409
871.879	3450
872.008	3469
872.138	3329
872.267	3287
872.397	3119
872.526	3119
872.656	2998
872.785	3116
872.915	3253
873.044	3279
873.173	3245
873.303	3287
873.432	3214
873.561	3195
873.69	3135
873.819	3135
873.948	3192
874.077	3100
874.206	3028
874.335	3119
874.464	3192
874.593	3351
874.722	3253
874.851	3412
874.979	3359
875.108	3374
875.237	3214
875.365	3142
875.494	3165
875.623	3275
875.751	3100
875.88	3150
876.008	3222
876.136	3226
876.265	3405
876.393	3492
876.521	3412
876.65	3401
876.778	3272
876.906	3233
877.034	3233
877.162	3211
877.29	3230
877.418	3272
877.546	3230
877.674	3237
877.802	3222
877.93	3192
878.058	3154
878.185	3070
878.313	3199
878.441	3214
878.568	3055
878.696	3108
878.824	3230
878.951	3260
879.079	3435
879.206	3633
879.333	3443
879.461	3344
879.588	3306
879.715	3485
879.842	3584
879.97	3363
880.097	3192
880.224	3112
880.351	3226
880.478	3218
880.605	3173
880.732	3211
880.859	3454
880.986	3294
881.112	3340
881.239	3230
881.366	3093
881.493	3032
881.619	3051
881.746	3058
881.872	3062
881.999	3104
882.125	3123
882.252	3230
882.378	3332
882.505	3443
882.631	3245
882.757	3104
882.883	3184
883.01	3176
883.136	3135
883.262	3104
883.388	3112
883.514	3306
883.64	3374
883.766	3313
883.892	3142
884.018	3195
884.143	3420
884.269	3469
884.395	3192
884.52	3157
884.646	3188
884.772	3142
884.897	3085
885.023	3184
885.148	3348
885.274	3424
885.399	3336
885.524	3241
885.65	3249
885.775	3321
885.9	3294
886.025	3389
886.15	3409
886.275	3294
886.4	3264
886.525	3302
886.65	3298
886.775	3279
886.9	3511
887.025	3595
887.149	3416
887.274	3230
887.399	3161
887.523	3207
887.648	3176
887.773	3199
887.897	3389
888.021	3401
888.146	3249
888.27	3462
888.395	3538
888.519	3439
888.643	3416
888.767	3439
888.891	3325
889.015	3272
889.139	3302
889.263	3237
889.387	3409
889.511	3542
889.635	3424
889.759	3260
889.883	3306
890.006	3389
890.13	3492
890.254	3275
890.377	3355
890.501	3161
890.624	3165
890.748	3291
890.871	3192
890.995	3089
891.118	3077
891.241	3184
891.364	3195
891.488	3268
891.611	3203
891.734	3192
891.857	3264
891.98	3256
892.103	3287
892.226	3253
892.349	3237
892.471	3097
892.594	3241
892.717	3256
892.839	3249
892.962	3302
893.085	3393
893.207	3268
893.33	3154
893.452	3176
893.575	3325
893.697	3249
893.819	3477
893.941	3504
894.064	3428
894.186	3264
894.308	3256
894.43	3431
894.552	3557
894.674	3412
894.796	3233
894.918	3291
895.04	3268
895.161	3443
895.283	3393
895.405	3317
895.526	3355
895.648	3439
895.769	3405
895.891	3439
896.012	3458
896.134	3447
896.255	3405
896.376	3393
896.498	3336
896.619	3431
896.74	3336
896.861	3416
896.982	3686
897.103	3873
897.224	3580
897.345	3538
897.466	3420
897.587	3454
897.708	3633
897.828	3576
897.949	3435
898.07	3298
898.19	3420
898.311	3568
898.431	3462
898.552	3488
898.672	3599
898.792	3561
898.913	3473
899.033	3412
899.153	3287
899.273	3195
899.393	3253
899.513	3302
899.633	3325
899.753	3336
899.873	3325
899.993	3363
900.113	3298
900.232	3382
900.352	3340
900.472	3272
900.591	3199
900.711	3332
900.83	3272
900.95	3401
901.069	3481
901.189	3363
901.308	3169
901.427	3142
901.546	3211
901.665	3264
901.784	3279
901.904	3207
902.023	3127
902.141	2998
902.26	2971
902.379	3119
902.498	3070
902.617	3024
902.735	3207
902.854	3218
902.973	3184
903.091	3032
903.21	3066
903.328	3138
903.446	3074
903.565	3116
903.683	3161
903.801	3116
903.919	3226
904.038	3283
904.156	3165
904.274	3287
904.392	3233
904.51	3279
904.627	3302
904.745	3412
904.863	3485
904.981	3253
905.098	3188
905.216	3203
905.334	3302
905.451	3294
905.569	3310
905.686	3447
905.803	3409
905.921	3298
906.038	3439
906.155	3367
906.272	3298
906.389	3340
906.506	3249
906.623	3249
906.74	3264
906.857	3165
906.974	3298
907.091	3447
907.208	3557
907.324	3462
907.441	3370
907.557	3275
907.674	3233
907.79	3195
907.907	3306
908.023	3340
908.139	3386
908.256	3325
908.372	3351
908.488	3348
908.604	3245
908.72	3249
908.836	3272
908.952	3264
909.068	3302
909.184	3458
909.3	3359
909.415	3500
909.531	3466
909.647	3313
909.762	3298
909.878	3268
909.993	3332
910.108	3359
910.224	3325
910.339	3397
910.454	3351
910.57	3287
910.685	3233
910.8	3572
910.915	3519
911.03	3378
911.145	3268
911.259	3302
911.374	3310
911.489	3237
911.604	3176
911.718	3112
911.833	3150
911.947	3009
912.062	2963
912.176	3131
912.291	3222
912.405	3230
912.519	3458
912.633	3500
912.748	3325
912.862	3260
912.976	3199
913.09	3032
913.204	3089
913.318	3214
913.431	3336
913.545	3310
913.659	3424
913.772	3302
913.886	3195
914	3150
914.113	3325
914.226	3393
914.34	3367
914.453	3211
914.566	3428
914.68	3275
914.793	3325
914.906	3123
915.019	3070
915.132	3058
915.245	3176
915.358	3230
915.47	3173
915.583	3260
915.696	3245
915.809	3393
915.921	3428
916.034	3253
916.146	3241
916.259	3211
916.371	3382
916.483	3374
916.595	3241
916.708	3317
916.82	3344
916.932	3336
917.044	3386
917.156	3351
917.268	3249
917.38	3294
917.491	3283
917.603	3367
917.715	3469
917.826	3481
917.938	3393
918.049	3291
918.161	3447
918.272	3584
918.384	3504
918.495	3507
918.606	3321
918.717	3253
918.828	3386
918.939	3386
919.05	3264
919.161	3367
919.272	3176
919.383	3253
919.494	3515
919.604	3656
919.715	3477
919.826	3359
919.936	3424
920.047	3576
920.157	3534
920.267	3774
920.378	3591
920.488	3587
920.598	3755
920.708	3937
920.818	3797
920.928	3842
921.038	4013
921.148	3987
921.258	3701
921.368	3610
921.477	3545
921.587	3545
921.697	3431
921.806	3603
921.916	3492
922.025	3397
922.134	3359
922.244	3287
922.353	3374
922.462	3264
922.571	3211
922.68	3043
922.789	3081
922.898	3123
923.007	3108
923.116	3226
923.224	3154
923.333	3165
923.442	3070
923.55	3097
923.659	3123
923.767	3207
923.876	3119
923.984	3222
924.092	3131
924.201	3161
924.309	3218
924.417	3256
924.525	3165
924.633	3211
924.741	3983
924.849	3051
924.956	3253
925.064	3104
925.172	3055
925.279	3097
925.387	3222
925.494	3188
925.602	3367
925.709	3355
925.816	3195
925.924	3256
926.031	3389
926.138	3348
926.245	3321
926.352	3272
926.459	3405
926.566	3488
926.673	3306
926.779	3253
926.886	3245
926.993	3142
927.099	3127
927.206	3093
927.312	3116
927.419	3245
927.525	3146
927.631	3287
927.737	3135
927.843	3089
927.95	2998
928.056	3184
928.162	3176
928.267	3264
928.373	3903
928.479	3336
928.585	3070
928.69	3226
928.796	3264
928.901	3207
929.007	3055
929.112	3222
929.218	3199
929.323	3089
929.428	3138
929.533	3344
929.638	3146
929.743	3180
929.848	3268
929.953	3241
930.058	3150
930.163	2986
930.267	3028
930.372	3180
930.477	3024
930.581	3310
930.685	3165
930.79	3028
930.894	3100
930.998	3085
931.103	3264
931.207	2963
931.311	2922
931.415	2895
931.519	2800
931.623	2804
