Data from test_V78500241_1443.txt Node
Date: Fri Mar 25 16:25:12 CST 2022
User: usil
Spectrometer: V785-0024
Trigger mode: 0
Integration Time (sec): 4.000000E-1
Scans to average: 1
Nonlinearity correction enabled: false
Boxcar width: 0
Storing dark spectrum: false
XAxis mode: Wavelengths
Number of Pixels in Spectrum: 1024
>>>>>Begin Spectral Data<<<<<
801.071	2925
801.214	2914
801.356	2849
801.499	2876
801.641	2861
801.783	2944
801.926	3051
802.068	3005
802.211	2994
802.353	2982
802.496	2948
802.638	3017
802.78	3024
802.923	3058
803.065	3001
803.208	2891
803.35	2906
803.492	2929
803.635	2872
803.777	2766
803.919	2853
804.061	3199
804.204	2910
804.346	2899
804.488	2842
804.63	2967
804.773	2872
804.915	2937
805.057	3074
805.199	2918
805.341	2948
805.483	3005
805.626	3005
805.768	2956
805.91	3051
806.052	3074
806.194	3047
806.336	3211
806.478	3005
806.62	2944
806.762	2944
806.904	3047
807.046	3154
807.188	2975
807.33	2868
807.472	2998
807.614	2922
807.756	3020
807.898	2922
808.04	2906
808.182	2963
808.324	2960
808.465	2883
808.607	2895
808.749	2777
808.891	2845
809.033	2944
809.174	2944
809.316	2910
809.458	2872
809.6	2758
809.741	2785
809.883	2785
810.025	2861
810.166	2857
810.308	2868
810.45	2826
810.591	2811
810.733	2754
810.875	2823
811.016	2746
811.158	2777
811.299	2788
811.441	2895
811.582	2902
811.724	2823
811.865	2796
812.007	2914
812.148	2864
812.29	2861
812.431	2895
812.573	2956
812.714	2963
812.855	3005
812.997	3051
813.138	3135
813.279	3013
813.421	3001
813.562	2937
813.703	2887
813.845	2902
813.986	2746
814.127	2762
814.268	2811
814.41	2811
814.551	2781
814.692	2895
814.833	2769
814.974	2887
815.115	2982
815.256	2811
815.397	2819
815.539	2864
815.68	2792
815.821	2788
815.962	2929
816.103	2910
816.244	2895
816.385	2857
816.526	2960
816.666	2918
816.807	2758
816.948	2902
817.089	2876
817.23	2864
817.371	2785
817.512	2788
817.653	2830
817.793	2834
817.934	2883
818.075	2937
818.216	3020
818.356	3001
818.497	2883
818.638	2762
818.778	2823
818.919	2769
819.06	2735
819.2	2891
819.341	2796
819.481	2807
819.622	2922
819.762	3077
819.903	3032
820.043	2941
820.184	2895
820.324	2895
820.465	3058
820.605	3001
820.746	3028
820.886	2922
821.026	3104
821.167	3169
821.307	3256
821.447	3294
821.588	3253
821.728	3180
821.868	3180
822.008	3108
822.149	3180
822.289	3233
822.429	3108
822.569	3089
822.709	3195
822.849	3009
822.99	3051
823.13	3157
823.27	3180
823.41	3093
823.55	3173
823.69	3157
823.83	3169
823.97	3112
824.11	3017
824.25	3017
824.389	3119
824.529	3097
824.669	3062
824.809	3173
824.949	3245
825.089	3199
825.228	3131
825.368	2998
825.508	2975
825.648	2971
825.787	2986
825.927	2967
826.067	2998
826.206	2929
826.346	3039
826.485	3055
826.625	3157
826.765	3275
826.904	3207
827.044	2986
827.183	2910
827.323	2857
827.462	2982
827.601	2906
827.741	2914
827.88	2956
828.02	2842
828.159	2971
828.298	2990
828.437	3097
828.577	3051
828.716	3230
828.855	3051
828.994	2883
829.134	2857
829.273	2922
829.412	2902
829.551	2861
829.69	2906
829.829	2986
829.968	3108
830.107	3013
830.246	3058
830.385	2895
830.524	2857
830.663	2849
830.802	2716
830.941	2613
831.08	2644
831.219	2769
831.357	2750
831.496	2902
831.635	2720
831.774	2648
831.913	2655
832.051	2541
832.19	2594
832.329	2670
832.467	2514
832.606	2469
832.744	2583
832.883	2583
833.022	2583
833.16	2613
833.299	2701
833.437	2697
833.576	2682
833.714	2731
833.852	2754
833.991	2758
834.129	2849
834.267	2853
834.406	2777
834.544	2895
834.682	2899
834.821	2834
834.959	3093
835.097	2876
835.235	3070
835.373	2986
835.511	3013
835.65	2967
835.788	2948
835.926	2830
836.064	2804
836.202	2842
836.34	3112
836.478	3108
836.615	3043
836.753	3104
836.891	3199
837.029	3150
837.167	3074
837.305	3085
837.443	3028
837.58	2960
837.718	3131
837.856	3036
837.993	3024
838.131	3123
838.269	3135
838.406	3062
838.544	3062
838.681	2910
838.819	2910
838.956	2785
839.094	2811
839.231	2906
839.369	3024
839.506	3287
839.643	3214
839.781	3028
839.918	2925
840.055	2998
840.193	3039
840.33	3085
840.467	3066
840.604	3127
840.742	3351
840.879	3036
841.016	3020
841.153	3089
841.29	3340
841.427	3291
841.564	3241
841.701	3283
841.838	3188
841.975	3157
842.112	3184
842.249	3013
842.385	3001
842.522	3279
842.659	3104
842.796	3047
842.933	3093
843.069	3062
843.206	3028
843.343	3176
843.479	3081
843.616	3138
843.752	2876
843.889	2864
844.025	3093
844.162	2902
844.298	3051
844.435	2929
844.571	2906
844.708	3055
844.844	3192
844.98	3203
845.117	3173
845.253	3024
845.389	2971
845.525	3074
845.661	3070
845.798	2990
845.934	3138
846.07	3028
846.206	3195
846.342	3275
846.478	3233
846.614	3070
846.75	3058
846.886	2979
847.022	3214
847.158	3116
847.294	3180
847.429	3230
847.565	3199
847.701	3500
847.837	3024
847.972	3001
848.108	3138
848.244	3116
848.379	2948
848.515	2933
848.65	2922
848.786	2956
848.921	2998
849.057	3112
849.192	3165
849.328	3047
849.463	3169
849.598	3024
849.734	3032
849.869	2971
850.004	2906
850.14	2941
850.275	2880
850.41	2834
850.545	2849
850.68	2941
850.815	2967
850.95	2952
851.085	3226
851.22	3097
851.355	3024
851.49	2994
851.625	2979
851.76	3005
851.895	2918
852.03	2883
852.165	3009
852.299	3074
852.434	3180
852.569	3138
852.703	3157
852.838	3226
852.973	3313
853.107	3367
853.242	3127
853.376	3074
853.511	2963
853.645	3001
853.78	3253
853.914	3093
854.048	3081
854.183	3123
854.317	3154
854.451	3287
854.585	3131
854.72	3085
854.854	3188
854.988	3070
855.122	3093
855.256	2956
855.39	3123
855.524	3230
855.658	3169
855.792	3165
855.926	3161
856.06	3203
856.194	3279
856.327	3146
856.461	3085
856.595	3093
856.729	3062
856.862	3188
856.996	3135
857.13	3195
857.263	3184
857.397	3245
857.53	3089
857.664	3184
857.797	3245
857.931	3241
858.064	3211
858.197	3211
858.331	3131
858.464	3085
858.597	3009
858.731	3085
858.864	3116
858.997	3089
859.13	3093
859.263	3214
859.396	3195
859.529	3062
859.662	3032
859.795	3043
859.928	3119
860.061	3241
860.194	3253
860.327	3108
860.46	3074
860.592	3188
860.725	3218
860.858	3211
860.99	3093
861.123	3047
861.256	3032
861.388	3104
861.521	3873
861.653	3013
861.786	2952
861.918	2998
862.05	3043
862.183	3100
862.315	3150
862.447	3157
862.58	3062
862.712	2937
862.844	2853
862.976	3009
863.108	3001
863.24	3310
863.372	2883
863.504	2952
863.636	2963
863.768	3009
863.9	2922
864.032	2861
864.164	2895
864.296	2986
864.428	3055
864.559	3131
864.691	3055
864.823	3055
864.954	3017
865.086	3047
865.217	2967
865.349	2937
865.48	2975
865.612	3005
865.743	3138
865.875	2967
866.006	2948
866.137	2994
866.269	2944
866.4	2948
866.531	2887
866.662	2876
866.793	2887
866.924	2922
867.055	2948
867.186	2922
867.317	2845
867.448	2838
867.579	2830
867.71	2842
867.841	2800
867.972	2880
868.103	2906
868.233	2914
868.364	2880
868.495	2883
868.625	3051
868.756	3138
868.886	2956
869.017	2998
869.147	3157
869.278	3192
869.408	3036
869.539	3001
869.669	3093
869.799	3032
869.929	3142
870.06	3104
870.19	3321
870.32	3275
870.45	3313
870.58	3382
870.71	3447
870.84	3458
870.97	3298
871.1	3214
871.23	3458
871.36	3431
871.489	3321
871.619	3393
871.749	3416
871.879	3443
872.008	3496
872.138	3348
872.267	3275
872.397	3070
872.526	3047
872.656	3017
872.785	3070
872.915	3207
873.044	3302
873.173	3176
873.303	3233
873.432	3253
873.561	3218
873.69	3165
873.819	3154
873.948	3157
874.077	3097
874.206	3020
874.335	3093
874.464	3173
874.593	3329
874.722	3241
874.851	3389
874.979	3336
875.108	3291
875.237	3157
875.365	3150
875.494	3135
875.623	3260
875.751	3100
875.88	3157
876.008	3180
876.136	3207
876.265	3344
876.393	3488
876.521	3382
876.65	3367
876.778	3306
876.906	3260
877.034	3180
877.162	3211
877.29	3184
877.418	3233
877.546	3241
877.674	3199
877.802	3211
877.93	3192
878.058	3116
878.185	3104
878.313	3222
878.441	3176
878.568	3066
878.696	3131
878.824	3233
878.951	3275
879.079	3450
879.206	3603
879.333	3416
879.461	3310
879.588	3340
879.715	3450
879.842	3606
879.97	3367
880.097	3138
880.224	3108
880.351	3165
880.478	3253
880.605	3192
880.732	3154
880.859	3473
880.986	3272
881.112	3321
881.239	3188
881.366	3081
881.493	2994
881.619	3032
881.746	3032
881.872	3081
881.999	3074
882.125	3146
882.252	3199
882.378	3298
882.505	3469
882.631	3294
882.757	3173
882.883	3188
883.01	3218
883.136	3176
883.262	3085
883.388	3131
883.514	3291
883.64	3370
883.766	3275
883.892	3192
884.018	3226
884.143	3378
884.269	3469
884.395	3195
884.52	3138
884.646	3173
884.772	3100
884.897	3089
885.023	3165
885.148	3321
885.274	3393
885.399	3355
885.524	3233
885.65	3226
885.775	3291
885.9	3317
886.025	3409
886.15	3351
886.275	3321
886.4	3188
886.525	3256
886.65	3287
886.775	3226
886.9	3477
887.025	3610
887.149	3370
887.274	3226
887.399	3169
887.523	3180
887.648	3157
887.773	3195
887.897	3424
888.021	3382
888.146	3294
888.27	3405
888.395	3553
888.519	3393
888.643	3420
888.767	3447
888.891	3298
889.015	3249
889.139	3287
889.263	3241
889.387	3435
889.511	3526
889.635	3450
889.759	3294
889.883	3272
890.006	3397
890.13	3473
890.254	3245
890.377	3325
890.501	3154
890.624	3173
890.748	3245
890.871	3157
890.995	3116
891.118	3020
891.241	3176
891.364	3192
891.488	3313
891.611	3161
891.734	3173
891.857	3287
891.98	3226
892.103	3310
892.226	3241
892.349	3184
892.471	3097
892.594	3237
892.717	3283
892.839	3237
892.962	3279
893.085	3310
893.207	3268
893.33	3154
893.452	3161
893.575	3321
893.697	3245
893.819	3428
893.941	3462
894.064	3420
894.186	3237
894.308	3233
894.43	3450
894.552	3526
894.674	3477
894.796	3287
894.918	3302
895.04	3291
895.161	3405
895.283	3401
895.405	3340
895.526	3359
895.648	3416
895.769	3431
895.891	3428
896.012	3473
896.134	3473
896.255	3443
896.376	3386
896.498	3355
896.619	3439
896.74	3367
896.861	3431
896.982	3652
897.103	3884
897.224	3599
897.345	3553
897.466	3447
897.587	3542
897.708	3629
897.828	3584
897.949	3469
898.07	3370
898.19	3393
898.311	3614
898.431	3462
898.552	3507
898.672	3656
898.792	3610
898.913	3553
899.033	3435
899.153	3321
899.273	3275
899.393	3306
899.513	3332
899.633	3313
899.753	3351
899.873	3317
899.993	3428
900.113	3359
900.232	3416
900.352	3355
900.472	3294
900.591	3294
900.711	3359
900.83	3241
900.95	3504
901.069	3530
901.189	3359
901.308	3188
901.427	3154
901.546	3218
901.665	3310
901.784	3393
901.904	3268
902.023	3165
902.141	3062
902.26	3017
902.379	3199
902.498	3108
902.617	3081
902.735	3287
902.854	3298
902.973	3268
903.091	3085
903.21	3119
903.328	3154
903.446	3180
903.565	3169
903.683	3249
903.801	3173
903.919	3317
904.038	3359
904.156	3218
904.274	3294
904.392	3310
904.51	3336
904.627	3367
904.745	3458
904.863	3504
904.981	3287
905.098	3199
905.216	3279
905.334	3321
905.451	3355
905.569	3325
905.686	3420
905.803	3458
905.921	3344
906.038	3492
906.155	3409
906.272	3344
906.389	3363
906.506	3275
906.623	3279
906.74	3294
906.857	3233
906.974	3283
907.091	3454
907.208	3637
907.324	3530
907.441	3374
907.557	3275
907.674	3245
907.79	3241
907.907	3302
908.023	3401
908.139	3397
908.256	3370
908.372	3435
908.488	3409
908.604	3306
908.72	3253
908.836	3317
908.952	3325
909.068	3344
909.184	3469
909.3	3443
909.415	3553
909.531	3511
909.647	3302
909.762	3332
909.878	3283
909.993	3443
910.108	3359
910.224	3405
910.339	3500
910.454	3386
910.57	3325
910.685	3275
910.8	3580
910.915	3542
911.03	3462
911.145	3332
911.259	3306
911.374	3401
911.489	3298
911.604	3260
911.718	3146
911.833	3226
911.947	3043
912.062	3013
912.176	3192
912.291	3222
912.405	3245
912.519	3458
912.633	3481
912.748	3374
912.862	3294
912.976	3226
913.09	3074
913.204	3199
913.318	3226
913.431	3351
913.545	3359
913.659	3435
913.772	3378
913.886	3291
914	3211
914.113	3386
914.226	3473
914.34	3393
914.453	3253
914.566	3447
914.68	3310
914.793	3355
914.906	3112
915.019	3123
915.132	3112
915.245	3169
915.358	3233
915.47	3268
915.583	3287
915.696	3313
915.809	3447
915.921	3466
916.034	3272
916.146	3287
916.259	3275
916.371	3401
916.483	3370
916.595	3260
916.708	3363
916.82	3344
916.932	3378
917.044	3359
917.156	3382
917.268	3291
917.38	3359
917.491	3313
917.603	3443
917.715	3519
917.826	3492
917.938	3386
918.049	3298
918.161	3443
918.272	3614
918.384	3618
918.495	3519
918.606	3378
918.717	3268
918.828	3359
918.939	3454
919.05	3367
919.161	3428
919.272	3241
919.383	3340
919.494	3515
919.604	3762
919.715	3511
919.826	3443
919.936	3507
920.047	3591
920.157	3572
920.267	3774
920.378	3652
920.488	3614
920.598	3827
920.708	3975
920.818	3873
920.928	3896
921.038	4055
921.148	4032
921.258	3686
921.368	3698
921.477	3625
921.587	3526
921.697	3500
921.806	3625
921.916	3526
922.025	3393
922.134	3382
922.244	3378
922.353	3454
922.462	3287
922.571	3233
922.68	3119
922.789	3116
922.898	3150
923.007	3123
923.116	3275
923.224	3176
923.333	3207
923.442	3093
923.55	3161
923.659	3157
923.767	3245
923.876	3142
923.984	3275
924.092	3127
924.201	3245
924.309	3241
924.417	3287
924.525	3203
924.633	3264
924.741	4230
924.849	3047
924.956	3294
925.064	3116
925.172	3047
925.279	3127
925.387	3214
925.494	3226
925.602	3397
925.709	3329
925.816	3230
925.924	3306
926.031	3397
926.138	3355
926.245	3416
926.352	3283
926.459	3401
926.566	3481
926.673	3336
926.779	3249
926.886	3226
926.993	3176
927.099	3154
927.206	3150
927.312	3169
927.419	3260
927.525	3214
927.631	3287
927.737	3142
927.843	3161
927.95	3032
928.056	3192
928.162	3203
928.267	3241
928.373	3876
928.479	3359
928.585	3077
928.69	3264
928.796	3283
928.901	3180
929.007	3043
929.112	3195
929.218	3233
929.323	3146
929.428	3195
929.533	3355
929.638	3154
929.743	3180
929.848	3291
929.953	3161
930.058	3180
930.163	3036
930.267	3058
930.372	3241
930.477	3043
930.581	3344
930.685	3199
930.79	3066
930.894	3169
930.998	3097
931.103	3264
931.207	2952
931.311	2990
931.415	2960
931.519	2807
931.623	2830
