Data from test_V78500241_1268.txt Node
Date: Fri Mar 25 16:23:59 CST 2022
User: usil
Spectrometer: V785-0024
Trigger mode: 0
Integration Time (sec): 4.000000E-1
Scans to average: 1
Nonlinearity correction enabled: false
Boxcar width: 0
Storing dark spectrum: false
XAxis mode: Wavelengths
Number of Pixels in Spectrum: 1024
>>>>>Begin Spectral Data<<<<<
801.071	2929
801.214	2960
801.356	2876
801.499	2868
801.641	2868
801.783	2944
801.926	3055
802.068	2975
802.211	3024
802.353	3036
802.496	2982
802.638	3036
802.78	3020
802.923	3074
803.065	3051
803.208	2899
803.35	2933
803.492	2918
803.635	2933
803.777	2788
803.919	2834
804.061	3173
804.204	2902
804.346	2918
804.488	2849
804.63	2982
804.773	2880
804.915	2887
805.057	3077
805.199	2910
805.341	2994
805.483	3020
805.626	3028
805.768	2971
805.91	3062
806.052	3093
806.194	2982
806.336	3241
806.478	2994
806.62	2941
806.762	2967
806.904	3039
807.046	3184
807.188	2982
807.33	2925
807.472	3005
807.614	2880
807.756	2944
807.898	2914
808.04	2883
808.182	2967
808.324	2967
808.465	2853
808.607	2899
808.749	2811
808.891	2800
809.033	2975
809.174	2941
809.316	2910
809.458	2914
809.6	2750
809.741	2731
809.883	2769
810.025	2849
810.166	2853
810.308	2861
810.45	2845
810.591	2788
810.733	2735
810.875	2796
811.016	2781
811.158	2739
811.299	2773
811.441	2937
811.582	2883
811.724	2819
811.865	2785
812.007	2864
812.148	2876
812.29	2834
812.431	2902
812.573	2914
812.714	2971
812.855	3055
812.997	2998
813.138	3066
813.279	3013
813.421	2975
813.562	2971
813.703	2880
813.845	2861
813.986	2769
814.127	2716
814.268	2796
814.41	2838
814.551	2792
814.692	2842
814.833	2838
814.974	2895
815.115	2922
815.256	2826
815.397	2796
815.539	2826
815.68	2754
815.821	2792
815.962	2910
816.103	2899
816.244	2853
816.385	2880
816.526	2979
816.666	2922
816.807	2735
816.948	2864
817.089	2887
817.23	2842
817.371	2762
817.512	2762
817.653	2868
817.793	2826
817.934	2819
818.075	2948
818.216	2979
818.356	3055
818.497	2914
818.638	2811
818.778	2796
818.919	2785
819.06	2746
819.2	2857
819.341	2819
819.481	2819
819.622	2902
819.762	3085
819.903	3028
820.043	2937
820.184	2883
820.324	2876
820.465	3024
820.605	3017
820.746	3032
820.886	2895
821.026	3077
821.167	3150
821.307	3268
821.447	3264
821.588	3214
821.728	3188
821.868	3222
822.008	3093
822.149	3184
822.289	3214
822.429	3100
822.569	3085
822.709	3176
822.849	3017
822.99	3062
823.13	3150
823.27	3173
823.41	3085
823.55	3150
823.69	3165
823.83	3188
823.97	3066
824.11	2994
824.25	2948
824.389	3024
824.529	3097
824.669	3062
824.809	3176
824.949	3245
825.089	3184
825.228	3142
825.368	3001
825.508	2963
825.648	2982
825.787	2982
825.927	3017
826.067	2948
826.206	2948
826.346	3070
826.485	3077
826.625	3093
826.765	3260
826.904	3165
827.044	2982
827.183	2925
827.323	2857
827.462	2952
827.601	2906
827.741	2952
827.88	2937
828.02	2830
828.159	2990
828.298	2982
828.437	3104
828.577	3013
828.716	3256
828.855	3051
828.994	2891
829.134	2891
829.273	2918
829.412	2861
829.551	2864
829.69	2883
829.829	3005
829.968	3119
830.107	2982
830.246	3028
830.385	2891
830.524	2891
830.663	2796
830.802	2739
830.941	2682
831.08	2667
831.219	2746
831.357	2754
831.496	2883
831.635	2686
831.774	2682
831.913	2655
832.051	2537
832.19	2587
832.329	2674
832.467	2514
832.606	2450
832.744	2571
832.883	2575
833.022	2594
833.16	2640
833.299	2701
833.437	2727
833.576	2693
833.714	2739
833.852	2724
833.991	2739
834.129	2811
834.267	2830
834.406	2773
834.544	2819
834.682	2883
834.821	2872
834.959	3028
835.097	2891
835.235	3047
835.373	2990
835.511	3013
835.65	2963
835.788	2944
835.926	2861
836.064	2792
836.202	2849
836.34	3089
836.478	3154
836.615	3032
836.753	3127
836.891	3218
837.029	3165
837.167	3123
837.305	3043
837.443	3043
837.58	2937
837.718	3123
837.856	3047
837.993	3013
838.131	3146
838.269	3112
838.406	3085
838.544	3089
838.681	2933
838.819	2891
838.956	2815
839.094	2845
839.231	2906
839.369	3028
839.506	3359
839.643	3195
839.781	3001
839.918	2944
840.055	3074
840.193	3055
840.33	3058
840.467	3119
840.604	3157
840.742	3409
840.879	3039
841.016	3066
841.153	3100
841.29	3344
841.427	3306
841.564	3291
841.701	3329
841.838	3176
841.975	3165
842.112	3203
842.249	3036
842.385	3017
842.522	3245
842.659	3104
842.796	3036
842.933	3089
843.069	3024
843.206	3047
843.343	3176
843.479	3070
843.616	3138
843.752	2895
843.889	2861
844.025	3055
844.162	2876
844.298	3062
844.435	2929
844.571	2922
844.708	3066
844.844	3154
844.98	3184
845.117	3173
845.253	3032
845.389	2998
845.525	3100
845.661	3077
845.798	3005
845.934	3135
846.07	3058
846.206	3195
846.342	3268
846.478	3207
846.614	3074
846.75	3039
846.886	3020
847.022	3214
847.158	3112
847.294	3207
847.429	3256
847.565	3203
847.701	3435
847.837	2998
847.972	2990
848.108	3131
848.244	3127
848.379	2975
848.515	2937
848.65	2910
848.786	2918
848.921	3024
849.057	3104
849.192	3157
849.328	3001
849.463	3100
849.598	3013
849.734	3005
849.869	2925
850.004	2922
850.14	2933
850.275	2941
850.41	2792
850.545	2864
850.68	2948
850.815	2941
850.95	2960
851.085	3154
851.22	3112
851.355	3036
851.49	2986
851.625	3032
851.76	2975
851.895	2925
852.03	2899
852.165	3028
852.299	3108
852.434	3188
852.569	3127
852.703	3135
852.838	3241
852.973	3313
853.107	3325
853.242	3135
853.376	3074
853.511	2941
853.645	3070
853.78	3184
853.914	3108
854.048	3097
854.183	3097
854.317	3116
854.451	3283
854.585	3108
854.72	3062
854.854	3214
854.988	3047
855.122	3074
855.256	2956
855.39	3116
855.524	3237
855.658	3131
855.792	3161
855.926	3207
856.06	3241
856.194	3233
856.327	3154
856.461	3062
856.595	3093
856.729	3039
856.862	3203
856.996	3157
857.13	3188
857.263	3214
857.397	3291
857.53	3135
857.664	3157
857.797	3207
857.931	3256
858.064	3119
858.197	3203
858.331	3119
858.464	3123
858.597	2990
858.731	3150
858.864	3138
858.997	3055
859.13	3127
859.263	3138
859.396	3184
859.529	3108
859.662	3051
859.795	3066
859.928	3142
860.061	3260
860.194	3275
860.327	3150
860.46	3100
860.592	3222
860.725	3237
860.858	3233
860.99	3097
861.123	3036
861.256	3028
861.388	3123
861.521	3656
861.653	3005
861.786	2952
861.918	3036
862.05	3043
862.183	3032
862.315	3119
862.447	3207
862.58	3089
862.712	2948
862.844	2887
862.976	2967
863.108	2990
863.24	3291
863.372	2868
863.504	2963
863.636	2922
863.768	2982
863.9	2956
864.032	2906
864.164	2948
864.296	2998
864.428	3028
864.559	3089
864.691	3055
864.823	3066
864.954	3024
865.086	3013
865.217	2944
865.349	2948
865.48	2944
865.612	3013
865.743	3116
865.875	3009
866.006	2914
866.137	2971
866.269	2914
866.4	2918
866.531	2925
866.662	2918
866.793	2887
866.924	2845
867.055	2971
867.186	2933
867.317	2895
867.448	2823
867.579	2876
867.71	2845
867.841	2788
867.972	2880
868.103	2880
868.233	2891
868.364	2861
868.495	2918
868.625	3093
868.756	3150
868.886	2971
869.017	2998
869.147	3176
869.278	3192
869.408	3047
869.539	3024
869.669	3066
869.799	3043
869.929	3142
870.06	3055
870.19	3302
870.32	3313
870.45	3298
870.58	3348
870.71	3431
870.84	3401
870.97	3233
871.1	3253
871.23	3507
871.36	3374
871.489	3321
871.619	3355
871.749	3393
871.879	3466
872.008	3466
872.138	3336
872.267	3291
872.397	3119
872.526	3119
872.656	2979
872.785	3116
872.915	3214
873.044	3310
873.173	3245
873.303	3256
873.432	3245
873.561	3233
873.69	3119
873.819	3123
873.948	3169
874.077	3058
874.206	2979
874.335	3089
874.464	3195
874.593	3313
874.722	3241
874.851	3367
874.979	3332
875.108	3317
875.237	3199
875.365	3119
875.494	3173
875.623	3264
875.751	3058
875.88	3081
876.008	3161
876.136	3180
876.265	3340
876.393	3458
876.521	3374
876.65	3348
876.778	3340
876.906	3237
877.034	3176
877.162	3199
877.29	3173
877.418	3268
877.546	3237
877.674	3256
877.802	3188
877.93	3214
878.058	3154
878.185	3093
878.313	3165
878.441	3169
878.568	3039
878.696	3150
878.824	3260
878.951	3291
879.079	3424
879.206	3576
879.333	3428
879.461	3348
879.588	3321
879.715	3439
879.842	3545
879.97	3355
880.097	3131
880.224	3119
880.351	3180
880.478	3199
880.605	3192
880.732	3169
880.859	3492
880.986	3294
881.112	3294
881.239	3199
881.366	3077
881.493	3001
881.619	2994
881.746	3085
881.872	3039
881.999	3089
882.125	3146
882.252	3226
882.378	3256
882.505	3435
882.631	3264
882.757	3119
882.883	3203
883.01	3211
883.136	3135
883.262	3081
883.388	3074
883.514	3317
883.64	3336
883.766	3291
883.892	3154
884.018	3237
884.143	3397
884.269	3549
884.395	3188
884.52	3142
884.646	3176
884.772	3100
884.897	3116
885.023	3222
885.148	3325
885.274	3370
885.399	3351
885.524	3272
885.65	3256
885.775	3272
885.9	3291
886.025	3428
886.15	3355
886.275	3272
886.4	3253
886.525	3291
886.65	3272
886.775	3249
886.9	3488
887.025	3614
887.149	3370
887.274	3203
887.399	3169
887.523	3192
887.648	3188
887.773	3184
887.897	3393
888.021	3416
888.146	3306
888.27	3416
888.395	3511
888.519	3416
888.643	3397
888.767	3424
888.891	3294
889.015	3241
889.139	3268
889.263	3207
889.387	3370
889.511	3447
889.635	3378
889.759	3279
889.883	3275
890.006	3340
890.13	3454
890.254	3245
890.377	3325
890.501	3169
890.624	3161
890.748	3298
890.871	3165
890.995	3070
891.118	3062
891.241	3195
891.364	3188
891.488	3306
891.611	3146
891.734	3214
891.857	3325
891.98	3203
892.103	3325
892.226	3245
892.349	3180
892.471	3119
892.594	3256
892.717	3260
892.839	3226
892.962	3294
893.085	3340
893.207	3310
893.33	3123
893.452	3218
893.575	3321
893.697	3222
893.819	3447
893.941	3504
894.064	3447
894.186	3272
894.308	3218
894.43	3454
894.552	3542
894.674	3431
894.796	3294
894.918	3355
895.04	3325
895.161	3458
895.283	3386
895.405	3310
895.526	3370
895.648	3481
895.769	3424
895.891	3458
896.012	3485
896.134	3485
896.255	3435
896.376	3420
896.498	3397
896.619	3466
896.74	3367
896.861	3443
896.982	3720
897.103	3880
897.224	3633
897.345	3568
897.466	3473
897.587	3507
897.708	3652
897.828	3591
897.949	3466
898.07	3363
898.19	3450
898.311	3618
898.431	3466
898.552	3523
898.672	3595
898.792	3568
898.913	3530
899.033	3435
899.153	3344
899.273	3226
899.393	3310
899.513	3351
899.633	3351
899.753	3329
899.873	3363
899.993	3431
900.113	3401
900.232	3420
900.352	3386
900.472	3302
900.591	3253
900.711	3321
900.83	3272
900.95	3420
901.069	3523
901.189	3405
901.308	3214
901.427	3165
901.546	3249
901.665	3321
901.784	3367
901.904	3241
902.023	3199
902.141	3036
902.26	3039
902.379	3180
902.498	3131
902.617	3066
902.735	3241
902.854	3264
902.973	3249
903.091	3066
903.21	3093
903.328	3203
903.446	3157
903.565	3150
903.683	3218
903.801	3180
903.919	3260
904.038	3340
904.156	3222
904.274	3260
904.392	3336
904.51	3298
904.627	3351
904.745	3435
904.863	3519
904.981	3264
905.098	3218
905.216	3249
905.334	3336
905.451	3370
905.569	3340
905.686	3450
905.803	3492
905.921	3332
906.038	3405
906.155	3363
906.272	3310
906.389	3351
906.506	3245
906.623	3260
906.74	3344
906.857	3218
906.974	3321
907.091	3504
907.208	3591
907.324	3515
907.441	3416
907.557	3226
907.674	3283
907.79	3195
907.907	3302
908.023	3397
908.139	3450
908.256	3329
908.372	3397
908.488	3382
908.604	3283
908.72	3279
908.836	3325
908.952	3291
909.068	3359
909.184	3488
909.3	3454
909.415	3538
909.531	3469
909.647	3306
909.762	3317
909.878	3298
909.993	3389
910.108	3374
910.224	3363
910.339	3416
910.454	3359
910.57	3340
910.685	3275
910.8	3622
910.915	3553
911.03	3435
911.145	3298
911.259	3321
911.374	3329
911.489	3260
911.604	3253
911.718	3116
911.833	3199
911.947	3043
912.062	3009
912.176	3214
912.291	3233
912.405	3260
912.519	3447
912.633	3466
912.748	3340
912.862	3298
912.976	3184
913.09	3077
913.204	3154
913.318	3272
913.431	3344
913.545	3355
913.659	3412
913.772	3332
913.886	3249
914	3260
914.113	3405
914.226	3409
914.34	3370
914.453	3260
914.566	3416
914.68	3325
914.793	3363
914.906	3176
915.019	3116
915.132	3066
915.245	3169
915.358	3287
915.47	3275
915.583	3313
915.696	3332
915.809	3412
915.921	3469
916.034	3249
916.146	3321
916.259	3230
916.371	3401
916.483	3370
916.595	3298
916.708	3386
916.82	3359
916.932	3412
917.044	3374
917.156	3370
917.268	3287
917.38	3359
917.491	3336
917.603	3363
917.715	3473
917.826	3492
917.938	3409
918.049	3302
918.161	3412
918.272	3618
918.384	3564
918.495	3526
918.606	3389
918.717	3306
918.828	3420
918.939	3431
919.05	3325
919.161	3389
919.272	3241
919.383	3317
919.494	3549
919.604	3736
919.715	3564
919.826	3469
919.936	3488
920.047	3633
920.157	3568
920.267	3762
920.378	3644
920.488	3603
920.598	3816
920.708	3991
920.818	3842
920.928	3869
921.038	4048
921.148	4021
921.258	3736
921.368	3648
921.477	3599
921.587	3568
921.697	3473
921.806	3656
921.916	3534
922.025	3363
922.134	3389
922.244	3348
922.353	3466
922.462	3306
922.571	3222
922.68	3142
922.789	3131
922.898	3138
923.007	3150
923.116	3218
923.224	3176
923.333	3203
923.442	3138
923.55	3100
923.659	3150
923.767	3253
923.876	3161
923.984	3249
924.092	3131
924.201	3218
924.309	3222
924.417	3279
924.525	3214
924.633	3310
924.741	3983
924.849	3058
924.956	3310
925.064	3119
925.172	3104
925.279	3135
925.387	3214
925.494	3249
925.602	3420
925.709	3355
925.816	3203
925.924	3291
926.031	3405
926.138	3329
926.245	3389
926.352	3291
926.459	3389
926.566	3519
926.673	3367
926.779	3272
926.886	3275
926.993	3157
927.099	3154
927.206	3135
927.312	3142
927.419	3226
927.525	3233
927.631	3332
927.737	3173
927.843	3146
927.95	3009
928.056	3150
928.162	3230
928.267	3294
928.373	3876
928.479	3359
928.585	3119
928.69	3218
928.796	3306
928.901	3165
929.007	3051
929.112	3230
929.218	3192
929.323	3142
929.428	3199
929.533	3291
929.638	3138
929.743	3211
929.848	3313
929.953	3245
930.058	3150
930.163	3047
930.267	3051
930.372	3253
930.477	3024
930.581	3321
930.685	3226
930.79	3093
930.894	3142
930.998	3138
931.103	3317
931.207	2948
931.311	2963
931.415	2952
931.519	2804
931.623	2849
