Data from test_V78500241_1507.txt Node
Date: Fri Mar 25 16:25:38 CST 2022
User: usil
Spectrometer: V785-0024
Trigger mode: 0
Integration Time (sec): 4.000000E-1
Scans to average: 1
Nonlinearity correction enabled: false
Boxcar width: 0
Storing dark spectrum: false
XAxis mode: Wavelengths
Number of Pixels in Spectrum: 1024
>>>>>Begin Spectral Data<<<<<
801.071	2929
801.214	2944
801.356	2880
801.499	2933
801.641	2883
801.783	2933
801.926	3013
802.068	2963
802.211	2952
802.353	3009
802.496	2967
802.638	2994
802.78	3043
802.923	3013
803.065	2986
803.208	2902
803.35	2956
803.492	2925
803.635	2929
803.777	2750
803.919	2876
804.061	3237
804.204	2941
804.346	2914
804.488	2857
804.63	2971
804.773	2872
804.915	2922
805.057	3070
805.199	2937
805.341	2952
805.483	3055
805.626	3043
805.768	2948
805.91	3074
806.052	3074
806.194	3058
806.336	3226
806.478	3032
806.62	2963
806.762	2967
806.904	3070
807.046	3176
807.188	3009
807.33	2902
807.472	2998
807.614	2895
807.756	2963
807.898	2918
808.04	2906
808.182	2960
808.324	2944
808.465	2906
808.607	2861
808.749	2788
808.891	2830
809.033	3013
809.174	2967
809.316	2868
809.458	2906
809.6	2754
809.741	2777
809.883	2792
810.025	2842
810.166	2826
810.308	2830
810.45	2838
810.591	2788
810.733	2788
810.875	2834
811.016	2758
811.158	2746
811.299	2842
811.441	2925
811.582	2906
811.724	2811
811.865	2834
812.007	2922
812.148	2880
812.29	2842
812.431	2899
812.573	2914
812.714	2971
812.855	3028
812.997	3047
813.138	3123
813.279	3017
813.421	2982
813.562	2937
813.703	2864
813.845	2918
813.986	2781
814.127	2731
814.268	2811
814.41	2830
814.551	2845
814.692	2899
814.833	2777
814.974	2899
815.115	2929
815.256	2834
815.397	2811
815.539	2838
815.68	2785
815.821	2792
815.962	2918
816.103	2899
816.244	2868
816.385	2842
816.526	2967
816.666	2902
816.807	2693
816.948	2925
817.089	2906
817.23	2857
817.371	2762
817.512	2788
817.653	2815
817.793	2823
817.934	2891
818.075	2956
818.216	2979
818.356	3024
818.497	2868
818.638	2796
818.778	2838
818.919	2781
819.06	2769
819.2	2914
819.341	2838
819.481	2800
819.622	2914
819.762	3108
819.903	3028
820.043	2948
820.184	2891
820.324	2906
820.465	3005
820.605	3036
820.746	3028
820.886	2948
821.026	3127
821.167	3146
821.307	3264
821.447	3222
821.588	3264
821.728	3218
821.868	3245
822.008	3074
822.149	3211
822.289	3230
822.429	3093
822.569	3127
822.709	3188
822.849	3051
822.99	3112
823.13	3199
823.27	3233
823.41	3074
823.55	3188
823.69	3195
823.83	3218
823.97	3146
824.11	3032
824.25	3032
824.389	3089
824.529	3123
824.669	3093
824.809	3226
824.949	3279
825.089	3245
825.228	3203
825.368	3032
825.508	2971
825.648	2994
825.787	3039
825.927	3055
826.067	3005
826.206	3013
826.346	3085
826.485	3131
826.625	3154
826.765	3306
826.904	3268
827.044	3036
827.183	2986
827.323	2895
827.462	3032
827.601	2944
827.741	3009
827.88	3005
828.02	2899
828.159	3024
828.298	3077
828.437	3135
828.577	3104
828.716	3302
828.855	3127
828.994	2952
829.134	2948
829.273	2933
829.412	2880
829.551	2910
829.69	2941
829.829	3070
829.968	3173
830.107	3024
830.246	3051
830.385	2922
830.524	2929
830.663	2899
830.802	2788
830.941	2693
831.08	2670
831.219	2823
831.357	2777
831.496	3020
831.635	2785
831.774	2678
831.913	2705
832.051	2575
832.19	2621
832.329	2689
832.467	2587
832.606	2518
832.744	2632
832.883	2617
833.022	2606
833.16	2724
833.299	2754
833.437	2762
833.576	2727
833.714	2777
833.852	2769
833.991	2781
834.129	2853
834.267	2868
834.406	2845
834.544	2872
834.682	2941
834.821	2891
834.959	3123
835.097	2933
835.235	3081
835.373	3032
835.511	3058
835.65	2998
835.788	2986
835.926	2853
836.064	2834
836.202	2861
836.34	3157
836.478	3173
836.615	3104
836.753	3138
836.891	3214
837.029	3207
837.167	3127
837.305	3077
837.443	3081
837.58	3005
837.718	3157
837.856	3135
837.993	3077
838.131	3157
838.269	3161
838.406	3104
838.544	3135
838.681	3001
838.819	2960
838.956	2861
839.094	2883
839.231	2967
839.369	3081
839.506	3370
839.643	3245
839.781	3055
839.918	2994
840.055	3081
840.193	3074
840.33	3089
840.467	3173
840.604	3184
840.742	3405
840.879	3108
841.016	3085
841.153	3157
841.29	3332
841.427	3329
841.564	3321
841.701	3336
841.838	3233
841.975	3192
842.112	3233
842.249	3112
842.385	3051
842.522	3294
842.659	3119
842.796	3097
842.933	3154
843.069	3039
843.206	3108
843.343	3184
843.479	3142
843.616	3188
843.752	2910
843.889	2910
844.025	3066
844.162	2902
844.298	3119
844.435	2975
844.571	2948
844.708	3138
844.844	3199
844.98	3256
845.117	3199
845.253	3119
845.389	3013
845.525	3108
845.661	3116
845.798	3020
845.934	3157
846.07	3070
846.206	3291
846.342	3351
846.478	3249
846.614	3097
846.75	3070
846.886	3024
847.022	3264
847.158	3173
847.294	3241
847.429	3283
847.565	3249
847.701	3545
847.837	3097
847.972	3051
848.108	3157
848.244	3150
848.379	3017
848.515	2971
848.65	2944
848.786	2952
848.921	3024
849.057	3135
849.192	3169
849.328	3081
849.463	3104
849.598	3093
849.734	3089
849.869	2998
850.004	2933
850.14	2971
850.275	2960
850.41	2864
850.545	2910
850.68	2971
850.815	2982
850.95	3001
851.085	3203
851.22	3131
851.355	3077
851.49	2994
851.625	3020
851.76	3047
851.895	2960
852.03	2895
852.165	3070
852.299	3165
852.434	3195
852.569	3184
852.703	3192
852.838	3260
852.973	3367
853.107	3321
853.242	3165
853.376	3089
853.511	2998
853.645	3074
853.78	3294
853.914	3154
854.048	3150
854.183	3081
854.317	3180
854.451	3351
854.585	3123
854.72	3138
854.854	3226
854.988	3051
855.122	3112
855.256	2998
855.39	3154
855.524	3226
855.658	3211
855.792	3154
855.926	3180
856.06	3230
856.194	3287
856.327	3161
856.461	3123
856.595	3093
856.729	3089
856.862	3283
856.996	3203
857.13	3222
857.263	3245
857.397	3321
857.53	3157
857.664	3199
857.797	3230
857.931	3287
858.064	3176
858.197	3272
858.331	3161
858.464	3123
858.597	3001
858.731	3112
858.864	3169
858.997	3116
859.13	3195
859.263	3214
859.396	3195
859.529	3127
859.662	3119
859.795	3089
859.928	3154
860.061	3279
860.194	3325
860.327	3123
860.46	3131
860.592	3256
860.725	3268
860.858	3283
860.99	3123
861.123	3081
861.256	3100
861.388	3157
861.521	3835
861.653	3017
861.786	3017
861.918	3089
862.05	3112
862.183	3131
862.315	3161
862.447	3214
862.58	3104
862.712	2960
862.844	2918
862.976	3036
863.108	3043
863.24	3386
863.372	2944
863.504	2975
863.636	2990
863.768	3028
863.9	3005
864.032	2918
864.164	2982
864.296	3032
864.428	3085
864.559	3142
864.691	3077
864.823	3108
864.954	3055
865.086	3070
865.217	3047
865.349	2971
865.48	3020
865.612	3039
865.743	3131
865.875	2998
866.006	2937
866.137	3028
866.269	2937
866.4	2952
866.531	2937
866.662	2899
866.793	2914
866.924	2918
867.055	2998
867.186	2948
867.317	2864
867.448	2853
867.579	2864
867.71	2880
867.841	2811
867.972	2933
868.103	2941
868.233	2887
868.364	2891
868.495	2914
868.625	3085
868.756	3123
868.886	2967
869.017	3043
869.147	3207
869.278	3176
869.408	3024
869.539	3043
869.669	3127
869.799	3032
869.929	3142
870.06	3138
870.19	3291
870.32	3298
870.45	3272
870.58	3409
870.71	3473
870.84	3462
870.97	3287
871.1	3245
871.23	3534
871.36	3488
871.489	3348
871.619	3424
871.749	3386
871.879	3466
872.008	3496
872.138	3424
872.267	3298
872.397	3157
872.526	3116
872.656	3058
872.785	3127
872.915	3241
873.044	3317
873.173	3237
873.303	3268
873.432	3237
873.561	3260
873.69	3218
873.819	3146
873.948	3211
874.077	3119
874.206	3058
874.335	3085
874.464	3218
874.593	3370
874.722	3264
874.851	3405
874.979	3340
875.108	3340
875.237	3161
875.365	3192
875.494	3146
875.623	3264
875.751	3116
875.88	3123
876.008	3192
876.136	3245
876.265	3370
876.393	3530
876.521	3454
876.65	3389
876.778	3386
876.906	3302
877.034	3222
877.162	3218
877.29	3195
877.418	3256
877.546	3256
877.674	3256
877.802	3241
877.93	3222
878.058	3169
878.185	3146
878.313	3226
878.441	3241
878.568	3112
878.696	3154
878.824	3245
878.951	3291
879.079	3447
879.206	3663
879.333	3450
879.461	3344
879.588	3370
879.715	3500
879.842	3622
879.97	3367
880.097	3150
880.224	3123
880.351	3214
880.478	3203
880.605	3195
880.732	3214
880.859	3481
880.986	3348
881.112	3332
881.239	3211
881.366	3127
881.493	3066
881.619	3036
881.746	3077
881.872	3093
881.999	3142
882.125	3138
882.252	3268
882.378	3302
882.505	3439
882.631	3302
882.757	3211
882.883	3260
883.01	3214
883.136	3195
883.262	3085
883.388	3165
883.514	3351
883.64	3386
883.766	3302
883.892	3207
884.018	3260
884.143	3458
884.269	3549
884.395	3211
884.52	3161
884.646	3184
884.772	3135
884.897	3100
885.023	3207
885.148	3367
885.274	3447
885.399	3355
885.524	3287
885.65	3291
885.775	3389
885.9	3283
886.025	3462
886.15	3351
886.275	3279
886.4	3264
886.525	3340
886.65	3260
886.775	3268
886.9	3530
887.025	3663
887.149	3428
887.274	3321
887.399	3203
887.523	3268
887.648	3180
887.773	3203
887.897	3336
888.021	3412
888.146	3321
888.27	3435
888.395	3515
888.519	3420
888.643	3431
888.767	3473
888.891	3313
889.015	3241
889.139	3329
889.263	3291
889.387	3412
889.511	3526
889.635	3454
889.759	3317
889.883	3272
890.006	3355
890.13	3492
890.254	3306
890.377	3382
890.501	3218
890.624	3195
890.748	3287
890.871	3192
890.995	3123
891.118	3055
891.241	3203
891.364	3192
891.488	3306
891.611	3169
891.734	3207
891.857	3279
891.98	3241
892.103	3344
892.226	3298
892.349	3211
892.471	3127
892.594	3283
892.717	3275
892.839	3279
892.962	3294
893.085	3374
893.207	3340
893.33	3135
893.452	3214
893.575	3340
893.697	3222
893.819	3469
893.941	3485
894.064	3473
894.186	3291
894.308	3313
894.43	3435
894.552	3534
894.674	3469
894.796	3294
894.918	3348
895.04	3302
895.161	3469
895.283	3382
895.405	3332
895.526	3367
895.648	3435
895.769	3473
895.891	3450
896.012	3492
896.134	3504
896.255	3393
896.376	3367
896.498	3382
896.619	3378
896.74	3386
896.861	3367
896.982	3682
897.103	3816
897.224	3595
897.345	3496
897.466	3428
897.587	3481
897.708	3641
897.828	3545
897.949	3439
898.07	3348
898.19	3428
898.311	3561
898.431	3443
898.552	3515
898.672	3641
898.792	3606
898.913	3534
899.033	3443
899.153	3298
899.273	3237
899.393	3332
899.513	3348
899.633	3272
899.753	3329
899.873	3310
899.993	3409
900.113	3317
900.232	3397
900.352	3336
900.472	3336
900.591	3192
900.711	3291
900.83	3260
900.95	3412
901.069	3488
901.189	3351
901.308	3169
901.427	3112
901.546	3218
901.665	3291
901.784	3310
901.904	3222
902.023	3146
902.141	3036
902.26	2994
902.379	3169
902.498	3058
902.617	3070
902.735	3173
902.854	3237
902.973	3256
903.091	3024
903.21	3062
903.328	3142
903.446	3142
903.565	3119
903.683	3169
903.801	3127
903.919	3260
904.038	3260
904.156	3169
904.274	3298
904.392	3279
904.51	3264
904.627	3302
904.745	3454
904.863	3473
904.981	3268
905.098	3207
905.216	3260
905.334	3268
905.451	3283
905.569	3321
905.686	3435
905.803	3428
905.921	3294
906.038	3447
906.155	3336
906.272	3241
906.389	3344
906.506	3211
906.623	3291
906.74	3306
906.857	3180
906.974	3218
907.091	3401
907.208	3572
907.324	3485
907.441	3374
907.557	3241
907.674	3226
907.79	3211
907.907	3275
908.023	3363
908.139	3355
908.256	3313
908.372	3382
908.488	3351
908.604	3245
908.72	3214
908.836	3260
908.952	3317
909.068	3313
909.184	3458
909.3	3389
909.415	3519
909.531	3454
909.647	3310
909.762	3294
909.878	3283
909.993	3340
910.108	3367
910.224	3336
910.339	3382
910.454	3363
910.57	3294
910.685	3249
910.8	3580
910.915	3504
911.03	3412
911.145	3264
911.259	3272
911.374	3321
911.489	3237
911.604	3233
911.718	3123
911.833	3146
911.947	3058
912.062	3024
912.176	3157
912.291	3192
912.405	3192
912.519	3405
912.633	3454
912.748	3310
912.862	3291
912.976	3157
913.09	3074
913.204	3135
913.318	3237
913.431	3325
913.545	3310
913.659	3439
913.772	3325
913.886	3218
914	3199
914.113	3363
914.226	3435
914.34	3389
914.453	3218
914.566	3466
914.68	3268
914.793	3291
914.906	3142
915.019	3100
915.132	3085
915.245	3135
915.358	3203
915.47	3222
915.583	3298
915.696	3306
915.809	3450
915.921	3386
916.034	3226
916.146	3241
916.259	3260
916.371	3393
916.483	3351
916.595	3264
916.708	3317
916.82	3325
916.932	3332
917.044	3348
917.156	3332
917.268	3291
917.38	3332
917.491	3321
917.603	3355
917.715	3439
917.826	3466
917.938	3367
918.049	3298
918.161	3386
918.272	3553
918.384	3568
918.495	3485
918.606	3340
918.717	3279
918.828	3386
918.939	3424
919.05	3264
919.161	3382
919.272	3199
919.383	3253
919.494	3511
919.604	3679
919.715	3519
919.826	3439
919.936	3462
920.047	3561
920.157	3580
920.267	3736
920.378	3580
920.488	3553
920.598	3762
920.708	3945
920.818	3808
920.928	3857
921.038	4013
921.148	4006
921.258	3698
921.368	3618
921.477	3599
921.587	3492
921.697	3466
921.806	3606
921.916	3492
922.025	3397
922.134	3370
922.244	3329
922.353	3405
922.462	3291
922.571	3226
922.68	3097
922.789	3066
922.898	3138
923.007	3104
923.116	3222
923.224	3173
923.333	3184
923.442	3108
923.55	3055
923.659	3157
923.767	3237
923.876	3180
923.984	3245
924.092	3116
924.201	3161
924.309	3214
924.417	3237
924.525	3203
924.633	3256
924.741	4154
924.849	3081
924.956	3226
925.064	3055
925.172	3051
925.279	3089
925.387	3195
925.494	3195
925.602	3351
925.709	3325
925.816	3192
925.924	3287
926.031	3393
926.138	3321
926.245	3378
926.352	3245
926.459	3378
926.566	3458
926.673	3310
926.779	3268
926.886	3268
926.993	3154
927.099	3100
927.206	3112
927.312	3108
927.419	3268
927.525	3218
927.631	3291
927.737	3180
927.843	3154
927.95	3028
928.056	3131
928.162	3157
928.267	3237
928.373	3755
928.479	3310
928.585	3055
928.69	3203
928.796	3237
928.901	3188
929.007	3032
929.112	3207
929.218	3161
929.323	3161
929.428	3138
929.533	3298
929.638	3097
929.743	3154
929.848	3249
929.953	3249
930.058	3131
930.163	2986
930.267	3028
930.372	3184
930.477	2998
930.581	3321
930.685	3169
930.79	3039
930.894	3116
930.998	3058
931.103	3302
931.207	2975
931.311	2918
931.415	2929
931.519	2773
931.623	2826
