Data from test_V78500241_951.txt Node
Date: Fri Mar 25 16:21:47 CST 2022
User: usil
Spectrometer: V785-0024
Trigger mode: 0
Integration Time (sec): 4.000000E-1
Scans to average: 1
Nonlinearity correction enabled: false
Boxcar width: 0
Storing dark spectrum: false
XAxis mode: Wavelengths
Number of Pixels in Spectrum: 1024
>>>>>Begin Spectral Data<<<<<
801.071	2883
801.214	2948
801.356	2849
801.499	2902
801.641	2857
801.783	2941
801.926	3001
802.068	2963
802.211	2971
802.353	3032
802.496	2941
802.638	2998
802.78	3039
802.923	3074
803.065	3001
803.208	2880
803.35	2899
803.492	2922
803.635	2948
803.777	2743
803.919	2876
804.061	3230
804.204	2944
804.346	2876
804.488	2838
804.63	3009
804.773	2872
804.915	2902
805.057	3066
805.199	2902
805.341	2922
805.483	3028
805.626	3020
805.768	2975
805.91	3036
806.052	3169
806.194	3009
806.336	3218
806.478	3013
806.62	2937
806.762	2933
806.904	3039
807.046	3165
807.188	2979
807.33	2922
807.472	2979
807.614	2895
807.756	2967
807.898	2941
808.04	2880
808.182	2941
808.324	2933
808.465	2902
808.607	2842
808.749	2811
808.891	2842
809.033	2918
809.174	2982
809.316	2876
809.458	2864
809.6	2773
809.741	2788
809.883	2773
810.025	2872
810.166	2857
810.308	2857
810.45	2819
810.591	2743
810.733	2769
810.875	2800
811.016	2769
811.158	2739
811.299	2796
811.441	2941
811.582	2883
811.724	2849
811.865	2883
812.007	2899
812.148	2853
812.29	2830
812.431	2895
812.573	2937
812.714	2944
812.855	3051
812.997	3055
813.138	3138
813.279	3017
813.421	2998
813.562	2948
813.703	2849
813.845	2864
813.986	2750
814.127	2705
814.268	2815
814.41	2826
814.551	2819
814.692	2902
814.833	2807
814.974	2876
815.115	2956
815.256	2819
815.397	2849
815.539	2853
815.68	2758
815.821	2773
815.962	2948
816.103	2941
816.244	2861
816.385	2872
816.526	2967
816.666	2883
816.807	2750
816.948	2880
817.089	2872
817.23	2842
817.371	2800
817.512	2781
817.653	2842
817.793	2853
817.934	2845
818.075	2948
818.216	3013
818.356	3055
818.497	2861
818.638	2785
818.778	2834
818.919	2796
819.06	2777
819.2	2872
819.341	2788
819.481	2773
819.622	2956
819.762	3097
819.903	3047
820.043	2914
820.184	2868
820.324	2876
820.465	3017
820.605	2994
820.746	3013
820.886	2937
821.026	3055
821.167	3154
821.307	3264
821.447	3264
821.588	3226
821.728	3195
821.868	3184
822.008	3066
822.149	3161
822.289	3230
822.429	3074
822.569	3150
822.709	3218
822.849	2998
822.99	3055
823.13	3142
823.27	3207
823.41	3119
823.55	3157
823.69	3112
823.83	3184
823.97	3093
824.11	2998
824.25	2971
824.389	3043
824.529	3058
824.669	3066
824.809	3165
824.949	3230
825.089	3199
825.228	3150
825.368	2967
825.508	2918
825.648	2998
825.787	3001
825.927	2998
826.067	2948
826.206	2933
826.346	3024
826.485	3097
826.625	3119
826.765	3226
826.904	3180
827.044	2956
827.183	2937
827.323	2864
827.462	2994
827.601	2906
827.741	2914
827.88	2952
828.02	2864
828.159	2914
828.298	3032
828.437	3085
828.577	3001
828.716	3233
828.855	3062
828.994	2918
829.134	2849
829.273	2910
829.412	2864
829.551	2830
829.69	2880
829.829	2990
829.968	3085
830.107	2990
830.246	3028
830.385	2902
830.524	2868
830.663	2815
830.802	2743
830.941	2640
831.08	2629
831.219	2731
831.357	2731
831.496	2933
831.635	2731
831.774	2659
831.913	2644
832.051	2541
832.19	2575
832.329	2651
832.467	2537
832.606	2465
832.744	2590
832.883	2560
833.022	2552
833.16	2663
833.299	2644
833.437	2708
833.576	2686
833.714	2727
833.852	2746
833.991	2777
834.129	2830
834.267	2819
834.406	2777
834.544	2853
834.682	2876
834.821	2883
834.959	3070
835.097	2906
835.235	3055
835.373	2994
835.511	2994
835.65	2944
835.788	2952
835.926	2819
836.064	2842
836.202	2842
836.34	3093
836.478	3119
836.615	3051
836.753	3112
836.891	3169
837.029	3173
837.167	3077
837.305	3058
837.443	3020
837.58	2960
837.718	3116
837.856	3104
837.993	3058
838.131	3104
838.269	3070
838.406	3112
838.544	3032
838.681	2922
838.819	2887
838.956	2777
839.094	2777
839.231	2906
839.369	3024
839.506	3348
839.643	3195
839.781	3043
839.918	2956
840.055	3036
840.193	3085
840.33	3085
840.467	3100
840.604	3180
840.742	3389
840.879	3005
841.016	3051
841.153	3108
841.29	3332
841.427	3279
841.564	3298
841.701	3268
841.838	3233
841.975	3173
842.112	3222
842.249	3028
842.385	3009
842.522	3264
842.659	3066
842.796	3100
842.933	3047
843.069	3047
843.206	3028
843.343	3180
843.479	3093
843.616	3112
843.752	2861
843.889	2864
844.025	3070
844.162	2880
844.298	3085
844.435	2929
844.571	2902
844.708	3055
844.844	3173
844.98	3222
845.117	3173
845.253	3051
845.389	2963
845.525	3131
845.661	3093
845.798	3005
845.934	3123
846.07	3085
846.206	3260
846.342	3310
846.478	3230
846.614	3070
846.75	3066
846.886	3036
847.022	3211
847.158	3138
847.294	3161
847.429	3249
847.565	3173
847.701	3485
847.837	3039
847.972	3001
848.108	3146
848.244	3146
848.379	2998
848.515	2948
848.65	2899
848.786	2944
848.921	2990
849.057	3104
849.192	3104
849.328	3055
849.463	3085
849.598	3039
849.734	3032
849.869	2979
850.004	2910
850.14	2960
850.275	2918
850.41	2819
850.545	2880
850.68	2967
850.815	2956
850.95	2948
851.085	3199
851.22	3093
851.355	3005
851.49	2994
851.625	3024
851.76	2994
851.895	2925
852.03	2887
852.165	3032
852.299	3100
852.434	3184
852.569	3157
852.703	3161
852.838	3245
852.973	3344
853.107	3302
853.242	3108
853.376	3100
853.511	2967
853.645	3020
853.78	3245
853.914	3127
854.048	3097
854.183	3020
854.317	3150
854.451	3253
854.585	3108
854.72	3062
854.854	3230
854.988	3070
855.122	3104
855.256	2963
855.39	3100
855.524	3214
855.658	3142
855.792	3138
855.926	3184
856.06	3230
856.194	3264
856.327	3112
856.461	3066
856.595	3066
856.729	3066
856.862	3245
856.996	3173
857.13	3176
857.263	3211
857.397	3241
857.53	3116
857.664	3214
857.797	3203
857.931	3283
858.064	3165
858.197	3203
858.331	3100
858.464	3100
858.597	2971
858.731	3108
858.864	3131
858.997	3077
859.13	3135
859.263	3157
859.396	3173
859.529	3062
859.662	3039
859.795	3039
859.928	3150
860.061	3237
860.194	3283
860.327	3093
860.46	3100
860.592	3253
860.725	3199
860.858	3222
860.99	3070
861.123	3028
861.256	3070
861.388	3146
861.521	3804
861.653	2998
861.786	2994
861.918	3013
862.05	3047
862.183	3051
862.315	3119
862.447	3184
862.58	3108
862.712	2990
862.844	2857
862.976	3024
863.108	2975
863.24	3397
863.372	2857
863.504	2990
863.636	2925
863.768	3001
863.9	2975
864.032	2895
864.164	2952
864.296	3017
864.428	3112
864.559	3081
864.691	3112
864.823	3028
864.954	3028
865.086	3009
865.217	2956
865.349	2963
865.48	2963
865.612	3013
865.743	3138
865.875	2963
866.006	2899
866.137	2963
866.269	2929
866.4	2925
866.531	2899
866.662	2887
866.793	2872
866.924	2868
867.055	2975
867.186	2918
867.317	2925
867.448	2819
867.579	2830
867.71	2868
867.841	2811
867.972	2895
868.103	2914
868.233	2899
868.364	2891
868.495	2845
868.625	3047
868.756	3180
868.886	2998
869.017	3009
869.147	3154
869.278	3154
869.408	3036
869.539	3043
869.669	3077
869.799	3001
869.929	3131
870.06	3116
870.19	3317
870.32	3256
870.45	3306
870.58	3336
870.71	3428
870.84	3454
870.97	3275
871.1	3211
871.23	3466
871.36	3447
871.489	3325
871.619	3431
871.749	3416
871.879	3447
872.008	3466
872.138	3359
872.267	3279
872.397	3173
872.526	3066
872.656	2994
872.785	3066
872.915	3226
873.044	3310
873.173	3218
873.303	3245
873.432	3218
873.561	3195
873.69	3131
873.819	3100
873.948	3184
874.077	3119
874.206	3051
874.335	3043
874.464	3218
874.593	3306
874.722	3222
874.851	3389
874.979	3344
875.108	3306
875.237	3180
875.365	3154
875.494	3142
875.623	3245
875.751	3104
875.88	3055
876.008	3188
876.136	3230
876.265	3332
876.393	3507
876.521	3473
876.65	3420
876.778	3321
876.906	3233
877.034	3184
877.162	3218
877.29	3150
877.418	3222
877.546	3249
877.674	3230
877.802	3241
877.93	3256
878.058	3138
878.185	3066
878.313	3165
878.441	3180
878.568	3058
878.696	3131
878.824	3230
878.951	3283
879.079	3416
879.206	3584
879.333	3412
879.461	3291
879.588	3332
879.715	3469
879.842	3580
879.97	3344
880.097	3154
880.224	3093
880.351	3131
880.478	3184
880.605	3192
880.732	3169
880.859	3507
880.986	3291
881.112	3302
881.239	3173
881.366	3112
881.493	3009
881.619	3047
881.746	3039
881.872	3070
881.999	3074
882.125	3097
882.252	3226
882.378	3230
882.505	3466
882.631	3256
882.757	3150
882.883	3207
883.01	3184
883.136	3142
883.262	3081
883.388	3085
883.514	3298
883.64	3329
883.766	3268
883.892	3203
884.018	3226
884.143	3405
884.269	3507
884.395	3150
884.52	3173
884.646	3173
884.772	3097
884.897	3070
885.023	3199
885.148	3313
885.274	3420
885.399	3348
885.524	3291
885.65	3245
885.775	3268
885.9	3279
886.025	3386
886.15	3367
886.275	3287
886.4	3214
886.525	3321
886.65	3256
886.775	3222
886.9	3466
887.025	3644
887.149	3409
887.274	3218
887.399	3180
887.523	3150
887.648	3207
887.773	3188
887.897	3340
888.021	3401
888.146	3268
888.27	3458
888.395	3553
888.519	3466
888.643	3462
888.767	3473
888.891	3275
889.015	3226
889.139	3287
889.263	3279
889.387	3443
889.511	3500
889.635	3447
889.759	3306
889.883	3268
890.006	3359
890.13	3523
890.254	3253
890.377	3355
890.501	3195
890.624	3207
890.748	3329
890.871	3207
890.995	3154
891.118	3108
891.241	3222
891.364	3230
891.488	3313
891.611	3188
891.734	3249
891.857	3329
891.98	3260
892.103	3389
892.226	3310
892.349	3214
892.471	3138
892.594	3298
892.717	3313
892.839	3306
892.962	3351
893.085	3401
893.207	3336
893.33	3188
893.452	3256
893.575	3382
893.697	3298
893.819	3511
893.941	3557
894.064	3454
894.186	3302
894.308	3313
894.43	3500
894.552	3557
894.674	3511
894.796	3317
894.918	3367
895.04	3359
895.161	3466
895.283	3435
895.405	3325
895.526	3389
895.648	3447
895.769	3447
895.891	3504
896.012	3530
896.134	3507
896.255	3443
896.376	3424
896.498	3420
896.619	3412
896.74	3412
896.861	3473
896.982	3720
897.103	3854
897.224	3625
897.345	3553
897.466	3458
897.587	3488
897.708	3690
897.828	3618
897.949	3462
898.07	3378
898.19	3454
898.311	3622
898.431	3500
898.552	3526
898.672	3610
898.792	3557
898.913	3564
899.033	3439
899.153	3382
899.273	3192
899.393	3317
899.513	3336
899.633	3351
899.753	3370
899.873	3397
899.993	3447
900.113	3355
900.232	3431
900.352	3397
900.472	3332
900.591	3253
900.711	3355
900.83	3256
900.95	3458
901.069	3488
901.189	3386
901.308	3203
901.427	3188
901.546	3199
901.665	3313
901.784	3367
901.904	3291
902.023	3157
902.141	3058
902.26	3066
902.379	3176
902.498	3112
902.617	3116
902.735	3207
902.854	3214
902.973	3249
903.091	3058
903.21	3085
903.328	3165
903.446	3146
903.565	3112
903.683	3249
903.801	3211
903.919	3264
904.038	3332
904.156	3218
904.274	3329
904.392	3279
904.51	3306
904.627	3355
904.745	3462
904.863	3530
904.981	3340
905.098	3218
905.216	3306
905.334	3306
905.451	3332
905.569	3332
905.686	3420
905.803	3485
905.921	3329
906.038	3450
906.155	3370
906.272	3291
906.389	3336
906.506	3272
906.623	3306
906.74	3329
906.857	3138
906.974	3317
907.091	3469
907.208	3587
907.324	3500
907.441	3439
907.557	3260
907.674	3283
907.79	3230
907.907	3268
908.023	3363
908.139	3405
908.256	3374
908.372	3397
908.488	3374
908.604	3268
908.72	3233
908.836	3329
908.952	3302
909.068	3363
909.184	3526
909.3	3412
909.415	3530
909.531	3519
909.647	3325
909.762	3325
909.878	3298
909.993	3443
910.108	3355
910.224	3420
910.339	3439
910.454	3367
910.57	3336
910.685	3268
910.8	3606
910.915	3606
911.03	3473
911.145	3332
911.259	3283
911.374	3332
911.489	3310
911.604	3260
911.718	3154
911.833	3188
911.947	3089
912.062	3032
912.176	3180
912.291	3203
912.405	3233
912.519	3450
912.633	3530
912.748	3359
912.862	3336
912.976	3199
913.09	3055
913.204	3157
913.318	3226
913.431	3374
913.545	3378
913.659	3485
913.772	3344
913.886	3237
914	3207
914.113	3363
914.226	3443
914.34	3367
914.453	3245
914.566	3428
914.68	3310
914.793	3351
914.906	3188
915.019	3150
915.132	3093
915.245	3203
915.358	3230
915.47	3264
915.583	3275
915.696	3336
915.809	3401
915.921	3469
916.034	3272
916.146	3272
916.259	3249
916.371	3393
916.483	3370
916.595	3317
916.708	3359
916.82	3355
916.932	3370
917.044	3363
917.156	3378
917.268	3317
917.38	3306
917.491	3340
917.603	3374
917.715	3469
917.826	3469
917.938	3435
918.049	3321
918.161	3488
918.272	3610
918.384	3584
918.495	3481
918.606	3389
918.717	3279
918.828	3416
918.939	3447
919.05	3336
919.161	3393
919.272	3180
919.383	3332
919.494	3515
919.604	3705
919.715	3515
919.826	3435
919.936	3500
920.047	3644
920.157	3572
920.267	3797
920.378	3595
920.488	3606
920.598	3823
920.708	4025
920.818	3819
920.928	3873
921.038	4059
921.148	3994
921.258	3728
921.368	3648
921.477	3629
921.587	3549
921.697	3477
921.806	3622
921.916	3564
922.025	3386
922.134	3386
922.244	3348
922.353	3447
922.462	3302
922.571	3256
922.68	3097
922.789	3116
922.898	3150
923.007	3138
923.116	3268
923.224	3169
923.333	3180
923.442	3154
923.55	3142
923.659	3169
923.767	3218
923.876	3169
923.984	3245
924.092	3142
924.201	3226
924.309	3264
924.417	3268
924.525	3188
924.633	3287
924.741	4223
924.849	3089
924.956	3302
925.064	3093
925.172	3077
925.279	3093
925.387	3222
925.494	3199
925.602	3405
925.709	3393
925.816	3199
925.924	3287
926.031	3378
926.138	3348
926.245	3329
926.352	3268
926.459	3428
926.566	3485
926.673	3344
926.779	3264
926.886	3268
926.993	3180
927.099	3165
927.206	3119
927.312	3138
927.419	3264
927.525	3253
927.631	3317
927.737	3184
927.843	3169
927.95	3051
928.056	3138
928.162	3218
928.267	3241
928.373	3873
928.479	3294
928.585	3077
928.69	3192
928.796	3340
928.901	3214
929.007	3081
929.112	3233
929.218	3199
929.323	3138
929.428	3165
929.533	3382
929.638	3142
929.743	3226
929.848	3233
929.953	3256
930.058	3188
930.163	3024
930.267	3077
930.372	3230
930.477	3032
930.581	3370
930.685	3169
930.79	3108
930.894	3112
930.998	3116
931.103	3294
931.207	2956
931.311	2960
931.415	2963
931.519	2785
931.623	2823
