Data from test_V78500241_1524.txt Node
Date: Fri Mar 25 16:25:45 CST 2022
User: usil
Spectrometer: V785-0024
Trigger mode: 0
Integration Time (sec): 4.000000E-1
Scans to average: 1
Nonlinearity correction enabled: false
Boxcar width: 0
Storing dark spectrum: false
XAxis mode: Wavelengths
Number of Pixels in Spectrum: 1024
>>>>>Begin Spectral Data<<<<<
801.071	2929
801.214	2967
801.356	2910
801.499	2937
801.641	2914
801.783	2975
801.926	3070
802.068	3020
802.211	3036
802.353	3085
802.496	3020
802.638	3020
802.78	3051
802.923	3100
803.065	3013
803.208	2929
803.35	2899
803.492	3001
803.635	2948
803.777	2766
803.919	2883
804.061	3230
804.204	2952
804.346	2895
804.488	2864
804.63	2982
804.773	2929
804.915	2963
805.057	3066
805.199	2937
805.341	3001
805.483	3047
805.626	3036
805.768	2929
805.91	3138
806.052	3138
806.194	3039
806.336	3237
806.478	3039
806.62	2971
806.762	3001
806.904	3074
807.046	3222
807.188	2952
807.33	2948
807.472	3001
807.614	2944
807.756	2971
807.898	2967
808.04	2929
808.182	2979
808.324	2975
808.465	2899
808.607	2899
808.749	2796
808.891	2876
809.033	3005
809.174	3028
809.316	2918
809.458	2929
809.6	2769
809.741	2785
809.883	2796
810.025	2880
810.166	2880
810.308	2857
810.45	2899
810.591	2769
810.733	2746
810.875	2872
811.016	2800
811.158	2781
811.299	2838
811.441	2967
811.582	2887
811.724	2819
811.865	2857
812.007	2941
812.148	2906
812.29	2845
812.431	2906
812.573	2971
812.714	2979
812.855	3066
812.997	3066
813.138	3097
813.279	3047
813.421	2990
813.562	2979
813.703	2895
813.845	2914
813.986	2823
814.127	2754
814.268	2857
814.41	2853
814.551	2838
814.692	2937
814.833	2853
814.974	2929
815.115	2975
815.256	2830
815.397	2857
815.539	2834
815.68	2830
815.821	2811
815.962	2971
816.103	2944
816.244	2883
816.385	2876
816.526	2986
816.666	2956
816.807	2739
816.948	2933
817.089	2956
817.23	2876
817.371	2788
817.512	2800
817.653	2826
817.793	2853
817.934	2876
818.075	2986
818.216	3017
818.356	3009
818.497	2872
818.638	2830
818.778	2830
818.919	2788
819.06	2796
819.2	2914
819.341	2842
819.481	2842
819.622	2967
819.762	3104
819.903	3043
820.043	2960
820.184	2918
820.324	2910
820.465	3020
820.605	3043
820.746	3043
820.886	2937
821.026	3119
821.167	3169
821.307	3233
821.447	3302
821.588	3272
821.728	3218
821.868	3199
822.008	3074
822.149	3192
822.289	3203
822.429	3097
822.569	3097
822.709	3203
822.849	3009
822.99	3062
823.13	3135
823.27	3207
823.41	3108
823.55	3199
823.69	3203
823.83	3203
823.97	3131
824.11	3009
824.25	3009
824.389	3108
824.529	3119
824.669	3058
824.809	3203
824.949	3237
825.089	3256
825.228	3135
825.368	3043
825.508	2971
825.648	3005
825.787	3032
825.927	3036
826.067	2990
826.206	2979
826.346	3062
826.485	3119
826.625	3119
826.765	3291
826.904	3214
827.044	3013
827.183	2994
827.323	2880
827.462	2960
827.601	2986
827.741	2929
827.88	2944
828.02	2868
828.159	2998
828.298	3066
828.437	3142
828.577	3009
828.716	3275
828.855	3070
828.994	2902
829.134	2895
829.273	2937
829.412	2895
829.551	2876
829.69	2910
829.829	2990
829.968	3135
830.107	3001
830.246	3051
830.385	2918
830.524	2918
830.663	2857
830.802	2735
830.941	2651
831.08	2617
831.219	2800
831.357	2758
831.496	2925
831.635	2735
831.774	2682
831.913	2670
832.051	2568
832.19	2610
832.329	2674
832.467	2522
832.606	2499
832.744	2598
832.883	2610
833.022	2583
833.16	2670
833.299	2689
833.437	2720
833.576	2739
833.714	2727
833.852	2727
833.991	2766
834.129	2838
834.267	2815
834.406	2807
834.544	2906
834.682	2880
834.821	2891
834.959	3081
835.097	2906
835.235	3093
835.373	3028
835.511	3013
835.65	2994
835.788	2933
835.926	2857
836.064	2804
836.202	2876
836.34	3093
836.478	3157
836.615	3047
836.753	3131
836.891	3199
837.029	3169
837.167	3089
837.305	3077
837.443	3081
837.58	2944
837.718	3097
837.856	3074
837.993	3058
838.131	3119
838.269	3108
838.406	3093
838.544	3093
838.681	2929
838.819	2925
838.956	2834
839.094	2849
839.231	2937
839.369	3036
839.506	3348
839.643	3233
839.781	3009
839.918	2990
840.055	3074
840.193	3074
840.33	3066
840.467	3097
840.604	3173
840.742	3416
840.879	3074
841.016	3036
841.153	3097
841.29	3359
841.427	3302
841.564	3264
841.701	3291
841.838	3211
841.975	3150
842.112	3203
842.249	3097
842.385	3066
842.522	3233
842.659	3055
842.796	3066
842.933	3127
843.069	3051
843.206	3058
843.343	3188
843.479	3085
843.616	3154
843.752	2899
843.889	2868
844.025	3097
844.162	2895
844.298	3077
844.435	2944
844.571	2925
844.708	3070
844.844	3157
844.98	3237
845.117	3154
845.253	3028
845.389	3028
845.525	3135
845.661	3135
845.798	2998
845.934	3116
846.07	3020
846.206	3237
846.342	3363
846.478	3207
846.614	3097
846.75	3055
846.886	3005
847.022	3203
847.158	3154
847.294	3195
847.429	3241
847.565	3199
847.701	3473
847.837	3055
847.972	3020
848.108	3188
848.244	3131
848.379	3001
848.515	2963
848.65	2948
848.786	2960
848.921	3009
849.057	3097
849.192	3150
849.328	3097
849.463	3100
849.598	3055
849.734	3043
849.869	2979
850.004	2956
850.14	2960
850.275	2925
850.41	2819
850.545	2876
850.68	2937
850.815	2971
850.95	3005
851.085	3199
851.22	3093
851.355	3055
851.49	2998
851.625	3058
851.76	3062
851.895	2975
852.03	2948
852.165	3043
852.299	3131
852.434	3211
852.569	3173
852.703	3176
852.838	3306
852.973	3428
853.107	3378
853.242	3169
853.376	3119
853.511	2971
853.645	3104
853.78	3241
853.914	3161
854.048	3123
854.183	3142
854.317	3195
854.451	3302
854.585	3218
854.72	3116
854.854	3233
854.988	3081
855.122	3135
855.256	3013
855.39	3169
855.524	3253
855.658	3226
855.792	3214
855.926	3237
856.06	3287
856.194	3313
856.327	3211
856.461	3100
856.595	3146
856.729	3146
856.862	3249
856.996	3211
857.13	3207
857.263	3275
857.397	3283
857.53	3112
857.664	3233
857.797	3245
857.931	3260
858.064	3203
858.197	3241
858.331	3195
858.464	3146
858.597	3024
858.731	3146
858.864	3192
858.997	3081
859.13	3154
859.263	3173
859.396	3245
859.529	3142
859.662	3127
859.795	3097
859.928	3157
860.061	3325
860.194	3310
860.327	3173
860.46	3116
860.592	3275
860.725	3287
860.858	3268
860.99	3161
861.123	3074
861.256	3081
861.388	3173
861.521	3945
861.653	3036
861.786	3001
861.918	3051
862.05	3093
862.183	3154
862.315	3211
862.447	3218
862.58	3119
862.712	2994
862.844	2891
862.976	3051
863.108	3032
863.24	3363
863.372	2902
863.504	3017
863.636	2971
863.768	3055
863.9	3005
864.032	2975
864.164	3017
864.296	3036
864.428	3135
864.559	3108
864.691	3108
864.823	3047
864.954	3036
865.086	3093
865.217	3028
865.349	2952
865.48	3001
865.612	3036
865.743	3214
865.875	3043
866.006	2982
866.137	2998
866.269	2956
866.4	2956
866.531	2967
866.662	2941
866.793	2925
866.924	2899
867.055	3028
867.186	2971
867.317	2914
867.448	2861
867.579	2849
867.71	2891
867.841	2857
867.972	2910
868.103	2933
868.233	2914
868.364	2876
868.495	2948
868.625	3138
868.756	3184
868.886	3020
869.017	3081
869.147	3173
869.278	3195
869.408	3112
869.539	3043
869.669	3138
869.799	3089
869.929	3180
870.06	3154
870.19	3321
870.32	3302
870.45	3313
870.58	3416
870.71	3466
870.84	3466
870.97	3344
871.1	3275
871.23	3545
871.36	3485
871.489	3386
871.619	3447
871.749	3469
871.879	3466
872.008	3511
872.138	3340
872.267	3287
872.397	3161
872.526	3135
872.656	3051
872.785	3135
872.915	3272
873.044	3329
873.173	3260
873.303	3272
873.432	3279
873.561	3249
873.69	3176
873.819	3154
873.948	3214
874.077	3142
874.206	3070
874.335	3097
874.464	3275
874.593	3359
874.722	3298
874.851	3363
874.979	3363
875.108	3306
875.237	3207
875.365	3169
875.494	3195
875.623	3283
875.751	3097
875.88	3150
876.008	3214
876.136	3272
876.265	3393
876.393	3515
876.521	3424
876.65	3412
876.778	3359
876.906	3279
877.034	3264
877.162	3272
877.29	3184
877.418	3287
877.546	3272
877.674	3294
877.802	3256
877.93	3283
878.058	3184
878.185	3127
878.313	3169
878.441	3249
878.568	3116
878.696	3184
878.824	3279
878.951	3313
879.079	3523
879.206	3660
879.333	3477
879.461	3363
879.588	3351
879.715	3515
879.842	3625
879.97	3420
880.097	3222
880.224	3161
880.351	3188
880.478	3222
880.605	3241
880.732	3249
880.859	3523
880.986	3321
881.112	3332
881.239	3241
881.366	3127
881.493	3070
881.619	3062
881.746	3104
881.872	3131
881.999	3127
882.125	3180
882.252	3272
882.378	3298
882.505	3439
882.631	3310
882.757	3165
882.883	3237
883.01	3310
883.136	3192
883.262	3161
883.388	3154
883.514	3310
883.64	3420
883.766	3329
883.892	3237
884.018	3283
884.143	3416
884.269	3534
884.395	3233
884.52	3176
884.646	3199
884.772	3146
884.897	3104
885.023	3218
885.148	3355
885.274	3420
885.399	3420
885.524	3359
885.65	3291
885.775	3313
885.9	3287
886.025	3469
886.15	3386
886.275	3329
886.4	3264
886.525	3336
886.65	3306
886.775	3306
886.9	3507
887.025	3663
887.149	3370
887.274	3256
887.399	3211
887.523	3218
887.648	3230
887.773	3226
887.897	3367
888.021	3401
888.146	3336
888.27	3443
888.395	3591
888.519	3447
888.643	3447
888.767	3485
888.891	3340
889.015	3253
889.139	3325
889.263	3260
889.387	3439
889.511	3561
889.635	3466
889.759	3336
889.883	3279
890.006	3363
890.13	3519
890.254	3294
890.377	3344
890.501	3218
890.624	3211
890.748	3332
890.871	3180
890.995	3097
891.118	3093
891.241	3222
891.364	3245
891.488	3344
891.611	3195
891.734	3249
891.857	3306
891.98	3275
892.103	3397
892.226	3302
892.349	3218
892.471	3157
892.594	3279
892.717	3355
892.839	3291
892.962	3302
893.085	3397
893.207	3329
893.33	3169
893.452	3226
893.575	3393
893.697	3275
893.819	3511
893.941	3511
894.064	3477
894.186	3294
894.308	3268
894.43	3450
894.552	3576
894.674	3526
894.796	3363
894.918	3351
895.04	3340
895.161	3462
895.283	3469
895.405	3332
895.526	3378
895.648	3462
895.769	3416
895.891	3466
896.012	3477
896.134	3454
896.255	3454
896.376	3424
896.498	3405
896.619	3473
896.74	3374
896.861	3450
896.982	3713
897.103	3865
897.224	3595
897.345	3500
897.466	3450
897.587	3515
897.708	3709
897.828	3561
897.949	3424
898.07	3332
898.19	3466
898.311	3606
898.431	3447
898.552	3519
898.672	3629
898.792	3614
898.913	3572
899.033	3420
899.153	3283
899.273	3211
899.393	3283
899.513	3367
899.633	3336
899.753	3359
899.873	3367
899.993	3393
900.113	3332
900.232	3439
900.352	3355
900.472	3325
900.591	3260
900.711	3317
900.83	3253
900.95	3462
901.069	3481
901.189	3363
901.308	3165
901.427	3165
901.546	3188
901.665	3344
901.784	3355
901.904	3233
902.023	3169
902.141	3055
902.26	3043
902.379	3112
902.498	3070
902.617	3112
902.735	3237
902.854	3275
902.973	3207
903.091	3055
903.21	3093
903.328	3135
903.446	3154
903.565	3142
903.683	3222
903.801	3116
903.919	3283
904.038	3272
904.156	3207
904.274	3306
904.392	3294
904.51	3260
904.627	3317
904.745	3481
904.863	3485
904.981	3260
905.098	3233
905.216	3245
905.334	3306
905.451	3332
905.569	3321
905.686	3435
905.803	3450
905.921	3283
906.038	3466
906.155	3412
906.272	3317
906.389	3355
906.506	3207
906.623	3253
906.74	3272
906.857	3230
906.974	3279
907.091	3507
907.208	3580
907.324	3496
907.441	3393
907.557	3233
907.674	3306
907.79	3230
907.907	3325
908.023	3439
908.139	3367
908.256	3332
908.372	3367
908.488	3359
908.604	3302
908.72	3241
908.836	3321
908.952	3302
909.068	3348
909.184	3462
909.3	3363
909.415	3507
909.531	3462
909.647	3325
909.762	3306
909.878	3264
909.993	3393
910.108	3336
910.224	3325
910.339	3428
910.454	3325
910.57	3264
910.685	3249
910.8	3576
910.915	3538
911.03	3447
911.145	3287
911.259	3272
911.374	3306
911.489	3222
911.604	3264
911.718	3138
911.833	3150
911.947	3058
912.062	2979
912.176	3169
912.291	3161
912.405	3283
912.519	3424
912.633	3477
912.748	3378
912.862	3272
912.976	3180
913.09	3077
913.204	3154
913.318	3218
913.431	3401
913.545	3325
913.659	3424
913.772	3363
913.886	3237
914	3230
914.113	3344
914.226	3431
914.34	3370
914.453	3253
914.566	3401
914.68	3291
914.793	3313
914.906	3165
915.019	3108
915.132	3089
915.245	3180
915.358	3253
915.47	3233
915.583	3253
915.696	3287
915.809	3424
915.921	3382
916.034	3275
916.146	3291
916.259	3237
916.371	3405
916.483	3340
916.595	3287
916.708	3363
916.82	3363
916.932	3344
917.044	3370
917.156	3382
917.268	3230
917.38	3279
917.491	3294
917.603	3393
917.715	3443
917.826	3485
917.938	3344
918.049	3302
918.161	3477
918.272	3568
918.384	3603
918.495	3515
918.606	3340
918.717	3256
918.828	3355
918.939	3393
919.05	3332
919.161	3386
919.272	3157
919.383	3279
919.494	3523
919.604	3675
919.715	3553
919.826	3431
919.936	3507
920.047	3580
920.157	3515
920.267	3800
920.378	3610
920.488	3538
920.598	3850
920.708	3983
920.818	3835
920.928	3816
921.038	4025
921.148	4048
921.258	3690
921.368	3667
921.477	3576
921.587	3549
921.697	3458
921.806	3660
921.916	3549
922.025	3336
922.134	3374
922.244	3348
922.353	3435
922.462	3268
922.571	3256
922.68	3104
922.789	3081
922.898	3135
923.007	3093
923.116	3237
923.224	3169
923.333	3188
923.442	3135
923.55	3127
923.659	3157
923.767	3222
923.876	3161
923.984	3211
924.092	3119
924.201	3226
924.309	3230
924.417	3222
924.525	3195
924.633	3249
924.741	4181
924.849	3081
924.956	3268
925.064	3093
925.172	3051
925.279	3138
925.387	3195
925.494	3226
925.602	3359
925.709	3332
925.816	3199
925.924	3302
926.031	3370
926.138	3351
926.245	3409
926.352	3226
926.459	3428
926.566	3477
926.673	3336
926.779	3294
926.886	3275
926.993	3199
927.099	3131
927.206	3108
927.312	3135
927.419	3230
927.525	3218
927.631	3260
927.737	3150
927.843	3173
927.95	3032
928.056	3184
928.162	3211
928.267	3264
928.373	3743
928.479	3340
928.585	3055
928.69	3226
928.796	3245
928.901	3173
929.007	3055
929.112	3207
929.218	3154
929.323	3146
929.428	3180
929.533	3325
929.638	3165
929.743	3184
929.848	3245
929.953	3211
930.058	3176
930.163	3020
930.267	3066
930.372	3188
930.477	3036
930.581	3313
930.685	3161
930.79	3066
930.894	3112
930.998	3097
931.103	3302
931.207	2963
931.311	2960
931.415	2925
931.519	2739
931.623	2815
