Data from test_V78500241_266.txt Node
Date: Fri Mar 25 16:17:02 CST 2022
User: usil
Spectrometer: V785-0024
Trigger mode: 0
Integration Time (sec): 4.000000E-1
Scans to average: 1
Nonlinearity correction enabled: false
Boxcar width: 0
Storing dark spectrum: false
XAxis mode: Wavelengths
Number of Pixels in Spectrum: 1024
>>>>>Begin Spectral Data<<<<<
801.071	2929
801.214	2941
801.356	2883
801.499	2899
801.641	2895
801.783	2967
801.926	3062
802.068	2971
802.211	2975
802.353	3066
802.496	2979
802.638	2994
802.78	3013
802.923	3062
803.065	2990
803.208	2929
803.35	2883
803.492	2937
803.635	2937
803.777	2773
803.919	2861
804.061	3188
804.204	2990
804.346	2914
804.488	2883
804.63	2960
804.773	2876
804.915	2944
805.057	3085
805.199	2944
805.341	2956
805.483	3020
805.626	2960
805.768	2956
805.91	3097
806.052	3074
806.194	3047
806.336	3230
806.478	3055
806.62	2952
806.762	2979
806.904	3051
807.046	3173
807.188	3013
807.33	2937
807.472	3005
807.614	2925
807.756	3028
807.898	2941
808.04	2895
808.182	2952
808.324	2994
808.465	2887
808.607	2872
808.749	2807
808.891	2826
809.033	3001
809.174	2994
809.316	2910
809.458	2887
809.6	2792
809.741	2781
809.883	2796
810.025	2861
810.166	2864
810.308	2849
810.45	2887
810.591	2777
810.733	2788
810.875	2838
811.016	2804
811.158	2762
811.299	2800
811.441	2937
811.582	2899
811.724	2853
811.865	2811
812.007	2895
812.148	2853
812.29	2857
812.431	2887
812.573	2925
812.714	2990
812.855	3024
812.997	3028
813.138	3138
813.279	2998
813.421	2971
813.562	2979
813.703	2853
813.845	2933
813.986	2781
814.127	2731
814.268	2819
814.41	2872
814.551	2853
814.692	2891
814.833	2807
814.974	2883
815.115	2982
815.256	2872
815.397	2807
815.539	2864
815.68	2826
815.821	2777
815.962	2944
816.103	2929
816.244	2883
816.385	2830
816.526	3005
816.666	2933
816.807	2769
816.948	2815
817.089	2902
817.23	2830
817.371	2792
817.512	2792
817.653	2853
817.793	2842
817.934	2876
818.075	2971
818.216	2963
818.356	3032
818.497	2902
818.638	2788
818.778	2807
818.919	2823
819.06	2773
819.2	2872
819.341	2807
819.481	2811
819.622	2914
819.762	3089
819.903	3062
820.043	2922
820.184	2887
820.324	2922
820.465	3005
820.605	3017
820.746	3028
820.886	2933
821.026	3119
821.167	3146
821.307	3260
821.447	3283
821.588	3268
821.728	3211
821.868	3214
822.008	3055
822.149	3176
822.289	3195
822.429	3119
822.569	3089
822.709	3184
822.849	3028
822.99	3081
823.13	3146
823.27	3195
823.41	3131
823.55	3150
823.69	3180
823.83	3199
823.97	3154
824.11	3043
824.25	2994
824.389	3104
824.529	3116
824.669	3055
824.809	3176
824.949	3260
825.089	3211
825.228	3192
825.368	3062
825.508	2948
825.648	2975
825.787	3017
825.927	2994
826.067	2952
826.206	2952
826.346	3058
826.485	3089
826.625	3119
826.765	3279
826.904	3214
827.044	2982
827.183	2906
827.323	2845
827.462	2994
827.601	2918
827.741	2914
827.88	2967
828.02	2842
828.159	2990
828.298	3028
828.437	3097
828.577	3055
828.716	3272
828.855	3081
828.994	2922
829.134	2872
829.273	2914
829.412	2864
829.551	2842
829.69	2906
829.829	3036
829.968	3104
830.107	3036
830.246	2982
830.385	2933
830.524	2872
830.663	2830
830.802	2689
830.941	2659
831.08	2632
831.219	2792
831.357	2731
831.496	2971
831.635	2750
831.774	2640
831.913	2651
832.051	2549
832.19	2617
832.329	2720
832.467	2552
832.606	2473
832.744	2598
832.883	2579
833.022	2571
833.16	2632
833.299	2678
833.437	2720
833.576	2686
833.714	2754
833.852	2731
833.991	2762
834.129	2796
834.267	2792
834.406	2788
834.544	2902
834.682	2868
834.821	2853
834.959	3058
835.097	2876
835.235	3062
835.373	3047
835.511	3028
835.65	2979
835.788	2986
835.926	2788
836.064	2807
836.202	2842
836.34	3093
836.478	3161
836.615	3058
836.753	3142
836.891	3211
837.029	3195
837.167	3100
837.305	3093
837.443	3058
837.58	2941
837.718	3135
837.856	3055
837.993	3058
838.131	3100
838.269	3104
838.406	3074
838.544	3081
838.681	2967
838.819	2899
838.956	2807
839.094	2842
839.231	2906
839.369	3005
839.506	3374
839.643	3230
839.781	3017
839.918	2998
840.055	3055
840.193	3028
840.33	3100
840.467	3112
840.604	3131
840.742	3416
840.879	3051
841.016	3058
841.153	3112
841.29	3321
841.427	3302
841.564	3249
841.701	3264
841.838	3222
841.975	3207
842.112	3195
842.249	3074
842.385	3024
842.522	3249
842.659	3123
842.796	3024
842.933	3116
843.069	3024
843.206	3036
843.343	3195
843.479	3100
843.616	3119
843.752	2891
843.889	2861
844.025	3032
844.162	2868
844.298	3077
844.435	2952
844.571	2914
844.708	3077
844.844	3123
844.98	3260
845.117	3169
845.253	3039
845.389	3001
845.525	3108
845.661	3074
845.798	2986
845.934	3135
846.07	3039
846.206	3184
846.342	3370
846.478	3226
846.614	3112
846.75	3036
846.886	2994
847.022	3245
847.158	3154
847.294	3222
847.429	3241
847.565	3214
847.701	3473
847.837	3020
847.972	3036
848.108	3180
848.244	3104
848.379	2998
848.515	2944
848.65	2925
848.786	2975
848.921	3036
849.057	3119
849.192	3135
849.328	3074
849.463	3093
849.598	3039
849.734	3032
849.869	3013
850.004	2941
850.14	2990
850.275	2899
850.41	2823
850.545	2876
850.68	2887
850.815	2982
850.95	2979
851.085	3180
851.22	3119
851.355	3028
851.49	2952
851.625	2956
851.76	3005
851.895	2941
852.03	2883
852.165	3032
852.299	3116
852.434	3192
852.569	3180
852.703	3173
852.838	3237
852.973	3348
853.107	3370
853.242	3123
853.376	3081
853.511	2975
853.645	3028
853.78	3203
853.914	3127
854.048	3104
854.183	3097
854.317	3131
854.451	3268
854.585	3150
854.72	3089
854.854	3176
854.988	3070
855.122	3066
855.256	2963
855.39	3104
855.524	3218
855.658	3180
855.792	3154
855.926	3180
856.06	3249
856.194	3306
856.327	3138
856.461	3062
856.595	3043
856.729	3070
856.862	3241
856.996	3157
857.13	3180
857.263	3245
857.397	3287
857.53	3161
857.664	3253
857.797	3233
857.931	3245
858.064	3161
858.197	3260
858.331	3104
858.464	3100
858.597	3013
858.731	3119
858.864	3119
858.997	3097
859.13	3142
859.263	3184
859.396	3211
859.529	3070
859.662	3055
859.795	3055
859.928	3123
860.061	3256
860.194	3279
860.327	3112
860.46	3119
860.592	3218
860.725	3253
860.858	3230
860.99	3108
861.123	3077
861.256	3077
861.388	3116
861.521	3865
861.653	2990
861.786	2998
861.918	3058
862.05	3089
862.183	3112
862.315	3138
862.447	3169
862.58	3093
862.712	2979
862.844	2876
862.976	3024
863.108	2998
863.24	3306
863.372	2887
863.504	2956
863.636	2944
863.768	3020
863.9	2948
864.032	2899
864.164	2948
864.296	3051
864.428	3104
864.559	3135
864.691	3074
864.823	3051
864.954	3062
865.086	3051
865.217	3009
865.349	2963
865.48	2960
865.612	2994
865.743	3154
865.875	2998
866.006	2975
866.137	2948
866.269	2956
866.4	2922
866.531	2929
866.662	2868
866.793	2914
866.924	2883
867.055	2948
867.186	2929
867.317	2864
867.448	2834
867.579	2868
867.71	2834
867.841	2880
867.972	2891
868.103	2929
868.233	2891
868.364	2883
868.495	2887
868.625	3051
868.756	3161
868.886	2956
869.017	3051
869.147	3146
869.278	3146
869.408	3028
869.539	3017
869.669	3070
869.799	3032
869.929	3108
870.06	3097
870.19	3351
870.32	3291
870.45	3321
870.58	3412
870.71	3389
870.84	3462
870.97	3306
871.1	3226
871.23	3481
871.36	3454
871.489	3336
871.619	3382
871.749	3462
871.879	3420
872.008	3519
872.138	3367
872.267	3291
872.397	3154
872.526	3123
872.656	2979
872.785	3074
872.915	3214
873.044	3321
873.173	3226
873.303	3253
873.432	3272
873.561	3268
873.69	3131
873.819	3169
873.948	3222
874.077	3100
874.206	3043
874.335	3112
874.464	3211
874.593	3340
874.722	3272
874.851	3355
874.979	3374
875.108	3332
875.237	3207
875.365	3176
875.494	3146
875.623	3218
875.751	3032
875.88	3097
876.008	3199
876.136	3241
876.265	3351
876.393	3530
876.521	3405
876.65	3424
876.778	3317
876.906	3283
877.034	3169
877.162	3256
877.29	3192
877.418	3245
877.546	3241
877.674	3249
877.802	3207
877.93	3279
878.058	3119
878.185	3119
878.313	3199
878.441	3222
878.568	3055
878.696	3150
878.824	3230
878.951	3279
879.079	3473
879.206	3606
879.333	3412
879.461	3336
879.588	3344
879.715	3466
879.842	3603
879.97	3435
880.097	3165
880.224	3100
880.351	3211
880.478	3230
880.605	3195
880.732	3154
880.859	3477
880.986	3291
881.112	3332
881.239	3237
881.366	3074
881.493	3043
881.619	3043
881.746	3108
881.872	3127
881.999	3131
882.125	3135
882.252	3253
882.378	3310
882.505	3462
882.631	3329
882.757	3173
882.883	3218
883.01	3256
883.136	3150
883.262	3116
883.388	3093
883.514	3367
883.64	3332
883.766	3298
883.892	3192
884.018	3218
884.143	3420
884.269	3568
884.395	3237
884.52	3142
884.646	3192
884.772	3081
884.897	3135
885.023	3207
885.148	3310
885.274	3416
885.399	3393
885.524	3287
885.65	3249
885.775	3298
885.9	3298
886.025	3428
886.15	3359
886.275	3298
886.4	3218
886.525	3310
886.65	3279
886.775	3237
886.9	3504
887.025	3671
887.149	3405
887.274	3237
887.399	3184
887.523	3184
887.648	3180
887.773	3188
887.897	3378
888.021	3378
888.146	3291
888.27	3428
888.395	3530
888.519	3431
888.643	3428
888.767	3435
888.891	3313
889.015	3233
889.139	3272
889.263	3249
889.387	3416
889.511	3485
889.635	3466
889.759	3302
889.883	3313
890.006	3367
890.13	3462
890.254	3298
890.377	3329
890.501	3203
890.624	3161
890.748	3325
890.871	3199
890.995	3135
891.118	3070
891.241	3192
891.364	3211
891.488	3275
891.611	3169
891.734	3218
891.857	3256
891.98	3237
892.103	3332
892.226	3287
892.349	3203
892.471	3150
892.594	3260
892.717	3283
892.839	3298
892.962	3313
893.085	3355
893.207	3287
893.33	3123
893.452	3207
893.575	3348
893.697	3287
893.819	3492
893.941	3458
894.064	3428
894.186	3272
894.308	3283
894.43	3439
894.552	3526
894.674	3462
894.796	3226
894.918	3321
895.04	3291
895.161	3454
895.283	3416
895.405	3317
895.526	3367
895.648	3409
895.769	3397
895.891	3466
896.012	3485
896.134	3447
896.255	3424
896.376	3382
896.498	3382
896.619	3424
896.74	3359
896.861	3431
896.982	3743
897.103	3835
897.224	3614
897.345	3481
897.466	3462
897.587	3466
897.708	3618
897.828	3542
897.949	3481
898.07	3340
898.19	3412
898.311	3625
898.431	3466
898.552	3492
898.672	3591
898.792	3587
898.913	3542
899.033	3401
899.153	3279
899.273	3226
899.393	3291
899.513	3340
899.633	3302
899.753	3329
899.873	3332
899.993	3386
900.113	3340
900.232	3363
900.352	3363
900.472	3291
900.591	3203
900.711	3313
900.83	3272
900.95	3431
901.069	3534
901.189	3340
901.308	3195
901.427	3154
901.546	3256
901.665	3275
901.784	3336
901.904	3233
902.023	3184
902.141	3028
902.26	3036
902.379	3150
902.498	3077
902.617	3043
902.735	3222
902.854	3233
902.973	3199
903.091	3066
903.21	3043
903.328	3146
903.446	3112
903.565	3123
903.683	3211
903.801	3127
903.919	3241
904.038	3237
904.156	3157
904.274	3310
904.392	3287
904.51	3298
904.627	3332
904.745	3420
904.863	3466
904.981	3283
905.098	3135
905.216	3230
905.334	3287
905.451	3264
905.569	3306
905.686	3401
905.803	3473
905.921	3283
906.038	3424
906.155	3382
906.272	3306
906.389	3306
906.506	3249
906.623	3272
906.74	3294
906.857	3222
906.974	3230
907.091	3428
907.208	3568
907.324	3485
907.441	3359
907.557	3256
907.674	3199
907.79	3218
907.907	3287
908.023	3416
908.139	3393
908.256	3329
908.372	3389
908.488	3336
908.604	3233
908.72	3241
908.836	3302
908.952	3310
909.068	3359
909.184	3462
909.3	3367
909.415	3492
909.531	3477
909.647	3298
909.762	3321
909.878	3279
909.993	3363
910.108	3340
910.224	3340
910.339	3401
910.454	3351
910.57	3294
910.685	3226
910.8	3614
910.915	3523
911.03	3428
911.145	3291
911.259	3245
911.374	3294
911.489	3268
911.604	3256
911.718	3112
911.833	3119
911.947	3009
912.062	2986
912.176	3180
912.291	3203
912.405	3184
912.519	3450
912.633	3466
912.748	3332
912.862	3283
912.976	3199
913.09	3085
913.204	3184
913.318	3203
913.431	3321
913.545	3351
913.659	3447
913.772	3306
913.886	3226
914	3214
914.113	3367
914.226	3443
914.34	3374
914.453	3222
914.566	3424
914.68	3344
914.793	3321
914.906	3157
915.019	3150
915.132	3074
915.245	3173
915.358	3184
915.47	3226
915.583	3260
915.696	3298
915.809	3412
915.921	3485
916.034	3245
916.146	3272
916.259	3222
916.371	3386
916.483	3389
916.595	3275
916.708	3329
916.82	3317
916.932	3336
917.044	3344
917.156	3374
917.268	3268
917.38	3325
917.491	3291
917.603	3397
917.715	3454
917.826	3458
917.938	3389
918.049	3272
918.161	3466
918.272	3572
918.384	3572
918.495	3481
918.606	3332
918.717	3291
918.828	3367
918.939	3409
919.05	3313
919.161	3370
919.272	3154
919.383	3260
919.494	3488
919.604	3698
919.715	3477
919.826	3389
919.936	3477
920.047	3591
920.157	3526
920.267	3778
920.378	3637
920.488	3561
920.598	3797
920.708	3953
920.818	3854
920.928	3846
921.038	3998
921.148	3972
921.258	3686
921.368	3641
921.477	3591
921.587	3557
921.697	3450
921.806	3618
921.916	3504
922.025	3359
922.134	3348
922.244	3275
922.353	3439
922.462	3291
922.571	3237
922.68	3108
922.789	3055
922.898	3100
923.007	3097
923.116	3199
923.224	3123
923.333	3169
923.442	3150
923.55	3085
923.659	3104
923.767	3211
923.876	3127
923.984	3222
924.092	3085
924.201	3176
924.309	3211
924.417	3218
924.525	3199
924.633	3222
924.741	4181
924.849	3028
924.956	3294
925.064	3081
925.172	3047
925.279	3119
925.387	3184
925.494	3218
925.602	3370
925.709	3359
925.816	3192
925.924	3298
926.031	3355
926.138	3302
926.245	3355
926.352	3241
926.459	3428
926.566	3477
926.673	3336
926.779	3241
926.886	3272
926.993	3154
927.099	3135
927.206	3100
927.312	3070
927.419	3218
927.525	3203
927.631	3272
927.737	3127
927.843	3135
927.95	3017
928.056	3138
928.162	3211
928.267	3218
928.373	3884
928.479	3306
928.585	3074
928.69	3199
928.796	3256
928.901	3173
929.007	3085
929.112	3207
929.218	3218
929.323	3138
929.428	3150
929.533	3283
929.638	3127
929.743	3192
929.848	3241
929.953	3207
930.058	3150
930.163	3013
930.267	3047
930.372	3165
930.477	3020
930.581	3298
930.685	3157
930.79	3077
930.894	3104
930.998	3074
931.103	3275
931.207	2948
931.311	2967
931.415	2933
931.519	2792
931.623	2796
