Data from test_V78500241_674.txt Node
Date: Fri Mar 25 16:19:52 CST 2022
User: usil
Spectrometer: V785-0024
Trigger mode: 0
Integration Time (sec): 4.000000E-1
Scans to average: 1
Nonlinearity correction enabled: false
Boxcar width: 0
Storing dark spectrum: false
XAxis mode: Wavelengths
Number of Pixels in Spectrum: 1024
>>>>>Begin Spectral Data<<<<<
801.071	2914
801.214	2960
801.356	2899
801.499	2880
801.641	2880
801.783	2910
801.926	3058
802.068	3001
802.211	2990
802.353	3039
802.496	2979
802.638	3001
802.78	3020
802.923	3093
803.065	2975
803.208	2914
803.35	2906
803.492	2929
803.635	2929
803.777	2754
803.919	2872
804.061	3192
804.204	2941
804.346	2914
804.488	2842
804.63	3001
804.773	2872
804.915	2910
805.057	3074
805.199	2975
805.341	2990
805.483	3055
805.626	3013
805.768	2975
805.91	3047
806.052	3108
806.194	2994
806.336	3233
806.478	3028
806.62	2944
806.762	3001
806.904	3055
807.046	3165
807.188	2971
807.33	2941
807.472	2982
807.614	2937
807.756	2979
807.898	2925
808.04	2895
808.182	2979
808.324	2960
808.465	2937
808.607	2883
808.749	2815
808.891	2876
809.033	2979
809.174	3009
809.316	2880
809.458	2842
809.6	2777
809.741	2796
809.883	2743
810.025	2849
810.166	2834
810.308	2807
810.45	2819
810.591	2735
810.733	2777
810.875	2819
811.016	2781
811.158	2766
811.299	2792
811.441	2925
811.582	2883
811.724	2823
811.865	2887
812.007	2914
812.148	2857
812.29	2864
812.431	2861
812.573	2941
812.714	2956
812.855	3077
812.997	3051
813.138	3116
813.279	2994
813.421	2979
813.562	2967
813.703	2872
813.845	2834
813.986	2754
814.127	2731
814.268	2807
814.41	2857
814.551	2800
814.692	2895
814.833	2819
814.974	2849
815.115	2937
815.256	2838
815.397	2830
815.539	2845
815.68	2788
815.821	2766
815.962	2929
816.103	2883
816.244	2868
816.385	2868
816.526	2963
816.666	2914
816.807	2735
816.948	2876
817.089	2899
817.23	2838
817.371	2785
817.512	2800
817.653	2826
817.793	2830
817.934	2910
818.075	2944
818.216	2960
818.356	3043
818.497	2895
818.638	2773
818.778	2842
818.919	2807
819.06	2758
819.2	2842
819.341	2804
819.481	2804
819.622	2914
819.762	3108
819.903	3047
820.043	2941
820.184	2925
820.324	2883
820.465	3017
820.605	3036
820.746	3005
820.886	2941
821.026	3077
821.167	3119
821.307	3237
821.447	3306
821.588	3275
821.728	3268
821.868	3226
822.008	3039
822.149	3226
822.289	3253
822.429	3119
822.569	3089
822.709	3195
822.849	3070
822.99	3100
823.13	3188
823.27	3211
823.41	3157
823.55	3138
823.69	3173
823.83	3241
823.97	3074
824.11	3055
824.25	3017
824.389	3097
824.529	3165
824.669	3066
824.809	3218
824.949	3253
825.089	3237
825.228	3173
825.368	3043
825.508	3009
825.648	2998
825.787	3043
825.927	3066
826.067	2979
826.206	3032
826.346	3104
826.485	3138
826.625	3161
826.765	3283
826.904	3214
827.044	3032
827.183	2971
827.323	2910
827.462	3036
827.601	2944
827.741	2998
827.88	2979
828.02	2887
828.159	3024
828.298	3066
828.437	3157
828.577	3085
828.716	3279
828.855	3119
828.994	2956
829.134	2914
829.273	2990
829.412	2895
829.551	2918
829.69	2941
829.829	3036
829.968	3176
830.107	3043
830.246	3051
830.385	2906
830.524	2906
830.663	2849
830.802	2777
830.941	2708
831.08	2689
831.219	2781
831.357	2777
831.496	3001
831.635	2743
831.774	2678
831.913	2670
832.051	2602
832.19	2606
832.329	2693
832.467	2583
832.606	2522
832.744	2629
832.883	2617
833.022	2617
833.16	2670
833.299	2750
833.437	2701
833.576	2743
833.714	2766
833.852	2785
833.991	2804
834.129	2861
834.267	2864
834.406	2823
834.544	2944
834.682	2899
834.821	2902
834.959	3085
835.097	2925
835.235	3070
835.373	3009
835.511	3051
835.65	2975
835.788	3001
835.926	2868
836.064	2861
836.202	2899
836.34	3135
836.478	3180
836.615	3085
836.753	3180
836.891	3211
837.029	3184
837.167	3108
837.305	3100
837.443	3077
837.58	2990
837.718	3184
837.856	3108
837.993	3047
838.131	3169
838.269	3131
838.406	3123
838.544	3119
838.681	2944
838.819	2944
838.956	2834
839.094	2899
839.231	2929
839.369	3062
839.506	3378
839.643	3218
839.781	3043
839.918	3013
840.055	3074
840.193	3085
840.33	3135
840.467	3112
840.604	3188
840.742	3431
840.879	3081
841.016	3127
841.153	3173
841.29	3340
841.427	3329
841.564	3321
841.701	3348
841.838	3195
841.975	3184
842.112	3241
842.249	3100
842.385	3081
842.522	3272
842.659	3127
842.796	3097
842.933	3138
843.069	3036
843.206	3062
843.343	3203
843.479	3173
843.616	3161
843.752	2948
843.889	2902
844.025	3104
844.162	2914
844.298	3089
844.435	2975
844.571	2956
844.708	3123
844.844	3241
844.98	3237
845.117	3233
845.253	3081
845.389	3005
845.525	3138
845.661	3116
845.798	3032
845.934	3176
846.07	3085
846.206	3260
846.342	3336
846.478	3279
846.614	3123
846.75	3074
846.886	3055
847.022	3253
847.158	3169
847.294	3222
847.429	3264
847.565	3230
847.701	3492
847.837	3077
847.972	3032
848.108	3169
848.244	3157
848.379	3013
848.515	2982
848.65	2982
848.786	2994
848.921	3051
849.057	3142
849.192	3157
849.328	3112
849.463	3104
849.598	3077
849.734	3062
849.869	2967
850.004	2956
850.14	3017
850.275	2925
850.41	2868
850.545	2929
850.68	2944
850.815	2952
850.95	3009
851.085	3222
851.22	3127
851.355	3058
851.49	2963
851.625	3024
851.76	3062
851.895	2941
852.03	2963
852.165	3051
852.299	3146
852.434	3192
852.569	3154
852.703	3203
852.838	3279
852.973	3363
853.107	3355
853.242	3192
853.376	3108
853.511	3001
853.645	3043
853.78	3256
853.914	3131
854.048	3157
854.183	3108
854.317	3176
854.451	3291
854.585	3138
854.72	3077
854.854	3233
854.988	3074
855.122	3135
855.256	2990
855.39	3112
855.524	3237
855.658	3226
855.792	3138
855.926	3192
856.06	3256
856.194	3256
856.327	3146
856.461	3108
856.595	3081
856.729	3100
856.862	3233
856.996	3146
857.13	3245
857.263	3253
857.397	3268
857.53	3138
857.664	3211
857.797	3249
857.931	3272
858.064	3161
858.197	3218
858.331	3165
858.464	3070
858.597	3013
858.731	3135
858.864	3169
858.997	3131
859.13	3161
859.263	3214
859.396	3226
859.529	3112
859.662	3070
859.795	3062
859.928	3165
860.061	3325
860.194	3310
860.327	3161
860.46	3089
860.592	3249
860.725	3275
860.858	3310
860.99	3089
861.123	3081
861.256	3085
861.388	3176
861.521	3842
861.653	3070
861.786	3001
861.918	3024
862.05	3051
862.183	3077
862.315	3142
862.447	3230
862.58	3119
862.712	2990
862.844	2853
862.976	3066
863.108	3043
863.24	3469
863.372	2918
863.504	2990
863.636	2971
863.768	3051
863.9	2944
864.032	2963
864.164	2948
864.296	3055
864.428	3123
864.559	3112
864.691	3112
864.823	3085
864.954	3058
865.086	3058
865.217	3032
865.349	2941
865.48	3009
865.612	3043
865.743	3180
865.875	3005
866.006	2963
866.137	3005
866.269	2986
866.4	2960
866.531	2948
866.662	2887
866.793	2937
866.924	2925
867.055	3001
867.186	2979
867.317	2906
867.448	2861
867.579	2864
867.71	2853
867.841	2849
867.972	2929
868.103	2914
868.233	2876
868.364	2880
868.495	2944
868.625	3066
868.756	3195
868.886	2982
869.017	3020
869.147	3138
869.278	3180
869.408	3097
869.539	3039
869.669	3097
869.799	3043
869.929	3138
870.06	3154
870.19	3336
870.32	3313
870.45	3294
870.58	3359
870.71	3473
870.84	3447
870.97	3310
871.1	3256
871.23	3496
871.36	3504
871.489	3393
871.619	3435
871.749	3428
871.879	3424
872.008	3488
872.138	3431
872.267	3275
872.397	3123
872.526	3112
872.656	3058
872.785	3097
872.915	3283
873.044	3344
873.173	3233
873.303	3272
873.432	3260
873.561	3249
873.69	3173
873.819	3169
873.948	3249
874.077	3104
874.206	3043
874.335	3081
874.464	3222
874.593	3359
874.722	3272
874.851	3424
874.979	3386
875.108	3336
875.237	3203
875.365	3184
875.494	3173
875.623	3264
875.751	3119
875.88	3138
876.008	3154
876.136	3253
876.265	3393
876.393	3523
876.521	3450
876.65	3382
876.778	3325
876.906	3264
877.034	3203
877.162	3256
877.29	3222
877.418	3241
877.546	3268
877.674	3279
877.802	3256
877.93	3222
878.058	3195
878.185	3127
878.313	3211
878.441	3222
878.568	3062
878.696	3127
878.824	3218
878.951	3291
879.079	3485
879.206	3633
879.333	3435
879.461	3355
879.588	3351
879.715	3496
879.842	3576
879.97	3397
880.097	3188
880.224	3138
880.351	3226
880.478	3226
880.605	3226
880.732	3195
880.859	3462
880.986	3283
881.112	3332
881.239	3211
881.366	3119
881.493	3036
881.619	3005
881.746	3100
881.872	3093
881.999	3089
882.125	3169
882.252	3237
882.378	3283
882.505	3412
882.631	3332
882.757	3184
882.883	3211
883.01	3237
883.136	3184
883.262	3146
883.388	3138
883.514	3321
883.64	3393
883.766	3298
883.892	3222
884.018	3264
884.143	3435
884.269	3549
884.395	3218
884.52	3138
884.646	3207
884.772	3150
884.897	3146
885.023	3207
885.148	3344
885.274	3351
885.399	3416
885.524	3298
885.65	3287
885.775	3344
885.9	3310
886.025	3405
886.15	3420
886.275	3329
886.4	3199
886.525	3264
886.65	3294
886.775	3279
886.9	3500
887.025	3656
887.149	3424
887.274	3264
887.399	3203
887.523	3195
887.648	3195
887.773	3192
887.897	3374
888.021	3401
888.146	3298
888.27	3447
888.395	3580
888.519	3439
888.643	3485
888.767	3454
888.891	3283
889.015	3287
889.139	3298
889.263	3268
889.387	3378
889.511	3504
889.635	3469
889.759	3279
889.883	3317
890.006	3401
890.13	3492
890.254	3256
890.377	3382
890.501	3230
890.624	3180
890.748	3302
890.871	3180
890.995	3108
891.118	3058
891.241	3199
891.364	3245
891.488	3291
891.611	3188
891.734	3226
891.857	3306
891.98	3260
892.103	3351
892.226	3272
892.349	3241
892.471	3116
892.594	3272
892.717	3332
892.839	3279
892.962	3268
893.085	3359
893.207	3260
893.33	3207
893.452	3260
893.575	3355
893.697	3264
893.819	3488
893.941	3507
894.064	3469
894.186	3264
894.308	3256
894.43	3401
894.552	3526
894.674	3443
894.796	3279
894.918	3287
895.04	3291
895.161	3443
895.283	3393
895.405	3340
895.526	3378
895.648	3374
895.769	3420
895.891	3492
896.012	3477
896.134	3507
896.255	3431
896.376	3409
896.498	3367
896.619	3431
896.74	3393
896.861	3416
896.982	3679
897.103	3861
897.224	3591
897.345	3538
897.466	3458
897.587	3485
897.708	3656
897.828	3618
897.949	3454
898.07	3340
898.19	3412
898.311	3591
898.431	3458
898.552	3496
898.672	3591
898.792	3587
898.913	3523
899.033	3393
899.153	3294
899.273	3260
899.393	3302
899.513	3283
899.633	3298
899.753	3355
899.873	3329
899.993	3378
900.113	3355
900.232	3393
900.352	3332
900.472	3325
900.591	3188
900.711	3329
900.83	3237
900.95	3412
901.069	3485
901.189	3370
901.308	3211
901.427	3146
901.546	3161
901.665	3306
901.784	3363
901.904	3253
902.023	3131
902.141	3043
902.26	3013
902.379	3119
902.498	3081
902.617	3062
902.735	3226
902.854	3195
902.973	3237
903.091	3032
903.21	3093
903.328	3138
903.446	3150
903.565	3135
903.683	3165
903.801	3119
903.919	3222
904.038	3279
904.156	3165
904.274	3291
904.392	3294
904.51	3287
904.627	3344
904.745	3435
904.863	3492
904.981	3218
905.098	3146
905.216	3203
905.334	3310
905.451	3279
905.569	3329
905.686	3367
905.803	3431
905.921	3245
906.038	3458
906.155	3359
906.272	3256
906.389	3382
906.506	3230
906.623	3218
906.74	3260
906.857	3207
906.974	3268
907.091	3462
907.208	3576
907.324	3469
907.441	3401
907.557	3272
907.674	3245
907.79	3249
907.907	3332
908.023	3355
908.139	3405
908.256	3351
908.372	3382
908.488	3332
908.604	3241
908.72	3222
908.836	3310
908.952	3298
909.068	3348
909.184	3485
909.3	3409
909.415	3511
909.531	3462
909.647	3260
909.762	3283
909.878	3283
909.993	3363
910.108	3370
910.224	3298
910.339	3412
910.454	3321
910.57	3275
910.685	3283
910.8	3580
910.915	3523
911.03	3462
911.145	3272
911.259	3283
911.374	3291
911.489	3226
911.604	3237
911.718	3123
911.833	3138
911.947	3017
912.062	2986
912.176	3150
912.291	3203
912.405	3195
912.519	3435
912.633	3458
912.748	3355
912.862	3298
912.976	3184
913.09	3051
913.204	3150
913.318	3241
913.431	3325
913.545	3344
913.659	3393
913.772	3344
913.886	3203
914	3173
914.113	3378
914.226	3416
914.34	3332
914.453	3188
914.566	3416
914.68	3268
914.793	3336
914.906	3112
915.019	3108
915.132	3047
915.245	3180
915.358	3230
915.47	3237
915.583	3253
915.696	3272
915.809	3382
915.921	3420
916.034	3279
916.146	3237
916.259	3230
916.371	3401
916.483	3370
916.595	3260
916.708	3351
916.82	3332
916.932	3348
917.044	3382
917.156	3348
917.268	3264
917.38	3306
917.491	3279
917.603	3351
917.715	3431
917.826	3466
917.938	3393
918.049	3256
918.161	3481
918.272	3610
918.384	3557
918.495	3477
918.606	3321
918.717	3256
918.828	3359
918.939	3374
919.05	3313
919.161	3389
919.272	3142
919.383	3268
919.494	3481
919.604	3690
919.715	3481
919.826	3397
919.936	3454
920.047	3591
920.157	3519
920.267	3770
920.378	3622
920.488	3595
920.598	3800
920.708	3926
920.818	3800
920.928	3819
921.038	3998
921.148	3975
921.258	3740
921.368	3625
921.477	3576
921.587	3538
921.697	3439
921.806	3622
921.916	3576
922.025	3321
922.134	3344
922.244	3294
922.353	3469
922.462	3233
922.571	3249
922.68	3066
922.789	3089
922.898	3112
923.007	3085
923.116	3192
923.224	3154
923.333	3184
923.442	3169
923.55	3085
923.659	3146
923.767	3214
923.876	3093
923.984	3237
924.092	3123
924.201	3176
924.309	3253
924.417	3230
924.525	3195
924.633	3188
924.741	4006
924.849	3066
924.956	3264
925.064	3074
925.172	3032
925.279	3074
925.387	3184
925.494	3184
925.602	3340
925.709	3370
925.816	3214
925.924	3268
926.031	3344
926.138	3283
926.245	3351
926.352	3264
926.459	3420
926.566	3454
926.673	3294
926.779	3256
926.886	3283
926.993	3154
927.099	3154
927.206	3112
927.312	3104
927.419	3184
927.525	3222
927.631	3256
927.737	3150
927.843	3104
927.95	3024
928.056	3157
928.162	3169
928.267	3256
928.373	3778
928.479	3317
928.585	3074
928.69	3207
928.796	3291
928.901	3150
929.007	3077
929.112	3192
929.218	3173
929.323	3138
929.428	3123
929.533	3302
929.638	3138
929.743	3180
929.848	3249
929.953	3207
930.058	3100
930.163	2982
930.267	3043
930.372	3211
930.477	3043
930.581	3310
930.685	3207
930.79	3055
930.894	3127
930.998	3070
931.103	3294
931.207	2956
931.311	2929
931.415	2933
931.519	2826
931.623	2807
